onset	duration	subject	session	condition	trial_type	stim_label	key_down	orientation	interval_time	response_time	accuracy	stim_index	serial_position	key_expected	key_pressed	choice_left	choice_right	choice_correct
1.2501335000006293	1.6	sub-15	1	instruction	instruction	language_selection	german	NaN	NaN	NaN	NaN	NaN	NaN	NaN	NaN	NaN	NaN	NaN
32.458073500000864	0.4994	sub-15	1	localizer	stimulus	Katze	NaN	0	2.552024700000402	NaN	1.0	NaN	NaN	NaN	NaN	NaN	NaN	NaN
32.94083520000004	2.552	sub-15	1	localizer	blank	interval	NaN	NaN	NaN	NaN	NaN	NaN	NaN	NaN	NaN	NaN	NaN	NaN
35.79404850000083	0.4995	sub-15	1	localizer	stimulus	Haus	NaN	0	2.501846000000114	NaN	True	NaN	NaN	NaN	NaN	NaN	NaN	NaN
36.27700770000047	2.5018	sub-15	1	localizer	blank	interval	NaN	NaN	NaN	NaN	NaN	NaN	NaN	NaN	NaN	NaN	NaN	NaN
39.08010220000051	0.4995	sub-15	1	localizer	stimulus	Haus	NaN	0	2.284960200000569	NaN	True	NaN	NaN	NaN	NaN	NaN	NaN	NaN
39.56318680000004	2.285	sub-15	1	localizer	blank	interval	NaN	NaN	NaN	NaN	NaN	NaN	NaN	NaN	NaN	NaN	NaN	NaN
42.14928350000082	0.4995	sub-15	1	localizer	stimulus	Schuh	NaN	0	2.251561400000355	NaN	True	NaN	NaN	NaN	NaN	NaN	NaN	NaN
42.63221820000035	2.2516	sub-15	1	localizer	blank	interval	NaN	NaN	NaN	NaN	NaN	NaN	NaN	NaN	NaN	NaN	NaN	NaN
45.18470360000083	0.4996	sub-15	1	localizer	stimulus	Gesicht	NaN	180	2.2517223000004307	0.6841	True	NaN	NaN	NaN	NaN	NaN	NaN	NaN
45.66772810000021	2.2517	sub-15	1	localizer	blank	interval	NaN	NaN	NaN	NaN	NaN	NaN	NaN	NaN	NaN	NaN	NaN	NaN
48.22045320000052	0.4996	sub-15	1	localizer	stimulus	Katze	NaN	0	2.702032799999877	NaN	True	NaN	NaN	NaN	NaN	NaN	NaN	NaN
48.703606500000205	2.702	sub-15	1	localizer	blank	interval	NaN	NaN	NaN	NaN	NaN	NaN	NaN	NaN	NaN	NaN	NaN	NaN
51.70667540000068	0.4995	sub-15	1	localizer	stimulus	Stuhl	NaN	0	2.4020242000005965	NaN	True	NaN	NaN	NaN	NaN	NaN	NaN	NaN
52.18965750000007	2.402	sub-15	1	localizer	blank	interval	NaN	NaN	NaN	NaN	NaN	NaN	NaN	NaN	NaN	NaN	NaN	NaN
54.89261200000056	0.4997	sub-15	1	localizer	stimulus	Gesicht	NaN	0	2.1348876000001837	NaN	True	NaN	NaN	NaN	NaN	NaN	NaN	NaN
55.37571960000059	2.1349	sub-15	1	localizer	blank	interval	NaN	NaN	NaN	NaN	NaN	NaN	NaN	NaN	NaN	NaN	NaN	NaN
57.81164670000089	0.4995	sub-15	1	localizer	stimulus	Gesicht	NaN	0	2.401864700000253	NaN	True	NaN	NaN	NaN	NaN	NaN	NaN	NaN
58.29471970000032	2.4019	sub-15	1	localizer	blank	interval	NaN	NaN	NaN	NaN	NaN	NaN	NaN	NaN	NaN	NaN	NaN	NaN
60.9974428000005	0.4997	sub-15	1	localizer	stimulus	Stuhl	NaN	180	2.318324699999721	0.601	True	NaN	NaN	NaN	NaN	NaN	NaN	NaN
61.48059110000031	2.3183	sub-15	1	localizer	blank	interval	NaN	NaN	NaN	NaN	NaN	NaN	NaN	NaN	NaN	NaN	NaN	NaN
64.09997960000055	0.4996	sub-15	1	localizer	stimulus	Schuh	NaN	0	2.0848550999999134	NaN	True	NaN	NaN	NaN	NaN	NaN	NaN	NaN
64.58299180000085	2.0849	sub-15	1	localizer	blank	interval	NaN	NaN	NaN	NaN	NaN	NaN	NaN	NaN	NaN	NaN	NaN	NaN
66.96989380000014	0.5154	sub-15	1	localizer	stimulus	Haus	NaN	0	2.6353339999996024	NaN	True	NaN	NaN	NaN	NaN	NaN	NaN	NaN
67.45206540000072	2.6353	sub-15	1	localizer	blank	interval	NaN	NaN	NaN	NaN	NaN	NaN	NaN	NaN	NaN	NaN	NaN	NaN
70.38855610000064	0.4996	sub-15	1	localizer	stimulus	Stuhl	NaN	0	2.6186452000001736	NaN	True	NaN	NaN	NaN	NaN	NaN	NaN	NaN
70.87155340000027	2.6186	sub-15	1	localizer	blank	interval	NaN	NaN	NaN	NaN	NaN	NaN	NaN	NaN	NaN	NaN	NaN	NaN
73.79132180000033	0.4994	sub-15	1	localizer	stimulus	Katze	NaN	180	2.485346700000264	0.584	True	NaN	NaN	NaN	NaN	NaN	NaN	NaN
74.27413400000023	2.4853	sub-15	1	localizer	blank	interval	NaN	NaN	NaN	NaN	NaN	NaN	NaN	NaN	NaN	NaN	NaN	NaN
77.0605684000002	0.4996	sub-15	1	localizer	stimulus	Katze	NaN	0	1.6677065000003495	NaN	True	NaN	NaN	NaN	NaN	NaN	NaN	NaN
77.54359010000007	1.6677	sub-15	1	localizer	blank	interval	NaN	NaN	NaN	NaN	NaN	NaN	NaN	NaN	NaN	NaN	NaN	NaN
79.51256950000061	0.4995	sub-15	1	localizer	stimulus	Gesicht	NaN	0	2.6687707000000955	NaN	True	NaN	NaN	NaN	NaN	NaN	NaN	NaN
79.99553780000042	2.6688	sub-15	1	localizer	blank	interval	NaN	NaN	NaN	NaN	NaN	NaN	NaN	NaN	NaN	NaN	NaN	NaN
82.96544820000054	0.4993	sub-15	1	localizer	stimulus	Haus	NaN	0	1.5344134000006306	NaN	True	NaN	NaN	NaN	NaN	NaN	NaN	NaN
83.44824890000018	1.5344	sub-15	1	localizer	blank	interval	NaN	NaN	NaN	NaN	NaN	NaN	NaN	NaN	NaN	NaN	NaN	NaN
85.28372640000089	0.4996	sub-15	1	localizer	stimulus	Katze	NaN	0	2.785466900000756	NaN	True	NaN	NaN	NaN	NaN	NaN	NaN	NaN
85.76676700000007	2.7855	sub-15	1	localizer	blank	interval	NaN	NaN	NaN	NaN	NaN	NaN	NaN	NaN	NaN	NaN	NaN	NaN
88.85332180000023	0.4995	sub-15	1	localizer	stimulus	Schuh	NaN	0	2.134927300000527	NaN	True	NaN	NaN	NaN	NaN	NaN	NaN	NaN
89.33631330000026	2.1349	sub-15	1	localizer	blank	interval	NaN	NaN	NaN	NaN	NaN	NaN	NaN	NaN	NaN	NaN	NaN	NaN
91.77230370000052	0.4996	sub-15	1	localizer	stimulus	Stuhl	NaN	0	2.385173300000119	NaN	True	NaN	NaN	NaN	NaN	NaN	NaN	NaN
92.25530620000065	2.3852	sub-15	1	localizer	blank	interval	NaN	NaN	NaN	NaN	NaN	NaN	NaN	NaN	NaN	NaN	NaN	NaN
94.94161190000068	0.4995	sub-15	1	localizer	stimulus	Stuhl	NaN	0	3.019128699999797	0.7176	False	NaN	NaN	NaN	NaN	NaN	NaN	NaN
95.4245290000008	3.0191	sub-15	1	localizer	blank	interval	NaN	NaN	NaN	NaN	NaN	NaN	NaN	NaN	NaN	NaN	NaN	NaN
98.74493690000054	0.4994	sub-15	1	localizer	stimulus	Haus	NaN	180	2.2182399000003272	0.6507	True	NaN	NaN	NaN	NaN	NaN	NaN	NaN
99.22782030000052	2.2182	sub-15	1	localizer	blank	interval	NaN	NaN	NaN	NaN	NaN	NaN	NaN	NaN	NaN	NaN	NaN	NaN
101.74713500000053	0.4996	sub-15	1	localizer	stimulus	Gesicht	NaN	0	3.4025996000000163	NaN	True	NaN	NaN	NaN	NaN	NaN	NaN	NaN
102.2301933000008	3.4026	sub-15	1	localizer	blank	interval	NaN	NaN	NaN	NaN	NaN	NaN	NaN	NaN	NaN	NaN	NaN	NaN
105.93378350000056	0.4995	sub-15	1	localizer	stimulus	Schuh	NaN	0	2.7020455000001533	NaN	True	NaN	NaN	NaN	NaN	NaN	NaN	NaN
106.41676290000032	2.702	sub-15	1	localizer	blank	interval	NaN	NaN	NaN	NaN	NaN	NaN	NaN	NaN	NaN	NaN	NaN	NaN
109.4198907	0.4997	sub-15	1	localizer	stimulus	Schuh	NaN	180	2.652020200000152	0.7512	True	NaN	NaN	NaN	NaN	NaN	NaN	NaN
109.9029102000004	2.652	sub-15	1	localizer	blank	interval	NaN	NaN	NaN	NaN	NaN	NaN	NaN	NaN	NaN	NaN	NaN	NaN
116.0413849000006	1.0008	sub-15	1	sequence	cue	Haus	NaN	NaN	NaN	NaN	NaN	NaN	NaN	NaN	NaN	NaN	NaN	NaN
117.0421956	2.0015	sub-15	1	sequence	blank	blank	NaN	NaN	NaN	NaN	NaN	NaN	NaN	NaN	NaN	NaN	NaN	NaN
119.04370000000016	0.3004	sub-15	1	sequence	fixation	dot	NaN	NaN	NaN	NaN	NaN	NaN	NaN	NaN	NaN	NaN	NaN	NaN
119.3923992	0.1017	sub-15	1	sequence	stimulus	Stuhl	NaN	NaN	128.0	NaN	NaN	5.0	1.0	NaN	NaN	NaN	NaN	NaN
119.49408360000052	0.1336	sub-15	1	sequence	interval	dot	NaN	NaN	NaN	NaN	NaN	NaN	NaN	NaN	NaN	NaN	NaN	NaN
119.62769860000026	0.1001	sub-15	1	sequence	stimulus	Gesicht	NaN	NaN	128.0	NaN	NaN	1.0	2.0	NaN	NaN	NaN	NaN	NaN
119.72776310000064	0.1335	sub-15	1	sequence	interval	dot	NaN	NaN	NaN	NaN	NaN	NaN	NaN	NaN	NaN	NaN	NaN	NaN
119.86126520000016	0.0999	sub-15	1	sequence	stimulus	Katze	NaN	NaN	128.0	NaN	NaN	3.0	3.0	NaN	NaN	NaN	NaN	NaN
119.9611691	0.1337	sub-15	1	sequence	interval	dot	NaN	NaN	NaN	NaN	NaN	NaN	NaN	NaN	NaN	NaN	NaN	NaN
120.0948425000006	0.0998	sub-15	1	sequence	stimulus	Haus	NaN	NaN	128.0	NaN	NaN	2.0	4.0	NaN	NaN	NaN	NaN	NaN
120.1946865	0.1337	sub-15	1	sequence	interval	dot	NaN	NaN	NaN	NaN	NaN	NaN	NaN	NaN	NaN	NaN	NaN	NaN
120.3284078000006	0.0998	sub-15	1	sequence	stimulus	Schuh	NaN	NaN	128.0	NaN	NaN	4.0	5.0	NaN	NaN	NaN	NaN	NaN
120.42822440000054	0.1334	sub-15	1	sequence	interval	dot	NaN	NaN	NaN	NaN	NaN	NaN	NaN	NaN	NaN	NaN	NaN	NaN
120.5616383000006	8.0712	sub-15	1	sequence	delay	dot	NaN	NaN	NaN	NaN	NaN	NaN	NaN	NaN	NaN	NaN	NaN	NaN
128.60659970000052	0.9126	sub-15	1	sequence	choice	choice	left	NaN	NaN	0.8882	True	NaN	NaN	left	1.0	4.0	3.0	4.0
129.5196106000003	0.4998	sub-15	1	sequence	feedback	NaN	NaN	NaN	NaN	NaN	NaN	NaN	NaN	NaN	NaN	NaN	NaN	NaN
130.0196887000002	1.0003	sub-15	1	sequence	cue	Haus	NaN	NaN	NaN	NaN	NaN	NaN	NaN	NaN	NaN	NaN	NaN	NaN
131.02000400000088	2.0015	sub-15	1	sequence	blank	blank	NaN	NaN	NaN	NaN	NaN	NaN	NaN	NaN	NaN	NaN	NaN	NaN
133.02149030000055	0.3004	sub-15	1	sequence	fixation	dot	NaN	NaN	NaN	NaN	NaN	NaN	NaN	NaN	NaN	NaN	NaN	NaN
133.33940370000073	0.0992	sub-15	1	sequence	stimulus	Katze	NaN	NaN	32.0	NaN	NaN	3.0	1.0	NaN	NaN	NaN	NaN	NaN
133.43861880000077	0.0334	sub-15	1	sequence	interval	dot	NaN	NaN	NaN	NaN	NaN	NaN	NaN	NaN	NaN	NaN	NaN	NaN
133.47199590000037	0.1	sub-15	1	sequence	stimulus	Gesicht	NaN	NaN	32.0	NaN	NaN	1.0	2.0	NaN	NaN	NaN	NaN	NaN
133.57204380000076	0.0335	sub-15	1	sequence	interval	dot	NaN	NaN	NaN	NaN	NaN	NaN	NaN	NaN	NaN	NaN	NaN	NaN
133.60552760000064	0.0999	sub-15	1	sequence	stimulus	Stuhl	NaN	NaN	32.0	NaN	NaN	5.0	3.0	NaN	NaN	NaN	NaN	NaN
133.70544600000085	0.0335	sub-15	1	sequence	interval	dot	NaN	NaN	NaN	NaN	NaN	NaN	NaN	NaN	NaN	NaN	NaN	NaN
133.73898970000027	0.1001	sub-15	1	sequence	stimulus	Schuh	NaN	NaN	32.0	NaN	NaN	4.0	4.0	NaN	NaN	NaN	NaN	NaN
133.83904240000084	0.0333	sub-15	1	sequence	interval	dot	NaN	NaN	NaN	NaN	NaN	NaN	NaN	NaN	NaN	NaN	NaN	NaN
133.8723609000008	0.1	sub-15	1	sequence	stimulus	Haus	NaN	NaN	32.0	NaN	NaN	2.0	5.0	NaN	NaN	NaN	NaN	NaN
133.97237330000007	0.0334	sub-15	1	sequence	interval	dot	NaN	NaN	NaN	NaN	NaN	NaN	NaN	NaN	NaN	NaN	NaN	NaN
134.0057407000004	8.523	sub-15	1	sequence	delay	dot	NaN	NaN	NaN	NaN	NaN	NaN	NaN	NaN	NaN	NaN	NaN	NaN
142.51625420000073	0.8144	sub-15	1	sequence	choice	choice	right	NaN	NaN	0.8037	False	NaN	NaN	left	True	5.0	4.0	5.0
143.33089000000018	0.4997	sub-15	1	sequence	feedback	NaN	NaN	NaN	NaN	NaN	NaN	NaN	NaN	NaN	NaN	NaN	NaN	NaN
143.83085570000003	1.0002	sub-15	1	sequence	cue	Katze	NaN	NaN	NaN	NaN	NaN	NaN	NaN	NaN	NaN	NaN	NaN	NaN
144.83104620000086	2.0017	sub-15	1	sequence	blank	blank	NaN	NaN	NaN	NaN	NaN	NaN	NaN	NaN	NaN	NaN	NaN	NaN
146.83270420000008	0.3003	sub-15	1	sequence	fixation	dot	NaN	NaN	NaN	NaN	NaN	NaN	NaN	NaN	NaN	NaN	NaN	NaN
147.15062220000073	0.0991	sub-15	1	sequence	stimulus	Stuhl	NaN	NaN	512.0	NaN	NaN	5.0	1.0	NaN	NaN	NaN	NaN	NaN
147.2497344000003	0.5172	sub-15	1	sequence	interval	dot	NaN	NaN	NaN	NaN	NaN	NaN	NaN	NaN	NaN	NaN	NaN	NaN
147.7669392000007	0.0999	sub-15	1	sequence	stimulus	Gesicht	NaN	NaN	512.0	NaN	NaN	1.0	2.0	NaN	NaN	NaN	NaN	NaN
147.8668142000006	0.5172	sub-15	1	sequence	interval	dot	NaN	NaN	NaN	NaN	NaN	NaN	NaN	NaN	NaN	NaN	NaN	NaN
148.38405720000085	0.0999	sub-15	1	sequence	stimulus	Haus	NaN	NaN	512.0	NaN	NaN	2.0	3.0	NaN	NaN	NaN	NaN	NaN
148.48399170000084	0.5171	sub-15	1	sequence	interval	dot	NaN	NaN	NaN	NaN	NaN	NaN	NaN	NaN	NaN	NaN	NaN	NaN
149.00112250000075	0.1001	sub-15	1	sequence	stimulus	Katze	NaN	NaN	512.0	NaN	NaN	3.0	4.0	NaN	NaN	NaN	NaN	NaN
149.10122010000032	0.5172	sub-15	1	sequence	interval	dot	NaN	NaN	NaN	NaN	NaN	NaN	NaN	NaN	NaN	NaN	NaN	NaN
149.6184406000002	0.1	sub-15	1	sequence	stimulus	Schuh	NaN	NaN	512.0	NaN	NaN	4.0	5.0	NaN	NaN	NaN	NaN	NaN
149.7184072	0.5171	sub-15	1	sequence	interval	dot	NaN	NaN	NaN	NaN	NaN	NaN	NaN	NaN	NaN	NaN	NaN	NaN
150.23548070000015	6.1533	sub-15	1	sequence	delay	dot	NaN	NaN	NaN	NaN	NaN	NaN	NaN	NaN	NaN	NaN	NaN	NaN
156.37396460000036	0.8678	sub-15	1	sequence	choice	choice	left	NaN	NaN	0.8547	True	NaN	NaN	left	True	4.0	5.0	4.0
157.24201800000083	0.4998	sub-15	1	sequence	feedback	NaN	NaN	NaN	NaN	NaN	NaN	NaN	NaN	NaN	NaN	NaN	NaN	NaN
157.74203230000057	1.0004	sub-15	1	sequence	cue	Stuhl	NaN	NaN	NaN	NaN	NaN	NaN	NaN	NaN	NaN	NaN	NaN	NaN
158.74244650000037	2.0016	sub-15	1	sequence	blank	blank	NaN	NaN	NaN	NaN	NaN	NaN	NaN	NaN	NaN	NaN	NaN	NaN
160.74404930000037	0.3005	sub-15	1	sequence	fixation	dot	NaN	NaN	NaN	NaN	NaN	NaN	NaN	NaN	NaN	NaN	NaN	NaN
161.06341580000026	0.1144	sub-15	1	sequence	stimulus	Gesicht	NaN	NaN	64.0	NaN	NaN	1.0	1.0	NaN	NaN	NaN	NaN	NaN
161.1778305000007	0.0668	sub-15	1	sequence	interval	dot	NaN	NaN	NaN	NaN	NaN	NaN	NaN	NaN	NaN	NaN	NaN	NaN
161.24466350000057	0.1	sub-15	1	sequence	stimulus	Schuh	NaN	NaN	64.0	NaN	NaN	4.0	2.0	NaN	NaN	NaN	NaN	NaN
161.3446683000002	0.0669	sub-15	1	sequence	interval	dot	NaN	NaN	NaN	NaN	NaN	NaN	NaN	NaN	NaN	NaN	NaN	NaN
161.4115322000007	0.1	sub-15	1	sequence	stimulus	Haus	NaN	NaN	64.0	NaN	NaN	2.0	3.0	NaN	NaN	NaN	NaN	NaN
161.51150790000065	0.0668	sub-15	1	sequence	interval	dot	NaN	NaN	NaN	NaN	NaN	NaN	NaN	NaN	NaN	NaN	NaN	NaN
161.5782848000008	0.1001	sub-15	1	sequence	stimulus	Katze	NaN	NaN	64.0	NaN	NaN	3.0	4.0	NaN	NaN	NaN	NaN	NaN
161.67840810000052	0.0667	sub-15	1	sequence	interval	dot	NaN	NaN	NaN	NaN	NaN	NaN	NaN	NaN	NaN	NaN	NaN	NaN
161.74506530000053	0.1001	sub-15	1	sequence	stimulus	Stuhl	NaN	NaN	64.0	NaN	NaN	5.0	5.0	NaN	NaN	NaN	NaN	NaN
161.84513570000036	0.0667	sub-15	1	sequence	interval	dot	NaN	NaN	NaN	NaN	NaN	NaN	NaN	NaN	NaN	NaN	NaN	NaN
161.9118687	8.3879	sub-15	1	sequence	delay	dot	NaN	NaN	NaN	NaN	NaN	NaN	NaN	NaN	NaN	NaN	NaN	NaN
170.28359510000064	1.1528	sub-15	1	sequence	choice	choice	right	NaN	NaN	1.1383	True	NaN	NaN	right	True	2.0	5.0	5.0
171.43663560000005	0.4999	sub-15	1	sequence	feedback	NaN	NaN	NaN	NaN	NaN	NaN	NaN	NaN	NaN	NaN	NaN	NaN	NaN
171.93675340000027	1.0005	sub-15	1	sequence	cue	Gesicht	NaN	NaN	NaN	NaN	NaN	NaN	NaN	NaN	NaN	NaN	NaN	NaN
172.93721410000035	2.0016	sub-15	1	sequence	blank	blank	NaN	NaN	NaN	NaN	NaN	NaN	NaN	NaN	NaN	NaN	NaN	NaN
174.93879090000064	0.3003	sub-15	1	sequence	fixation	dot	NaN	NaN	NaN	NaN	NaN	NaN	NaN	NaN	NaN	NaN	NaN	NaN
175.25649440000052	0.0993	sub-15	1	sequence	stimulus	Stuhl	NaN	NaN	512.0	NaN	NaN	5.0	1.0	NaN	NaN	NaN	NaN	NaN
175.35580200000004	0.5172	sub-15	1	sequence	interval	dot	NaN	NaN	NaN	NaN	NaN	NaN	NaN	NaN	NaN	NaN	NaN	NaN
175.8729645000003	0.0999	sub-15	1	sequence	stimulus	Katze	NaN	NaN	512.0	NaN	NaN	3.0	2.0	NaN	NaN	NaN	NaN	NaN
175.97283810000044	0.5173	sub-15	1	sequence	interval	dot	NaN	NaN	NaN	NaN	NaN	NaN	NaN	NaN	NaN	NaN	NaN	NaN
176.4901677000007	0.1	sub-15	1	sequence	stimulus	Gesicht	NaN	NaN	512.0	NaN	NaN	1.0	3.0	NaN	NaN	NaN	NaN	NaN
176.59014910000042	0.5172	sub-15	1	sequence	interval	dot	NaN	NaN	NaN	NaN	NaN	NaN	NaN	NaN	NaN	NaN	NaN	NaN
177.1073621000005	0.0999	sub-15	1	sequence	stimulus	Haus	NaN	NaN	512.0	NaN	NaN	2.0	4.0	NaN	NaN	NaN	NaN	NaN
177.20729840000058	0.5171	sub-15	1	sequence	interval	dot	NaN	NaN	NaN	NaN	NaN	NaN	NaN	NaN	NaN	NaN	NaN	NaN
177.72440310000002	0.1	sub-15	1	sequence	stimulus	Schuh	NaN	NaN	512.0	NaN	NaN	4.0	5.0	NaN	NaN	NaN	NaN	NaN
177.82439150000027	0.5172	sub-15	1	sequence	interval	dot	NaN	NaN	NaN	NaN	NaN	NaN	NaN	NaN	NaN	NaN	NaN	NaN
178.3415644000006	6.1366	sub-15	1	sequence	delay	dot	NaN	NaN	NaN	NaN	NaN	NaN	NaN	NaN	NaN	NaN	NaN	NaN
184.45330120000017	0.8277	sub-15	1	sequence	choice	choice	right	NaN	NaN	0.8048	True	NaN	NaN	right	True	4.0	3.0	3.0
185.2813160000005	0.4998	sub-15	1	sequence	feedback	NaN	NaN	NaN	NaN	NaN	NaN	NaN	NaN	NaN	NaN	NaN	NaN	NaN
185.7814049000008	1.0003	sub-15	1	sequence	cue	Haus	NaN	NaN	NaN	NaN	NaN	NaN	NaN	NaN	NaN	NaN	NaN	NaN
186.7816995000003	2.0015	sub-15	1	sequence	blank	blank	NaN	NaN	NaN	NaN	NaN	NaN	NaN	NaN	NaN	NaN	NaN	NaN
188.78323420000012	0.3004	sub-15	1	sequence	fixation	dot	NaN	NaN	NaN	NaN	NaN	NaN	NaN	NaN	NaN	NaN	NaN	NaN
189.1018311000007	0.1151	sub-15	1	sequence	stimulus	Katze	NaN	NaN	128.0	NaN	NaN	3.0	1.0	NaN	NaN	NaN	NaN	NaN
189.2168825000008	0.1336	sub-15	1	sequence	interval	dot	NaN	NaN	NaN	NaN	NaN	NaN	NaN	NaN	NaN	NaN	NaN	NaN
189.3505083	0.0999	sub-15	1	sequence	stimulus	Haus	NaN	NaN	128.0	NaN	NaN	2.0	2.0	NaN	NaN	NaN	NaN	NaN
189.4504081000005	0.1336	sub-15	1	sequence	interval	dot	NaN	NaN	NaN	NaN	NaN	NaN	NaN	NaN	NaN	NaN	NaN	NaN
189.5839711000008	0.0999	sub-15	1	sequence	stimulus	Gesicht	NaN	NaN	128.0	NaN	NaN	1.0	3.0	NaN	NaN	NaN	NaN	NaN
189.68390250000084	0.1336	sub-15	1	sequence	interval	dot	NaN	NaN	NaN	NaN	NaN	NaN	NaN	NaN	NaN	NaN	NaN	NaN
189.81755210000028	0.1	sub-15	1	sequence	stimulus	Schuh	NaN	NaN	128.0	NaN	NaN	4.0	4.0	NaN	NaN	NaN	NaN	NaN
189.9175408000001	0.1335	sub-15	1	sequence	interval	dot	NaN	NaN	NaN	NaN	NaN	NaN	NaN	NaN	NaN	NaN	NaN	NaN
190.05100980000043	0.0999	sub-15	1	sequence	stimulus	Stuhl	NaN	NaN	128.0	NaN	NaN	5.0	5.0	NaN	NaN	NaN	NaN	NaN
190.15094810000028	0.1334	sub-15	1	sequence	interval	dot	NaN	NaN	NaN	NaN	NaN	NaN	NaN	NaN	NaN	NaN	NaN	NaN
190.2843899000009	8.0717	sub-15	1	sequence	delay	dot	NaN	NaN	NaN	NaN	NaN	NaN	NaN	NaN	NaN	NaN	NaN	NaN
198.33697870000012	0.9054	sub-15	1	sequence	choice	choice	right	NaN	NaN	0.8879	True	NaN	NaN	right	True	5.0	2.0	2.0
199.2426207000008	0.4998	sub-15	1	sequence	feedback	NaN	NaN	NaN	NaN	NaN	NaN	NaN	NaN	NaN	NaN	NaN	NaN	NaN
199.7426613000007	1.0003	sub-15	1	sequence	cue	Stuhl	NaN	NaN	NaN	NaN	NaN	NaN	NaN	NaN	NaN	NaN	NaN	NaN
200.74297430000024	2.0017	sub-15	1	sequence	blank	blank	NaN	NaN	NaN	NaN	NaN	NaN	NaN	NaN	NaN	NaN	NaN	NaN
202.74464930000067	0.3003	sub-15	1	sequence	fixation	dot	NaN	NaN	NaN	NaN	NaN	NaN	NaN	NaN	NaN	NaN	NaN	NaN
203.0636613000006	0.1148	sub-15	1	sequence	stimulus	Haus	NaN	NaN	32.0	NaN	NaN	2.0	1.0	NaN	NaN	NaN	NaN	NaN
203.17843540000013	0.0334	sub-15	1	sequence	interval	dot	NaN	NaN	NaN	NaN	NaN	NaN	NaN	NaN	NaN	NaN	NaN	NaN
203.21182260000023	0.1001	sub-15	1	sequence	stimulus	Katze	NaN	NaN	32.0	NaN	NaN	3.0	2.0	NaN	NaN	NaN	NaN	NaN
203.3118782000001	0.0335	sub-15	1	sequence	interval	dot	NaN	NaN	NaN	NaN	NaN	NaN	NaN	NaN	NaN	NaN	NaN	NaN
203.3453367000002	0.1	sub-15	1	sequence	stimulus	Gesicht	NaN	NaN	32.0	NaN	NaN	1.0	3.0	NaN	NaN	NaN	NaN	NaN
203.4453714000001	0.0336	sub-15	1	sequence	interval	dot	NaN	NaN	NaN	NaN	NaN	NaN	NaN	NaN	NaN	NaN	NaN	NaN
203.47895830000016	0.0998	sub-15	1	sequence	stimulus	Stuhl	NaN	NaN	32.0	NaN	NaN	5.0	4.0	NaN	NaN	NaN	NaN	NaN
203.5788005000004	0.0335	sub-15	1	sequence	interval	dot	NaN	NaN	NaN	NaN	NaN	NaN	NaN	NaN	NaN	NaN	NaN	NaN
203.61226870000064	0.1	sub-15	1	sequence	stimulus	Schuh	NaN	NaN	32.0	NaN	NaN	4.0	5.0	NaN	NaN	NaN	NaN	NaN
203.71222090000083	0.0334	sub-15	1	sequence	interval	dot	NaN	NaN	NaN	NaN	NaN	NaN	NaN	NaN	NaN	NaN	NaN	NaN
203.7455729000003	8.5215	sub-15	1	sequence	delay	dot	NaN	NaN	NaN	NaN	NaN	NaN	NaN	NaN	NaN	NaN	NaN	NaN
212.24666630000047	1.0903	sub-15	1	sequence	choice	choice	right	NaN	NaN	1.0715	True	NaN	NaN	right	True	5.0	4.0	4.0
213.3372484000001	0.4999	sub-15	1	sequence	feedback	NaN	NaN	NaN	NaN	NaN	NaN	NaN	NaN	NaN	NaN	NaN	NaN	NaN
213.83734640000057	1.0004	sub-15	1	sequence	cue	Stuhl	NaN	NaN	NaN	NaN	NaN	NaN	NaN	NaN	NaN	NaN	NaN	NaN
214.83776750000013	2.0017	sub-15	1	sequence	blank	blank	NaN	NaN	NaN	NaN	NaN	NaN	NaN	NaN	NaN	NaN	NaN	NaN
216.83943370000088	0.3002	sub-15	1	sequence	fixation	dot	NaN	NaN	NaN	NaN	NaN	NaN	NaN	NaN	NaN	NaN	NaN	NaN
217.17195640000045	0.101	sub-15	1	sequence	stimulus	Schuh	NaN	NaN	64.0	NaN	NaN	4.0	1.0	NaN	NaN	NaN	NaN	NaN
217.27292560000024	0.0668	sub-15	1	sequence	interval	dot	NaN	NaN	NaN	NaN	NaN	NaN	NaN	NaN	NaN	NaN	NaN	NaN
217.33973270000024	0.0999	sub-15	1	sequence	stimulus	Haus	NaN	NaN	64.0	NaN	NaN	2.0	2.0	NaN	NaN	NaN	NaN	NaN
217.43965370000024	0.0669	sub-15	1	sequence	interval	dot	NaN	NaN	NaN	NaN	NaN	NaN	NaN	NaN	NaN	NaN	NaN	NaN
217.5065200000008	0.0999	sub-15	1	sequence	stimulus	Gesicht	NaN	NaN	64.0	NaN	NaN	1.0	3.0	NaN	NaN	NaN	NaN	NaN
217.60645340000065	0.0669	sub-15	1	sequence	interval	dot	NaN	NaN	NaN	NaN	NaN	NaN	NaN	NaN	NaN	NaN	NaN	NaN
217.67330680000032	0.1	sub-15	1	sequence	stimulus	Stuhl	NaN	NaN	64.0	NaN	NaN	5.0	4.0	NaN	NaN	NaN	NaN	NaN
217.7732687000007	0.0669	sub-15	1	sequence	interval	dot	NaN	NaN	NaN	NaN	NaN	NaN	NaN	NaN	NaN	NaN	NaN	NaN
217.8401273000009	0.0999	sub-15	1	sequence	stimulus	Katze	NaN	NaN	64.0	NaN	NaN	3.0	5.0	NaN	NaN	NaN	NaN	NaN
217.94006650000028	0.0667	sub-15	1	sequence	interval	dot	NaN	NaN	NaN	NaN	NaN	NaN	NaN	NaN	NaN	NaN	NaN	NaN
218.0067719000008	8.3719	sub-15	1	sequence	delay	dot	NaN	NaN	NaN	NaN	NaN	NaN	NaN	NaN	NaN	NaN	NaN	NaN
226.3643281000004	1.0674	sub-15	1	sequence	choice	choice	left	NaN	NaN	1.0548	True	NaN	NaN	left	True	4.0	5.0	4.0
227.43202140000085	0.4999	sub-15	1	sequence	feedback	NaN	NaN	NaN	NaN	NaN	NaN	NaN	NaN	NaN	NaN	NaN	NaN	NaN
231.75217560000056	0.4994	sub-15	1	localizer	stimulus	Schuh	NaN	0	1.6510826999992219	NaN	True	NaN	NaN	NaN	NaN	NaN	NaN	NaN
232.2352179000009	1.6511	sub-15	1	localizer	blank	interval	NaN	NaN	NaN	NaN	NaN	NaN	NaN	NaN	NaN	NaN	NaN	NaN
234.1873860000005	0.4996	sub-15	1	localizer	stimulus	Haus	NaN	180	2.3016727000003527	0.6843	True	NaN	NaN	NaN	NaN	NaN	NaN	NaN
234.6705393000002	2.3017	sub-15	1	localizer	blank	interval	NaN	NaN	NaN	NaN	NaN	NaN	NaN	NaN	NaN	NaN	NaN	NaN
237.27322260000076	0.4995	sub-15	1	localizer	stimulus	Haus	NaN	0	2.018230999999986	NaN	True	NaN	NaN	NaN	NaN	NaN	NaN	NaN
237.7562061000008	2.0182	sub-15	1	localizer	blank	interval	NaN	NaN	NaN	NaN	NaN	NaN	NaN	NaN	NaN	NaN	NaN	NaN
240.0756560000009	0.4995	sub-15	1	localizer	stimulus	Gesicht	NaN	0	2.3019396999998207	NaN	True	NaN	NaN	NaN	NaN	NaN	NaN	NaN
240.5586503000004	2.3019	sub-15	1	localizer	blank	interval	NaN	NaN	NaN	NaN	NaN	NaN	NaN	NaN	NaN	NaN	NaN	NaN
243.16156730000057	0.4996	sub-15	1	localizer	stimulus	Gesicht	NaN	0	3.051944299999377	NaN	True	NaN	NaN	NaN	NaN	NaN	NaN	NaN
243.64466380000067	3.0519	sub-15	1	localizer	blank	interval	NaN	NaN	NaN	NaN	NaN	NaN	NaN	NaN	NaN	NaN	NaN	NaN
246.9977729000002	0.4996	sub-15	1	localizer	stimulus	Haus	NaN	0	1.4176197999995566	NaN	True	NaN	NaN	NaN	NaN	NaN	NaN	NaN
247.48076600000056	1.4176	sub-15	1	localizer	blank	interval	NaN	NaN	NaN	NaN	NaN	NaN	NaN	NaN	NaN	NaN	NaN	NaN
249.19957050000085	0.4996	sub-15	1	localizer	stimulus	Stuhl	NaN	0	3.0190446999995117	NaN	True	NaN	NaN	NaN	NaN	NaN	NaN	NaN
249.68251910000072	3.019	sub-15	1	localizer	blank	interval	NaN	NaN	NaN	NaN	NaN	NaN	NaN	NaN	NaN	NaN	NaN	NaN
253.00260060000076	0.4995	sub-15	1	localizer	stimulus	Katze	NaN	0	2.2682815000007395	NaN	True	NaN	NaN	NaN	NaN	NaN	NaN	NaN
253.48564290000013	2.2683	sub-15	1	localizer	blank	interval	NaN	NaN	NaN	NaN	NaN	NaN	NaN	NaN	NaN	NaN	NaN	NaN
256.05506220000007	0.4995	sub-15	1	localizer	stimulus	Schuh	NaN	0	2.318318600000566	NaN	True	NaN	NaN	NaN	NaN	NaN	NaN	NaN
256.5381287	2.3183	sub-15	1	localizer	blank	interval	NaN	NaN	NaN	NaN	NaN	NaN	NaN	NaN	NaN	NaN	NaN	NaN
259.15756000000056	0.4995	sub-15	1	localizer	stimulus	Katze	NaN	0	1.5509839999995165	NaN	True	NaN	NaN	NaN	NaN	NaN	NaN	NaN
259.6406521000008	1.551	sub-15	1	localizer	blank	interval	NaN	NaN	NaN	NaN	NaN	NaN	NaN	NaN	NaN	NaN	NaN	NaN
261.4928989	0.4996	sub-15	1	localizer	stimulus	Haus	NaN	0	2.8021208000000115	NaN	True	NaN	NaN	NaN	NaN	NaN	NaN	NaN
261.9760513000001	2.8021	sub-15	1	localizer	blank	interval	NaN	NaN	NaN	NaN	NaN	NaN	NaN	NaN	NaN	NaN	NaN	NaN
265.0789835000005	0.4996	sub-15	1	localizer	stimulus	Schuh	NaN	180	3.085729999999785	0.7176	True	NaN	NaN	NaN	NaN	NaN	NaN	NaN
265.56204420000086	3.0857	sub-15	1	localizer	blank	interval	NaN	NaN	NaN	NaN	NaN	NaN	NaN	NaN	NaN	NaN	NaN	NaN
268.94888620000074	0.4994	sub-15	1	localizer	stimulus	Gesicht	NaN	0	2.251788000000488	NaN	True	NaN	NaN	NaN	NaN	NaN	NaN	NaN
269.4317675000002	2.2518	sub-15	1	localizer	blank	interval	NaN	NaN	NaN	NaN	NaN	NaN	NaN	NaN	NaN	NaN	NaN	NaN
271.9845215000005	0.4996	sub-15	1	localizer	stimulus	Katze	NaN	0	2.001480700000684	NaN	True	NaN	NaN	NaN	NaN	NaN	NaN	NaN
272.4676048000001	2.0015	sub-15	1	localizer	blank	interval	NaN	NaN	NaN	NaN	NaN	NaN	NaN	NaN	NaN	NaN	NaN	NaN
274.7701726000005	0.4997	sub-15	1	localizer	stimulus	Stuhl	NaN	0	3.4527225000001636	NaN	True	NaN	NaN	NaN	NaN	NaN	NaN	NaN
275.2532176000004	3.4527	sub-15	1	localizer	blank	interval	NaN	NaN	NaN	NaN	NaN	NaN	NaN	NaN	NaN	NaN	NaN	NaN
279.0069093000002	0.4997	sub-15	1	localizer	stimulus	Stuhl	NaN	0	3.352574200000163	NaN	True	NaN	NaN	NaN	NaN	NaN	NaN	NaN
279.4901269000002	3.3526	sub-15	1	localizer	blank	interval	NaN	NaN	NaN	NaN	NaN	NaN	NaN	NaN	NaN	NaN	NaN	NaN
283.1437143000003	0.4996	sub-15	1	localizer	stimulus	Haus	NaN	0	1.968197500000315	NaN	True	NaN	NaN	NaN	NaN	NaN	NaN	NaN
283.6266744000004	1.9682	sub-15	1	localizer	blank	interval	NaN	NaN	NaN	NaN	NaN	NaN	NaN	NaN	NaN	NaN	NaN	NaN
285.8957669000001	0.4998	sub-15	1	localizer	stimulus	Katze	NaN	180	1.75056240000049	0.5842	True	NaN	NaN	NaN	NaN	NaN	NaN	NaN
286.37971670000024	1.7506	sub-15	1	localizer	blank	interval	NaN	NaN	NaN	NaN	NaN	NaN	NaN	NaN	NaN	NaN	NaN	NaN
288.4311785000009	0.4996	sub-15	1	localizer	stimulus	Katze	NaN	0	2.902106999999887	NaN	True	NaN	NaN	NaN	NaN	NaN	NaN	NaN
288.9143111000003	2.9021	sub-15	1	localizer	blank	interval	NaN	NaN	NaN	NaN	NaN	NaN	NaN	NaN	NaN	NaN	NaN	NaN
292.1175398000005	0.4996	sub-15	1	localizer	stimulus	Gesicht	NaN	180	2.2351576000000932	0.6341	True	NaN	NaN	NaN	NaN	NaN	NaN	NaN
292.60048280000046	2.2352	sub-15	1	localizer	blank	interval	NaN	NaN	NaN	NaN	NaN	NaN	NaN	NaN	NaN	NaN	NaN	NaN
295.1365869000001	0.4996	sub-15	1	localizer	stimulus	Schuh	NaN	0	2.552028199999768	NaN	True	NaN	NaN	NaN	NaN	NaN	NaN	NaN
295.6195937000002	2.552	sub-15	1	localizer	blank	interval	NaN	NaN	NaN	NaN	NaN	NaN	NaN	NaN	NaN	NaN	NaN	NaN
298.472616	0.4996	sub-15	1	localizer	stimulus	Stuhl	NaN	0	1.8513583000003564	NaN	True	NaN	NaN	NaN	NaN	NaN	NaN	NaN
298.9556055000003	1.8514	sub-15	1	localizer	blank	interval	NaN	NaN	NaN	NaN	NaN	NaN	NaN	NaN	NaN	NaN	NaN	NaN
301.1081853000005	0.4994	sub-15	1	localizer	stimulus	Gesicht	NaN	0	1.934738599999946	NaN	True	NaN	NaN	NaN	NaN	NaN	NaN	NaN
301.59122880000086	1.9347	sub-15	1	localizer	blank	interval	NaN	NaN	NaN	NaN	NaN	NaN	NaN	NaN	NaN	NaN	NaN	NaN
303.8270364	0.4997	sub-15	1	localizer	stimulus	Stuhl	NaN	180	2.2517760999999155	0.5675	True	NaN	NaN	NaN	NaN	NaN	NaN	NaN
304.3101757000004	2.2518	sub-15	1	localizer	blank	interval	NaN	NaN	NaN	NaN	NaN	NaN	NaN	NaN	NaN	NaN	NaN	NaN
306.8627406000005	0.4996	sub-15	1	localizer	stimulus	Schuh	NaN	0	2.268218600000182	NaN	True	NaN	NaN	NaN	NaN	NaN	NaN	NaN
307.3459763000001	2.2682	sub-15	1	localizer	blank	interval	NaN	NaN	NaN	NaN	NaN	NaN	NaN	NaN	NaN	NaN	NaN	NaN
313.10070910000013	1.0004	sub-15	1	sequence	cue	Schuh	NaN	NaN	NaN	NaN	NaN	NaN	NaN	NaN	NaN	NaN	NaN	NaN
314.10109640000064	2.0018	sub-15	1	sequence	blank	blank	NaN	NaN	NaN	NaN	NaN	NaN	NaN	NaN	NaN	NaN	NaN	NaN
316.1028787000005	0.3002	sub-15	1	sequence	fixation	dot	NaN	NaN	NaN	NaN	NaN	NaN	NaN	NaN	NaN	NaN	NaN	NaN
316.4204323000004	0.0993	sub-15	1	sequence	stimulus	Katze	NaN	NaN	32.0	NaN	NaN	3.0	1.0	NaN	NaN	NaN	NaN	NaN
316.5197169000003	0.0335	sub-15	1	sequence	interval	dot	NaN	NaN	NaN	NaN	NaN	NaN	NaN	NaN	NaN	NaN	NaN	NaN
316.55325510000057	0.0999	sub-15	1	sequence	stimulus	Gesicht	NaN	NaN	32.0	NaN	NaN	1.0	2.0	NaN	NaN	NaN	NaN	NaN
316.65315720000035	0.0334	sub-15	1	sequence	interval	dot	NaN	NaN	NaN	NaN	NaN	NaN	NaN	NaN	NaN	NaN	NaN	NaN
316.6866037000009	0.1	sub-15	1	sequence	stimulus	Stuhl	NaN	NaN	32.0	NaN	NaN	5.0	3.0	NaN	NaN	NaN	NaN	NaN
316.7865958000002	0.0335	sub-15	1	sequence	interval	dot	NaN	NaN	NaN	NaN	NaN	NaN	NaN	NaN	NaN	NaN	NaN	NaN
316.82013460000053	0.0999	sub-15	1	sequence	stimulus	Schuh	NaN	NaN	32.0	NaN	NaN	4.0	4.0	NaN	NaN	NaN	NaN	NaN
316.92002890000003	0.0335	sub-15	1	sequence	interval	dot	NaN	NaN	NaN	NaN	NaN	NaN	NaN	NaN	NaN	NaN	NaN	NaN
316.9535284000003	0.0999	sub-15	1	sequence	stimulus	Haus	NaN	NaN	32.0	NaN	NaN	2.0	5.0	NaN	NaN	NaN	NaN	NaN
317.05344980000064	0.0334	sub-15	1	sequence	interval	dot	NaN	NaN	NaN	NaN	NaN	NaN	NaN	NaN	NaN	NaN	NaN	NaN
317.0868133000004	8.5388	sub-15	1	sequence	delay	dot	NaN	NaN	NaN	NaN	NaN	NaN	NaN	NaN	NaN	NaN	NaN	NaN
325.60404240000025	0.8244	sub-15	1	sequence	choice	choice	right	NaN	NaN	0.7874	True	NaN	NaN	right	True	2.0	4.0	4.0
326.4288439000002	0.4998	sub-15	1	sequence	feedback	NaN	NaN	NaN	NaN	NaN	NaN	NaN	NaN	NaN	NaN	NaN	NaN	NaN
326.92886910000016	1.0003	sub-15	1	sequence	cue	Haus	NaN	NaN	NaN	NaN	NaN	NaN	NaN	NaN	NaN	NaN	NaN	NaN
327.9292038000003	2.0016	sub-15	1	sequence	blank	blank	NaN	NaN	NaN	NaN	NaN	NaN	NaN	NaN	NaN	NaN	NaN	NaN
329.93079000000034	0.3	sub-15	1	sequence	fixation	dot	NaN	NaN	NaN	NaN	NaN	NaN	NaN	NaN	NaN	NaN	NaN	NaN
330.2484802000008	0.099	sub-15	1	sequence	stimulus	Stuhl	NaN	NaN	128.0	NaN	NaN	5.0	1.0	NaN	NaN	NaN	NaN	NaN
330.3474649000009	0.1336	sub-15	1	sequence	interval	dot	NaN	NaN	NaN	NaN	NaN	NaN	NaN	NaN	NaN	NaN	NaN	NaN
330.4810927000008	0.1	sub-15	1	sequence	stimulus	Gesicht	NaN	NaN	128.0	NaN	NaN	1.0	2.0	NaN	NaN	NaN	NaN	NaN
330.5811244000006	0.1336	sub-15	1	sequence	interval	dot	NaN	NaN	NaN	NaN	NaN	NaN	NaN	NaN	NaN	NaN	NaN	NaN
330.71467630000006	0.1	sub-15	1	sequence	stimulus	Katze	NaN	NaN	128.0	NaN	NaN	3.0	3.0	NaN	NaN	NaN	NaN	NaN
330.8146381000006	0.1335	sub-15	1	sequence	interval	dot	NaN	NaN	NaN	NaN	NaN	NaN	NaN	NaN	NaN	NaN	NaN	NaN
330.9481583000006	0.0999	sub-15	1	sequence	stimulus	Haus	NaN	NaN	128.0	NaN	NaN	2.0	4.0	NaN	NaN	NaN	NaN	NaN
331.04810200000065	0.1335	sub-15	1	sequence	interval	dot	NaN	NaN	NaN	NaN	NaN	NaN	NaN	NaN	NaN	NaN	NaN	NaN
331.1816437000007	0.1	sub-15	1	sequence	stimulus	Schuh	NaN	NaN	128.0	NaN	NaN	4.0	5.0	NaN	NaN	NaN	NaN	NaN
331.28165680000075	0.1334	sub-15	1	sequence	interval	dot	NaN	NaN	NaN	NaN	NaN	NaN	NaN	NaN	NaN	NaN	NaN	NaN
331.4150718000001	8.0716	sub-15	1	sequence	delay	dot	NaN	NaN	NaN	NaN	NaN	NaN	NaN	NaN	NaN	NaN	NaN	NaN
339.4617723000001	1.1114	sub-15	1	sequence	choice	choice	right	NaN	NaN	1.0712	True	NaN	NaN	right	True	5.0	4.0	4.0
340.57345200000054	0.4999	sub-15	1	sequence	feedback	NaN	NaN	NaN	NaN	NaN	NaN	NaN	NaN	NaN	NaN	NaN	NaN	NaN
341.07358790000035	1.0002	sub-15	1	sequence	cue	Schuh	NaN	NaN	NaN	NaN	NaN	NaN	NaN	NaN	NaN	NaN	NaN	NaN
342.0737712	2.0016	sub-15	1	sequence	blank	blank	NaN	NaN	NaN	NaN	NaN	NaN	NaN	NaN	NaN	NaN	NaN	NaN
344.0753986000009	0.3003	sub-15	1	sequence	fixation	dot	NaN	NaN	NaN	NaN	NaN	NaN	NaN	NaN	NaN	NaN	NaN	NaN
344.3940338000002	0.1152	sub-15	1	sequence	stimulus	Haus	NaN	NaN	32.0	NaN	NaN	2.0	1.0	NaN	NaN	NaN	NaN	NaN
344.5092170000007	0.0333	sub-15	1	sequence	interval	dot	NaN	NaN	NaN	NaN	NaN	NaN	NaN	NaN	NaN	NaN	NaN	NaN
344.54250760000014	0.1	sub-15	1	sequence	stimulus	Katze	NaN	NaN	32.0	NaN	NaN	3.0	2.0	NaN	NaN	NaN	NaN	NaN
344.6425128000001	0.0335	sub-15	1	sequence	interval	dot	NaN	NaN	NaN	NaN	NaN	NaN	NaN	NaN	NaN	NaN	NaN	NaN
344.67599540000083	0.1001	sub-15	1	sequence	stimulus	Gesicht	NaN	NaN	32.0	NaN	NaN	1.0	3.0	NaN	NaN	NaN	NaN	NaN
344.77610130000085	0.0334	sub-15	1	sequence	interval	dot	NaN	NaN	NaN	NaN	NaN	NaN	NaN	NaN	NaN	NaN	NaN	NaN
344.80946890000087	0.1	sub-15	1	sequence	stimulus	Stuhl	NaN	NaN	32.0	NaN	NaN	5.0	4.0	NaN	NaN	NaN	NaN	NaN
344.909447	0.0335	sub-15	1	sequence	interval	dot	NaN	NaN	NaN	NaN	NaN	NaN	NaN	NaN	NaN	NaN	NaN	NaN
344.94289990000016	0.1001	sub-15	1	sequence	stimulus	Schuh	NaN	NaN	32.0	NaN	NaN	4.0	5.0	NaN	NaN	NaN	NaN	NaN
345.04303020000043	0.0332	sub-15	1	sequence	interval	dot	NaN	NaN	NaN	NaN	NaN	NaN	NaN	NaN	NaN	NaN	NaN	NaN
345.07627030000003	8.5218	sub-15	1	sequence	delay	dot	NaN	NaN	NaN	NaN	NaN	NaN	NaN	NaN	NaN	NaN	NaN	NaN
353.5794001000004	0.8048	sub-15	1	sequence	choice	choice	right	NaN	NaN	0.7873	True	NaN	NaN	right	True	2.0	5.0	5.0
354.38444830000026	0.4998	sub-15	1	sequence	feedback	NaN	NaN	NaN	NaN	NaN	NaN	NaN	NaN	NaN	NaN	NaN	NaN	NaN
354.8844900000004	1.0006	sub-15	1	sequence	cue	Stuhl	NaN	NaN	NaN	NaN	NaN	NaN	NaN	NaN	NaN	NaN	NaN	NaN
355.88510850000057	2.0014	sub-15	1	sequence	blank	blank	NaN	NaN	NaN	NaN	NaN	NaN	NaN	NaN	NaN	NaN	NaN	NaN
357.8865201000008	0.3002	sub-15	1	sequence	fixation	dot	NaN	NaN	NaN	NaN	NaN	NaN	NaN	NaN	NaN	NaN	NaN	NaN
358.2041313000009	0.0993	sub-15	1	sequence	stimulus	Schuh	NaN	NaN	64.0	NaN	NaN	4.0	1.0	NaN	NaN	NaN	NaN	NaN
358.3034219000001	0.0668	sub-15	1	sequence	interval	dot	NaN	NaN	NaN	NaN	NaN	NaN	NaN	NaN	NaN	NaN	NaN	NaN
358.3702570000005	0.1001	sub-15	1	sequence	stimulus	Haus	NaN	NaN	64.0	NaN	NaN	2.0	2.0	NaN	NaN	NaN	NaN	NaN
358.4703830000008	0.0667	sub-15	1	sequence	interval	dot	NaN	NaN	NaN	NaN	NaN	NaN	NaN	NaN	NaN	NaN	NaN	NaN
358.5370627000002	0.1001	sub-15	1	sequence	stimulus	Gesicht	NaN	NaN	64.0	NaN	NaN	1.0	3.0	NaN	NaN	NaN	NaN	NaN
358.63717050000014	0.0667	sub-15	1	sequence	interval	dot	NaN	NaN	NaN	NaN	NaN	NaN	NaN	NaN	NaN	NaN	NaN	NaN
358.7038664000001	0.1	sub-15	1	sequence	stimulus	Stuhl	NaN	NaN	64.0	NaN	NaN	5.0	4.0	NaN	NaN	NaN	NaN	NaN
358.80385340000066	0.0669	sub-15	1	sequence	interval	dot	NaN	NaN	NaN	NaN	NaN	NaN	NaN	NaN	NaN	NaN	NaN	NaN
358.87078250000013	0.0999	sub-15	1	sequence	stimulus	Katze	NaN	NaN	64.0	NaN	NaN	3.0	5.0	NaN	NaN	NaN	NaN	NaN
358.97063380000054	0.0667	sub-15	1	sequence	interval	dot	NaN	NaN	NaN	NaN	NaN	NaN	NaN	NaN	NaN	NaN	NaN	NaN
359.0373431000007	8.3719	sub-15	1	sequence	delay	dot	NaN	NaN	NaN	NaN	NaN	NaN	NaN	NaN	NaN	NaN	NaN	NaN
367.3850622	0.7937	sub-15	1	sequence	choice	choice	left	NaN	NaN	0.7711	True	NaN	NaN	left	True	4.0	3.0	4.0
368.1790355000003	0.4998	sub-15	1	sequence	feedback	NaN	NaN	NaN	NaN	NaN	NaN	NaN	NaN	NaN	NaN	NaN	NaN	NaN
368.6790658	1.0004	sub-15	1	sequence	cue	Schuh	NaN	NaN	NaN	NaN	NaN	NaN	NaN	NaN	NaN	NaN	NaN	NaN
369.6794638000001	2.0016	sub-15	1	sequence	blank	blank	NaN	NaN	NaN	NaN	NaN	NaN	NaN	NaN	NaN	NaN	NaN	NaN
371.6810836000004	0.3002	sub-15	1	sequence	fixation	dot	NaN	NaN	NaN	NaN	NaN	NaN	NaN	NaN	NaN	NaN	NaN	NaN
371.9996275000003	0.115	sub-15	1	sequence	stimulus	Stuhl	NaN	NaN	512.0	NaN	NaN	5.0	1.0	NaN	NaN	NaN	NaN	NaN
372.1145879000005	0.5172	sub-15	1	sequence	interval	dot	NaN	NaN	NaN	NaN	NaN	NaN	NaN	NaN	NaN	NaN	NaN	NaN
372.6317778000002	0.1	sub-15	1	sequence	stimulus	Katze	NaN	NaN	512.0	NaN	NaN	3.0	2.0	NaN	NaN	NaN	NaN	NaN
372.7317759000007	0.5172	sub-15	1	sequence	interval	dot	NaN	NaN	NaN	NaN	NaN	NaN	NaN	NaN	NaN	NaN	NaN	NaN
373.2489860000005	0.0999	sub-15	1	sequence	stimulus	Gesicht	NaN	NaN	512.0	NaN	NaN	1.0	3.0	NaN	NaN	NaN	NaN	NaN
373.3489131000006	0.5173	sub-15	1	sequence	interval	dot	NaN	NaN	NaN	NaN	NaN	NaN	NaN	NaN	NaN	NaN	NaN	NaN
373.86619710000014	0.0999	sub-15	1	sequence	stimulus	Haus	NaN	NaN	512.0	NaN	NaN	2.0	4.0	NaN	NaN	NaN	NaN	NaN
373.9660788000001	0.5172	sub-15	1	sequence	interval	dot	NaN	NaN	NaN	NaN	NaN	NaN	NaN	NaN	NaN	NaN	NaN	NaN
374.4833135000008	0.1	sub-15	1	sequence	stimulus	Schuh	NaN	NaN	512.0	NaN	NaN	4.0	5.0	NaN	NaN	NaN	NaN	NaN
374.5832689000008	0.5171	sub-15	1	sequence	interval	dot	NaN	NaN	NaN	NaN	NaN	NaN	NaN	NaN	NaN	NaN	NaN	NaN
375.1003786000001	6.1367	sub-15	1	sequence	delay	dot	NaN	NaN	NaN	NaN	NaN	NaN	NaN	NaN	NaN	NaN	NaN	NaN
381.2167783000005	0.94	sub-15	1	sequence	choice	choice	left	NaN	NaN	0.9214	True	NaN	NaN	left	True	5.0	4.0	5.0
382.1570078000004	0.4997	sub-15	1	sequence	feedback	NaN	NaN	NaN	NaN	NaN	NaN	NaN	NaN	NaN	NaN	NaN	NaN	NaN
382.6568198000005	1.0006	sub-15	1	sequence	cue	Stuhl	NaN	NaN	NaN	NaN	NaN	NaN	NaN	NaN	NaN	NaN	NaN	NaN
383.6574662000003	2.0016	sub-15	1	sequence	blank	blank	NaN	NaN	NaN	NaN	NaN	NaN	NaN	NaN	NaN	NaN	NaN	NaN
385.6590943000001	0.3002	sub-15	1	sequence	fixation	dot	NaN	NaN	NaN	NaN	NaN	NaN	NaN	NaN	NaN	NaN	NaN	NaN
385.9775731000009	0.1151	sub-15	1	sequence	stimulus	Gesicht	NaN	NaN	64.0	NaN	NaN	1.0	1.0	NaN	NaN	NaN	NaN	NaN
386.0926692000003	0.0669	sub-15	1	sequence	interval	dot	NaN	NaN	NaN	NaN	NaN	NaN	NaN	NaN	NaN	NaN	NaN	NaN
386.1595590000006	0.0999	sub-15	1	sequence	stimulus	Schuh	NaN	NaN	64.0	NaN	NaN	4.0	2.0	NaN	NaN	NaN	NaN	NaN
386.25941410000087	0.0668	sub-15	1	sequence	interval	dot	NaN	NaN	NaN	NaN	NaN	NaN	NaN	NaN	NaN	NaN	NaN	NaN
386.32620700000007	0.1	sub-15	1	sequence	stimulus	Haus	NaN	NaN	64.0	NaN	NaN	2.0	3.0	NaN	NaN	NaN	NaN	NaN
386.4262559000008	0.0669	sub-15	1	sequence	interval	dot	NaN	NaN	NaN	NaN	NaN	NaN	NaN	NaN	NaN	NaN	NaN	NaN
386.49312370000007	0.0999	sub-15	1	sequence	stimulus	Katze	NaN	NaN	64.0	NaN	NaN	3.0	4.0	NaN	NaN	NaN	NaN	NaN
386.5930688000008	0.0667	sub-15	1	sequence	interval	dot	NaN	NaN	NaN	NaN	NaN	NaN	NaN	NaN	NaN	NaN	NaN	NaN
386.6598127000007	0.1	sub-15	1	sequence	stimulus	Stuhl	NaN	NaN	64.0	NaN	NaN	5.0	5.0	NaN	NaN	NaN	NaN	NaN
386.75985350000064	0.0666	sub-15	1	sequence	interval	dot	NaN	NaN	NaN	NaN	NaN	NaN	NaN	NaN	NaN	NaN	NaN	NaN
386.82645240000056	8.3719	sub-15	1	sequence	delay	dot	NaN	NaN	NaN	NaN	NaN	NaN	NaN	NaN	NaN	NaN	NaN	NaN
395.1784590000007	0.9895	sub-15	1	sequence	choice	choice	left	NaN	NaN	0.9713	True	NaN	NaN	left	True	5.0	4.0	5.0
396.1682261000005	0.4998	sub-15	1	sequence	feedback	NaN	NaN	NaN	NaN	NaN	NaN	NaN	NaN	NaN	NaN	NaN	NaN	NaN
396.6681419000006	1.0006	sub-15	1	sequence	cue	Stuhl	NaN	NaN	NaN	NaN	NaN	NaN	NaN	NaN	NaN	NaN	NaN	NaN
397.6687303000008	2.0016	sub-15	1	sequence	blank	blank	NaN	NaN	NaN	NaN	NaN	NaN	NaN	NaN	NaN	NaN	NaN	NaN
399.6703122000008	0.3003	sub-15	1	sequence	fixation	dot	NaN	NaN	NaN	NaN	NaN	NaN	NaN	NaN	NaN	NaN	NaN	NaN
399.9881077	0.0992	sub-15	1	sequence	stimulus	Stuhl	NaN	NaN	512.0	NaN	NaN	5.0	1.0	NaN	NaN	NaN	NaN	NaN
400.0872683000007	0.5172	sub-15	1	sequence	interval	dot	NaN	NaN	NaN	NaN	NaN	NaN	NaN	NaN	NaN	NaN	NaN	NaN
400.6044542000009	0.1001	sub-15	1	sequence	stimulus	Gesicht	NaN	NaN	512.0	NaN	NaN	1.0	2.0	NaN	NaN	NaN	NaN	NaN
400.70453590000034	0.517	sub-15	1	sequence	interval	dot	NaN	NaN	NaN	NaN	NaN	NaN	NaN	NaN	NaN	NaN	NaN	NaN
401.22155530000055	0.1	sub-15	1	sequence	stimulus	Haus	NaN	NaN	512.0	NaN	NaN	2.0	3.0	NaN	NaN	NaN	NaN	NaN
401.32150900000033	0.5172	sub-15	1	sequence	interval	dot	NaN	NaN	NaN	NaN	NaN	NaN	NaN	NaN	NaN	NaN	NaN	NaN
401.8387513000007	0.1	sub-15	1	sequence	stimulus	Katze	NaN	NaN	512.0	NaN	NaN	3.0	4.0	NaN	NaN	NaN	NaN	NaN
401.9387789000002	0.5171	sub-15	1	sequence	interval	dot	NaN	NaN	NaN	NaN	NaN	NaN	NaN	NaN	NaN	NaN	NaN	NaN
402.45588790000056	0.1	sub-15	1	sequence	stimulus	Schuh	NaN	NaN	512.0	NaN	NaN	4.0	5.0	NaN	NaN	NaN	NaN	NaN
402.5558587000005	0.5172	sub-15	1	sequence	interval	dot	NaN	NaN	NaN	NaN	NaN	NaN	NaN	NaN	NaN	NaN	NaN	NaN
403.07305910000014	6.1699	sub-15	1	sequence	delay	dot	NaN	NaN	NaN	NaN	NaN	NaN	NaN	NaN	NaN	NaN	NaN	NaN
409.2181813000007	0.7779	sub-15	1	sequence	choice	choice	right	NaN	NaN	0.755	True	NaN	NaN	right	True	4.0	1.0	1.0
409.9963202000008	0.4997	sub-15	1	sequence	feedback	NaN	NaN	NaN	NaN	NaN	NaN	NaN	NaN	NaN	NaN	NaN	NaN	NaN
410.4961121000006	1.0005	sub-15	1	sequence	cue	Stuhl	NaN	NaN	NaN	NaN	NaN	NaN	NaN	NaN	NaN	NaN	NaN	NaN
411.4966016000008	2.0017	sub-15	1	sequence	blank	blank	NaN	NaN	NaN	NaN	NaN	NaN	NaN	NaN	NaN	NaN	NaN	NaN
413.4982942000006	0.3001	sub-15	1	sequence	fixation	dot	NaN	NaN	NaN	NaN	NaN	NaN	NaN	NaN	NaN	NaN	NaN	NaN
413.81597020000027	0.0992	sub-15	1	sequence	stimulus	Katze	NaN	NaN	128.0	NaN	NaN	3.0	1.0	NaN	NaN	NaN	NaN	NaN
413.9151350000002	0.1336	sub-15	1	sequence	interval	dot	NaN	NaN	NaN	NaN	NaN	NaN	NaN	NaN	NaN	NaN	NaN	NaN
414.0487516000003	0.0998	sub-15	1	sequence	stimulus	Haus	NaN	NaN	128.0	NaN	NaN	2.0	2.0	NaN	NaN	NaN	NaN	NaN
414.1485421000007	0.1336	sub-15	1	sequence	interval	dot	NaN	NaN	NaN	NaN	NaN	NaN	NaN	NaN	NaN	NaN	NaN	NaN
414.2821743000004	0.0999	sub-15	1	sequence	stimulus	Gesicht	NaN	NaN	128.0	NaN	NaN	1.0	3.0	NaN	NaN	NaN	NaN	NaN
414.38207950000015	0.1335	sub-15	1	sequence	interval	dot	NaN	NaN	NaN	NaN	NaN	NaN	NaN	NaN	NaN	NaN	NaN	NaN
414.5156130000005	0.1	sub-15	1	sequence	stimulus	Schuh	NaN	NaN	128.0	NaN	NaN	4.0	4.0	NaN	NaN	NaN	NaN	NaN
414.61565430000064	0.1336	sub-15	1	sequence	interval	dot	NaN	NaN	NaN	NaN	NaN	NaN	NaN	NaN	NaN	NaN	NaN	NaN
414.7492535000001	0.0999	sub-15	1	sequence	stimulus	Stuhl	NaN	NaN	128.0	NaN	NaN	5.0	5.0	NaN	NaN	NaN	NaN	NaN
414.8491154000003	0.1334	sub-15	1	sequence	interval	dot	NaN	NaN	NaN	NaN	NaN	NaN	NaN	NaN	NaN	NaN	NaN	NaN
414.98254520000046	8.0549	sub-15	1	sequence	delay	dot	NaN	NaN	NaN	NaN	NaN	NaN	NaN	NaN	NaN	NaN	NaN	NaN
423.0237611000002	0.8835	sub-15	1	sequence	choice	choice	left	NaN	NaN	0.8714	True	NaN	NaN	left	True	5.0	3.0	5.0
423.9074877000003	0.4999	sub-15	1	sequence	feedback	NaN	NaN	NaN	NaN	NaN	NaN	NaN	NaN	NaN	NaN	NaN	NaN	NaN
424.4079103000004	9.4072	sub-15	1	other	break	break	NaN	NaN	NaN	NaN	NaN	NaN	NaN	NaN	NaN	NaN	NaN	NaN
437.63505350000014	0.4996	sub-15	1	localizer	stimulus	Katze	NaN	0	2.2350390000001426	NaN	True	NaN	NaN	NaN	NaN	NaN	NaN	NaN
438.1346555	2.235	sub-15	1	localizer	blank	interval	NaN	NaN	NaN	NaN	NaN	NaN	NaN	NaN	NaN	NaN	NaN	NaN
440.6708171	0.4996	sub-15	1	localizer	stimulus	Katze	NaN	0	2.4686719999999696	NaN	True	NaN	NaN	NaN	NaN	NaN	NaN	NaN
441.1538100000007	2.4687	sub-15	1	localizer	blank	interval	NaN	NaN	NaN	NaN	NaN	NaN	NaN	NaN	NaN	NaN	NaN	NaN
443.9235393000008	0.4997	sub-15	1	localizer	stimulus	Stuhl	NaN	0	3.052209400000663	NaN	True	NaN	NaN	NaN	NaN	NaN	NaN	NaN
444.4066345000001	3.0522	sub-15	1	localizer	blank	interval	NaN	NaN	NaN	NaN	NaN	NaN	NaN	NaN	NaN	NaN	NaN	NaN
447.7599207000003	0.4995	sub-15	1	localizer	stimulus	Schuh	NaN	180	3.01900040000055	0.7344	True	NaN	NaN	NaN	NaN	NaN	NaN	NaN
448.2429940000002	3.019	sub-15	1	localizer	blank	interval	NaN	NaN	NaN	NaN	NaN	NaN	NaN	NaN	NaN	NaN	NaN	NaN
451.56312530000014	0.4995	sub-15	1	localizer	stimulus	Gesicht	NaN	0	1.6346152000005532	NaN	True	NaN	NaN	NaN	NaN	NaN	NaN	NaN
452.04597550000017	1.6346	sub-15	1	localizer	blank	interval	NaN	NaN	NaN	NaN	NaN	NaN	NaN	NaN	NaN	NaN	NaN	NaN
453.9816088000007	0.4997	sub-15	1	localizer	stimulus	Gesicht	NaN	180	3.0189464999994016	0.6678	True	NaN	NaN	NaN	NaN	NaN	NaN	NaN
454.4646857000007	3.0189	sub-15	1	localizer	blank	interval	NaN	NaN	NaN	NaN	NaN	NaN	NaN	NaN	NaN	NaN	NaN	NaN
457.7846672000005	0.4996	sub-15	1	localizer	stimulus	Haus	NaN	0	2.551897000000281	NaN	True	NaN	NaN	NaN	NaN	NaN	NaN	NaN
458.2676642000006	2.5519	sub-15	1	localizer	blank	interval	NaN	NaN	NaN	NaN	NaN	NaN	NaN	NaN	NaN	NaN	NaN	NaN
461.1206875000007	0.4996	sub-15	1	localizer	stimulus	Gesicht	NaN	0	2.16832549999981	NaN	True	NaN	NaN	NaN	NaN	NaN	NaN	NaN
461.6037795000002	2.1683	sub-15	1	localizer	blank	interval	NaN	NaN	NaN	NaN	NaN	NaN	NaN	NaN	NaN	NaN	NaN	NaN
464.0731300000007	0.4997	sub-15	1	localizer	stimulus	Stuhl	NaN	0	1.834623900000281	NaN	True	NaN	NaN	NaN	NaN	NaN	NaN	NaN
464.5562623000005	1.8346	sub-15	1	localizer	blank	interval	NaN	NaN	NaN	NaN	NaN	NaN	NaN	NaN	NaN	NaN	NaN	NaN
466.6920041000003	0.4995	sub-15	1	localizer	stimulus	Haus	NaN	180	2.1180516999992847	0.6007	True	NaN	NaN	NaN	NaN	NaN	NaN	NaN
467.1749837000007	2.1181	sub-15	1	localizer	blank	interval	NaN	NaN	NaN	NaN	NaN	NaN	NaN	NaN	NaN	NaN	NaN	NaN
469.5942395000002	0.4996	sub-15	1	localizer	stimulus	Stuhl	NaN	0	3.4861894000005123	NaN	True	NaN	NaN	NaN	NaN	NaN	NaN	NaN
470.0771531	3.4862	sub-15	1	localizer	blank	interval	NaN	NaN	NaN	NaN	NaN	NaN	NaN	NaN	NaN	NaN	NaN	NaN
473.8643727000008	0.4997	sub-15	1	localizer	stimulus	Stuhl	NaN	180	1.667830000000265	0.5674	True	NaN	NaN	NaN	NaN	NaN	NaN	NaN
474.3475340000005	1.6678	sub-15	1	localizer	blank	interval	NaN	NaN	NaN	NaN	NaN	NaN	NaN	NaN	NaN	NaN	NaN	NaN
476.3164581000001	0.4993	sub-15	1	localizer	stimulus	Gesicht	NaN	0	2.0681081999991875	NaN	True	NaN	NaN	NaN	NaN	NaN	NaN	NaN
476.7993576000008	2.0681	sub-15	1	localizer	blank	interval	NaN	NaN	NaN	NaN	NaN	NaN	NaN	NaN	NaN	NaN	NaN	NaN
479.16860670000005	0.4995	sub-15	1	localizer	stimulus	Schuh	NaN	0	2.568627700000434	NaN	True	NaN	NaN	NaN	NaN	NaN	NaN	NaN
479.6515722000004	2.5686	sub-15	1	localizer	blank	interval	NaN	NaN	NaN	NaN	NaN	NaN	NaN	NaN	NaN	NaN	NaN	NaN
482.5213790000007	0.4994	sub-15	1	localizer	stimulus	Haus	NaN	0	3.102406300000382	NaN	True	NaN	NaN	NaN	NaN	NaN	NaN	NaN
483.0043898000004	3.1024	sub-15	1	localizer	blank	interval	NaN	NaN	NaN	NaN	NaN	NaN	NaN	NaN	NaN	NaN	NaN	NaN
486.4080052000008	0.4994	sub-15	1	localizer	stimulus	Haus	NaN	0	2.885374600000489	NaN	True	NaN	NaN	NaN	NaN	NaN	NaN	NaN
486.8909239000004	2.8854	sub-15	1	localizer	blank	interval	NaN	NaN	NaN	NaN	NaN	NaN	NaN	NaN	NaN	NaN	NaN	NaN
490.07738000000063	0.4995	sub-15	1	localizer	stimulus	Schuh	NaN	0	2.6687080000001515	NaN	True	NaN	NaN	NaN	NaN	NaN	NaN	NaN
490.56038570000055	2.6687	sub-15	1	localizer	blank	interval	NaN	NaN	NaN	NaN	NaN	NaN	NaN	NaN	NaN	NaN	NaN	NaN
493.53030130000025	0.4996	sub-15	1	localizer	stimulus	Stuhl	NaN	0	2.435153299999911	NaN	True	NaN	NaN	NaN	NaN	NaN	NaN	NaN
494.0133003000001	2.4352	sub-15	1	localizer	blank	interval	NaN	NaN	NaN	NaN	NaN	NaN	NaN	NaN	NaN	NaN	NaN	NaN
496.7496081000008	0.4996	sub-15	1	localizer	stimulus	Katze	NaN	0	2.7686617999997907	NaN	True	NaN	NaN	NaN	NaN	NaN	NaN	NaN
497.2326258000003	2.7687	sub-15	1	localizer	blank	interval	NaN	NaN	NaN	NaN	NaN	NaN	NaN	NaN	NaN	NaN	NaN	NaN
500.30237210000087	0.4996	sub-15	1	localizer	stimulus	Gesicht	NaN	0	2.534799199999725	NaN	True	NaN	NaN	NaN	NaN	NaN	NaN	NaN
500.7857479000004	2.5348	sub-15	1	localizer	blank	interval	NaN	NaN	NaN	NaN	NaN	NaN	NaN	NaN	NaN	NaN	NaN	NaN
503.6219702000008	0.4996	sub-15	1	localizer	stimulus	Katze	NaN	180	2.2851133000003756	0.6171	True	NaN	NaN	NaN	NaN	NaN	NaN	NaN
504.1047739000005	2.2851	sub-15	1	localizer	blank	interval	NaN	NaN	NaN	NaN	NaN	NaN	NaN	NaN	NaN	NaN	NaN	NaN
506.6910301000007	0.4994	sub-15	1	localizer	stimulus	Schuh	NaN	0	2.2514916000000085	NaN	True	NaN	NaN	NaN	NaN	NaN	NaN	NaN
507.1740023000002	2.2515	sub-15	1	localizer	blank	interval	NaN	NaN	NaN	NaN	NaN	NaN	NaN	NaN	NaN	NaN	NaN	NaN
509.7265846	0.4996	sub-15	1	localizer	stimulus	Schuh	NaN	0	2.902238700000453	NaN	True	NaN	NaN	NaN	NaN	NaN	NaN	NaN
510.2096177000003	2.9022	sub-15	1	localizer	blank	interval	NaN	NaN	NaN	NaN	NaN	NaN	NaN	NaN	NaN	NaN	NaN	NaN
513.4129995000003	0.4996	sub-15	1	localizer	stimulus	Katze	NaN	0	1.7513934999997218	NaN	True	NaN	NaN	NaN	NaN	NaN	NaN	NaN
513.8959286000008	1.7514	sub-15	1	localizer	blank	interval	NaN	NaN	NaN	NaN	NaN	NaN	NaN	NaN	NaN	NaN	NaN	NaN
515.9482853000009	0.4997	sub-15	1	localizer	stimulus	Haus	NaN	0	2.0848563999998078	NaN	True	NaN	NaN	NaN	NaN	NaN	NaN	NaN
516.4313850000008	2.0849	sub-15	1	localizer	blank	interval	NaN	NaN	NaN	NaN	NaN	NaN	NaN	NaN	NaN	NaN	NaN	NaN
522.0026378000002	1.0005	sub-15	1	sequence	cue	Stuhl	NaN	NaN	NaN	NaN	NaN	NaN	NaN	NaN	NaN	NaN	NaN	NaN
523.0031120000003	2.0018	sub-15	1	sequence	blank	blank	NaN	NaN	NaN	NaN	NaN	NaN	NaN	NaN	NaN	NaN	NaN	NaN
525.0048758000003	0.2984	sub-15	1	sequence	fixation	dot	NaN	NaN	NaN	NaN	NaN	NaN	NaN	NaN	NaN	NaN	NaN	NaN
525.3226139000008	0.0993	sub-15	1	sequence	stimulus	Haus	NaN	NaN	32.0	NaN	NaN	2.0	1.0	NaN	NaN	NaN	NaN	NaN
525.4218839000005	0.0335	sub-15	1	sequence	interval	dot	NaN	NaN	NaN	NaN	NaN	NaN	NaN	NaN	NaN	NaN	NaN	NaN
525.4553499000003	0.0999	sub-15	1	sequence	stimulus	Katze	NaN	NaN	32.0	NaN	NaN	3.0	2.0	NaN	NaN	NaN	NaN	NaN
525.5552878000008	0.0335	sub-15	1	sequence	interval	dot	NaN	NaN	NaN	NaN	NaN	NaN	NaN	NaN	NaN	NaN	NaN	NaN
525.5887616	0.1	sub-15	1	sequence	stimulus	Gesicht	NaN	NaN	32.0	NaN	NaN	1.0	3.0	NaN	NaN	NaN	NaN	NaN
525.6887132000002	0.0335	sub-15	1	sequence	interval	dot	NaN	NaN	NaN	NaN	NaN	NaN	NaN	NaN	NaN	NaN	NaN	NaN
525.7221888000004	0.1	sub-15	1	sequence	stimulus	Stuhl	NaN	NaN	32.0	NaN	NaN	5.0	4.0	NaN	NaN	NaN	NaN	NaN
525.8221455000003	0.0335	sub-15	1	sequence	interval	dot	NaN	NaN	NaN	NaN	NaN	NaN	NaN	NaN	NaN	NaN	NaN	NaN
525.8556014000005	0.1	sub-15	1	sequence	stimulus	Schuh	NaN	NaN	32.0	NaN	NaN	4.0	5.0	NaN	NaN	NaN	NaN	NaN
525.9556014000009	0.0334	sub-15	1	sequence	interval	dot	NaN	NaN	NaN	NaN	NaN	NaN	NaN	NaN	NaN	NaN	NaN	NaN
525.9889623000008	8.5386	sub-15	1	sequence	delay	dot	NaN	NaN	NaN	NaN	NaN	NaN	NaN	NaN	NaN	NaN	NaN	NaN
534.5092011000006	0.7545	sub-15	1	sequence	choice	choice	right	NaN	NaN	0.7377	True	NaN	NaN	right	True	5.0	4.0	4.0
535.2640317000005	0.4998	sub-15	1	sequence	feedback	NaN	NaN	NaN	NaN	NaN	NaN	NaN	NaN	NaN	NaN	NaN	NaN	NaN
535.7640204000008	1.0004	sub-15	1	sequence	cue	Haus	NaN	NaN	NaN	NaN	NaN	NaN	NaN	NaN	NaN	NaN	NaN	NaN
536.7644190000001	2.0016	sub-15	1	sequence	blank	blank	NaN	NaN	NaN	NaN	NaN	NaN	NaN	NaN	NaN	NaN	NaN	NaN
538.7660339000004	0.3003	sub-15	1	sequence	fixation	dot	NaN	NaN	NaN	NaN	NaN	NaN	NaN	NaN	NaN	NaN	NaN	NaN
539.0845814000004	0.1151	sub-15	1	sequence	stimulus	Stuhl	NaN	NaN	512.0	NaN	NaN	5.0	1.0	NaN	NaN	NaN	NaN	NaN
539.1996939	0.5171	sub-15	1	sequence	interval	dot	NaN	NaN	NaN	NaN	NaN	NaN	NaN	NaN	NaN	NaN	NaN	NaN
539.7167514000002	0.1	sub-15	1	sequence	stimulus	Katze	NaN	NaN	512.0	NaN	NaN	3.0	2.0	NaN	NaN	NaN	NaN	NaN
539.8167292000007	0.5172	sub-15	1	sequence	interval	dot	NaN	NaN	NaN	NaN	NaN	NaN	NaN	NaN	NaN	NaN	NaN	NaN
540.3339335000001	0.1	sub-15	1	sequence	stimulus	Gesicht	NaN	NaN	512.0	NaN	NaN	1.0	3.0	NaN	NaN	NaN	NaN	NaN
540.4338942000004	0.5173	sub-15	1	sequence	interval	dot	NaN	NaN	NaN	NaN	NaN	NaN	NaN	NaN	NaN	NaN	NaN	NaN
540.9511540000003	0.0999	sub-15	1	sequence	stimulus	Haus	NaN	NaN	512.0	NaN	NaN	2.0	4.0	NaN	NaN	NaN	NaN	NaN
541.0510646000002	0.5172	sub-15	1	sequence	interval	dot	NaN	NaN	NaN	NaN	NaN	NaN	NaN	NaN	NaN	NaN	NaN	NaN
541.5682534000007	0.1	sub-15	1	sequence	stimulus	Schuh	NaN	NaN	512.0	NaN	NaN	4.0	5.0	NaN	NaN	NaN	NaN	NaN
541.6682771000005	0.517	sub-15	1	sequence	interval	dot	NaN	NaN	NaN	NaN	NaN	NaN	NaN	NaN	NaN	NaN	NaN	NaN
542.1853252000001	6.1534	sub-15	1	sequence	delay	dot	NaN	NaN	NaN	NaN	NaN	NaN	NaN	NaN	NaN	NaN	NaN	NaN
548.3148510000001	0.8268	sub-15	1	sequence	choice	choice	left	NaN	NaN	0.8051	True	NaN	NaN	left	True	4.0	5.0	4.0
549.1418709000009	0.4998	sub-15	1	sequence	feedback	NaN	NaN	NaN	NaN	NaN	NaN	NaN	NaN	NaN	NaN	NaN	NaN	NaN
549.6418995000004	1.0003	sub-15	1	sequence	cue	Katze	NaN	NaN	NaN	NaN	NaN	NaN	NaN	NaN	NaN	NaN	NaN	NaN
550.6422173000001	2.0017	sub-15	1	sequence	blank	blank	NaN	NaN	NaN	NaN	NaN	NaN	NaN	NaN	NaN	NaN	NaN	NaN
552.6439010000004	0.3001	sub-15	1	sequence	fixation	dot	NaN	NaN	NaN	NaN	NaN	NaN	NaN	NaN	NaN	NaN	NaN	NaN
552.9615763000002	0.0992	sub-15	1	sequence	stimulus	Stuhl	NaN	NaN	512.0	NaN	NaN	5.0	1.0	NaN	NaN	NaN	NaN	NaN
553.0607971000009	0.5172	sub-15	1	sequence	interval	dot	NaN	NaN	NaN	NaN	NaN	NaN	NaN	NaN	NaN	NaN	NaN	NaN
553.5779813000008	0.0999	sub-15	1	sequence	stimulus	Gesicht	NaN	NaN	512.0	NaN	NaN	1.0	2.0	NaN	NaN	NaN	NaN	NaN
553.6779273000002	0.5172	sub-15	1	sequence	interval	dot	NaN	NaN	NaN	NaN	NaN	NaN	NaN	NaN	NaN	NaN	NaN	NaN
554.1951464000003	0.0999	sub-15	1	sequence	stimulus	Haus	NaN	NaN	512.0	NaN	NaN	2.0	3.0	NaN	NaN	NaN	NaN	NaN
554.2950746000006	0.5172	sub-15	1	sequence	interval	dot	NaN	NaN	NaN	NaN	NaN	NaN	NaN	NaN	NaN	NaN	NaN	NaN
554.8122922000002	0.1	sub-15	1	sequence	stimulus	Katze	NaN	NaN	512.0	NaN	NaN	3.0	4.0	NaN	NaN	NaN	NaN	NaN
554.9122656000009	0.5173	sub-15	1	sequence	interval	dot	NaN	NaN	NaN	NaN	NaN	NaN	NaN	NaN	NaN	NaN	NaN	NaN
555.4295917000009	0.0999	sub-15	1	sequence	stimulus	Schuh	NaN	NaN	512.0	NaN	NaN	4.0	5.0	NaN	NaN	NaN	NaN	NaN
555.5295225000009	0.5171	sub-15	1	sequence	interval	dot	NaN	NaN	NaN	NaN	NaN	NaN	NaN	NaN	NaN	NaN	NaN	NaN
556.0465758	6.1367	sub-15	1	sequence	delay	dot	NaN	NaN	NaN	NaN	NaN	NaN	NaN	NaN	NaN	NaN	NaN	NaN
562.1725000000006	0.8635	sub-15	1	sequence	choice	choice	right	NaN	NaN	0.837	True	NaN	NaN	right	True	5.0	4.0	4.0
563.0362081000003	0.5	sub-15	1	sequence	feedback	NaN	NaN	NaN	NaN	NaN	NaN	NaN	NaN	NaN	NaN	NaN	NaN	NaN
563.5364020000006	1.0004	sub-15	1	sequence	cue	Gesicht	NaN	NaN	NaN	NaN	NaN	NaN	NaN	NaN	NaN	NaN	NaN	NaN
564.5367853000007	2.0016	sub-15	1	sequence	blank	blank	NaN	NaN	NaN	NaN	NaN	NaN	NaN	NaN	NaN	NaN	NaN	NaN
566.5383992000006	0.3004	sub-15	1	sequence	fixation	dot	NaN	NaN	NaN	NaN	NaN	NaN	NaN	NaN	NaN	NaN	NaN	NaN
566.8571072000004	0.115	sub-15	1	sequence	stimulus	Katze	NaN	NaN	128.0	NaN	NaN	3.0	1.0	NaN	NaN	NaN	NaN	NaN
566.9721006000009	0.1336	sub-15	1	sequence	interval	dot	NaN	NaN	NaN	NaN	NaN	NaN	NaN	NaN	NaN	NaN	NaN	NaN
567.1057000000001	0.0999	sub-15	1	sequence	stimulus	Haus	NaN	NaN	128.0	NaN	NaN	2.0	2.0	NaN	NaN	NaN	NaN	NaN
567.2056384000007	0.1336	sub-15	1	sequence	interval	dot	NaN	NaN	NaN	NaN	NaN	NaN	NaN	NaN	NaN	NaN	NaN	NaN
567.3392717000006	0.0999	sub-15	1	sequence	stimulus	Gesicht	NaN	NaN	128.0	NaN	NaN	1.0	3.0	NaN	NaN	NaN	NaN	NaN
567.4392097	0.1336	sub-15	1	sequence	interval	dot	NaN	NaN	NaN	NaN	NaN	NaN	NaN	NaN	NaN	NaN	NaN	NaN
567.5727848000006	0.0999	sub-15	1	sequence	stimulus	Schuh	NaN	NaN	128.0	NaN	NaN	4.0	4.0	NaN	NaN	NaN	NaN	NaN
567.6726687	0.1335	sub-15	1	sequence	interval	dot	NaN	NaN	NaN	NaN	NaN	NaN	NaN	NaN	NaN	NaN	NaN	NaN
567.8062099000008	0.1001	sub-15	1	sequence	stimulus	Stuhl	NaN	NaN	128.0	NaN	NaN	5.0	5.0	NaN	NaN	NaN	NaN	NaN
567.9063426000002	0.1333	sub-15	1	sequence	interval	dot	NaN	NaN	NaN	NaN	NaN	NaN	NaN	NaN	NaN	NaN	NaN	NaN
568.0395941000006	8.0549	sub-15	1	sequence	delay	dot	NaN	NaN	NaN	NaN	NaN	NaN	NaN	NaN	NaN	NaN	NaN	NaN
576.0821817000005	0.9486	sub-15	1	sequence	choice	choice	left	NaN	NaN	0.9379	True	NaN	NaN	left	True	3.0	2.0	3.0
577.0310293000002	0.4999	sub-15	1	sequence	feedback	NaN	NaN	NaN	NaN	NaN	NaN	NaN	NaN	NaN	NaN	NaN	NaN	NaN
577.5311324000004	1.0004	sub-15	1	sequence	cue	Katze	NaN	NaN	NaN	NaN	NaN	NaN	NaN	NaN	NaN	NaN	NaN	NaN
578.5315009000005	2.0016	sub-15	1	sequence	blank	blank	NaN	NaN	NaN	NaN	NaN	NaN	NaN	NaN	NaN	NaN	NaN	NaN
580.5331017000008	0.3004	sub-15	1	sequence	fixation	dot	NaN	NaN	NaN	NaN	NaN	NaN	NaN	NaN	NaN	NaN	NaN	NaN
580.8516406000008	0.1152	sub-15	1	sequence	stimulus	Gesicht	NaN	NaN	64.0	NaN	NaN	1.0	1.0	NaN	NaN	NaN	NaN	NaN
580.9668332000001	0.0668	sub-15	1	sequence	interval	dot	NaN	NaN	NaN	NaN	NaN	NaN	NaN	NaN	NaN	NaN	NaN	NaN
581.0335969000007	0.1001	sub-15	1	sequence	stimulus	Schuh	NaN	NaN	64.0	NaN	NaN	4.0	2.0	NaN	NaN	NaN	NaN	NaN
581.1336659000008	0.0668	sub-15	1	sequence	interval	dot	NaN	NaN	NaN	NaN	NaN	NaN	NaN	NaN	NaN	NaN	NaN	NaN
581.2004231000001	0.1	sub-15	1	sequence	stimulus	Haus	NaN	NaN	64.0	NaN	NaN	2.0	3.0	NaN	NaN	NaN	NaN	NaN
581.3003945	0.0667	sub-15	1	sequence	interval	dot	NaN	NaN	NaN	NaN	NaN	NaN	NaN	NaN	NaN	NaN	NaN	NaN
581.3671308000003	0.0999	sub-15	1	sequence	stimulus	Katze	NaN	NaN	64.0	NaN	NaN	3.0	4.0	NaN	NaN	NaN	NaN	NaN
581.4670723000008	0.0668	sub-15	1	sequence	interval	dot	NaN	NaN	NaN	NaN	NaN	NaN	NaN	NaN	NaN	NaN	NaN	NaN
581.5338776000008	0.0999	sub-15	1	sequence	stimulus	Stuhl	NaN	NaN	64.0	NaN	NaN	5.0	5.0	NaN	NaN	NaN	NaN	NaN
581.6338066000008	0.0669	sub-15	1	sequence	interval	dot	NaN	NaN	NaN	NaN	NaN	NaN	NaN	NaN	NaN	NaN	NaN	NaN
581.7007175000008	8.3883	sub-15	1	sequence	delay	dot	NaN	NaN	NaN	NaN	NaN	NaN	NaN	NaN	NaN	NaN	NaN	NaN
590.0698665	0.7886	sub-15	1	sequence	choice	choice	right	NaN	NaN	0.7709	True	NaN	NaN	right	True	5.0	4.0	4.0
590.8587012000007	0.4999	sub-15	1	sequence	feedback	NaN	NaN	NaN	NaN	NaN	NaN	NaN	NaN	NaN	NaN	NaN	NaN	NaN
591.3587887000003	1.0005	sub-15	1	sequence	cue	Stuhl	NaN	NaN	NaN	NaN	NaN	NaN	NaN	NaN	NaN	NaN	NaN	NaN
592.3592877000001	2.0016	sub-15	1	sequence	blank	blank	NaN	NaN	NaN	NaN	NaN	NaN	NaN	NaN	NaN	NaN	NaN	NaN
594.3608722000008	0.3002	sub-15	1	sequence	fixation	dot	NaN	NaN	NaN	NaN	NaN	NaN	NaN	NaN	NaN	NaN	NaN	NaN
594.6785870000003	0.0992	sub-15	1	sequence	stimulus	Schuh	NaN	NaN	64.0	NaN	NaN	4.0	1.0	NaN	NaN	NaN	NaN	NaN
594.7777492000005	0.067	sub-15	1	sequence	interval	dot	NaN	NaN	NaN	NaN	NaN	NaN	NaN	NaN	NaN	NaN	NaN	NaN
594.8447197000005	0.0999	sub-15	1	sequence	stimulus	Haus	NaN	NaN	64.0	NaN	NaN	2.0	2.0	NaN	NaN	NaN	NaN	NaN
594.9445947000004	0.0669	sub-15	1	sequence	interval	dot	NaN	NaN	NaN	NaN	NaN	NaN	NaN	NaN	NaN	NaN	NaN	NaN
595.0115122000007	0.0999	sub-15	1	sequence	stimulus	Gesicht	NaN	NaN	64.0	NaN	NaN	1.0	3.0	NaN	NaN	NaN	NaN	NaN
595.1114537000003	0.0669	sub-15	1	sequence	interval	dot	NaN	NaN	NaN	NaN	NaN	NaN	NaN	NaN	NaN	NaN	NaN	NaN
595.1783321000003	0.0999	sub-15	1	sequence	stimulus	Stuhl	NaN	NaN	64.0	NaN	NaN	5.0	4.0	NaN	NaN	NaN	NaN	NaN
595.2782723	0.0667	sub-15	1	sequence	interval	dot	NaN	NaN	NaN	NaN	NaN	NaN	NaN	NaN	NaN	NaN	NaN	NaN
595.3450116000004	0.1001	sub-15	1	sequence	stimulus	Katze	NaN	NaN	64.0	NaN	NaN	3.0	5.0	NaN	NaN	NaN	NaN	NaN
595.4450669000007	0.0668	sub-15	1	sequence	interval	dot	NaN	NaN	NaN	NaN	NaN	NaN	NaN	NaN	NaN	NaN	NaN	NaN
595.5118511000001	8.3885	sub-15	1	sequence	delay	dot	NaN	NaN	NaN	NaN	NaN	NaN	NaN	NaN	NaN	NaN	NaN	NaN
603.8759319000001	0.777	sub-15	1	sequence	choice	choice	right	NaN	NaN	0.7542	True	NaN	NaN	right	True	5.0	4.0	4.0
604.6531917000002	0.5	sub-15	1	sequence	feedback	NaN	NaN	NaN	NaN	NaN	NaN	NaN	NaN	NaN	NaN	NaN	NaN	NaN
605.1533001000007	1.0005	sub-15	1	sequence	cue	Schuh	NaN	NaN	NaN	NaN	NaN	NaN	NaN	NaN	NaN	NaN	NaN	NaN
606.1537891000007	2.0016	sub-15	1	sequence	blank	blank	NaN	NaN	NaN	NaN	NaN	NaN	NaN	NaN	NaN	NaN	NaN	NaN
608.1554138000001	0.3003	sub-15	1	sequence	fixation	dot	NaN	NaN	NaN	NaN	NaN	NaN	NaN	NaN	NaN	NaN	NaN	NaN
608.4739268000003	0.115	sub-15	1	sequence	stimulus	Stuhl	NaN	NaN	128.0	NaN	NaN	5.0	1.0	NaN	NaN	NaN	NaN	NaN
608.5889575000001	0.1336	sub-15	1	sequence	interval	dot	NaN	NaN	NaN	NaN	NaN	NaN	NaN	NaN	NaN	NaN	NaN	NaN
608.7225126000003	0.1	sub-15	1	sequence	stimulus	Gesicht	NaN	NaN	128.0	NaN	NaN	1.0	2.0	NaN	NaN	NaN	NaN	NaN
608.8225139000006	0.1335	sub-15	1	sequence	interval	dot	NaN	NaN	NaN	NaN	NaN	NaN	NaN	NaN	NaN	NaN	NaN	NaN
608.9560093	0.1	sub-15	1	sequence	stimulus	Katze	NaN	NaN	128.0	NaN	NaN	3.0	3.0	NaN	NaN	NaN	NaN	NaN
609.0559850000009	0.1337	sub-15	1	sequence	interval	dot	NaN	NaN	NaN	NaN	NaN	NaN	NaN	NaN	NaN	NaN	NaN	NaN
609.1896457000003	0.0999	sub-15	1	sequence	stimulus	Haus	NaN	NaN	128.0	NaN	NaN	2.0	4.0	NaN	NaN	NaN	NaN	NaN
609.2895248000004	0.1335	sub-15	1	sequence	interval	dot	NaN	NaN	NaN	NaN	NaN	NaN	NaN	NaN	NaN	NaN	NaN	NaN
609.4230630000002	0.1	sub-15	1	sequence	stimulus	Schuh	NaN	NaN	128.0	NaN	NaN	4.0	5.0	NaN	NaN	NaN	NaN	NaN
609.5230273000006	0.1334	sub-15	1	sequence	interval	dot	NaN	NaN	NaN	NaN	NaN	NaN	NaN	NaN	NaN	NaN	NaN	NaN
609.6564533000001	8.0714	sub-15	1	sequence	delay	dot	NaN	NaN	NaN	NaN	NaN	NaN	NaN	NaN	NaN	NaN	NaN	NaN
617.7072100000005	0.8737	sub-15	1	sequence	choice	choice	left	NaN	NaN	0.8376	True	NaN	NaN	left	True	5.0	4.0	5.0
618.5811903000003	0.4997	sub-15	1	sequence	feedback	NaN	NaN	NaN	NaN	NaN	NaN	NaN	NaN	NaN	NaN	NaN	NaN	NaN
619.0810719000001	1.0006	sub-15	1	sequence	cue	Katze	NaN	NaN	NaN	NaN	NaN	NaN	NaN	NaN	NaN	NaN	NaN	NaN
620.0816595000006	2.0017	sub-15	1	sequence	blank	blank	NaN	NaN	NaN	NaN	NaN	NaN	NaN	NaN	NaN	NaN	NaN	NaN
622.0834000000004	0.3001	sub-15	1	sequence	fixation	dot	NaN	NaN	NaN	NaN	NaN	NaN	NaN	NaN	NaN	NaN	NaN	NaN
622.4019115000001	0.1151	sub-15	1	sequence	stimulus	Katze	NaN	NaN	32.0	NaN	NaN	3.0	1.0	NaN	NaN	NaN	NaN	NaN
622.5170190000008	0.0335	sub-15	1	sequence	interval	dot	NaN	NaN	NaN	NaN	NaN	NaN	NaN	NaN	NaN	NaN	NaN	NaN
622.5504950000004	0.1	sub-15	1	sequence	stimulus	Gesicht	NaN	NaN	32.0	NaN	NaN	1.0	2.0	NaN	NaN	NaN	NaN	NaN
622.6504463000001	0.0335	sub-15	1	sequence	interval	dot	NaN	NaN	NaN	NaN	NaN	NaN	NaN	NaN	NaN	NaN	NaN	NaN
622.6839112000007	0.1001	sub-15	1	sequence	stimulus	Stuhl	NaN	NaN	32.0	NaN	NaN	5.0	3.0	NaN	NaN	NaN	NaN	NaN
622.7840364000003	0.0333	sub-15	1	sequence	interval	dot	NaN	NaN	NaN	NaN	NaN	NaN	NaN	NaN	NaN	NaN	NaN	NaN
622.8173536000004	0.1	sub-15	1	sequence	stimulus	Schuh	NaN	NaN	32.0	NaN	NaN	4.0	4.0	NaN	NaN	NaN	NaN	NaN
622.9173076000006	0.0335	sub-15	1	sequence	interval	dot	NaN	NaN	NaN	NaN	NaN	NaN	NaN	NaN	NaN	NaN	NaN	NaN
622.9508049000005	0.0999	sub-15	1	sequence	stimulus	Haus	NaN	NaN	32.0	NaN	NaN	2.0	5.0	NaN	NaN	NaN	NaN	NaN
623.0507237000002	0.0334	sub-15	1	sequence	interval	dot	NaN	NaN	NaN	NaN	NaN	NaN	NaN	NaN	NaN	NaN	NaN	NaN
623.0840895000001	8.5218	sub-15	1	sequence	delay	dot	NaN	NaN	NaN	NaN	NaN	NaN	NaN	NaN	NaN	NaN	NaN	NaN
631.5910087000002	0.8509	sub-15	1	sequence	choice	choice	left	NaN	NaN	0.8377	True	NaN	NaN	left	True	1.0	2.0	1.0
632.4422170000007	0.5	sub-15	1	sequence	feedback	NaN	NaN	NaN	NaN	NaN	NaN	NaN	NaN	NaN	NaN	NaN	NaN	NaN
636.7625380000009	0.4996	sub-15	1	localizer	stimulus	Schuh	NaN	0	2.5519975000006525	NaN	True	NaN	NaN	NaN	NaN	NaN	NaN	NaN
637.2455	2.552	sub-15	1	localizer	blank	interval	NaN	NaN	NaN	NaN	NaN	NaN	NaN	NaN	NaN	NaN	NaN	NaN
640.0986644000004	0.4994	sub-15	1	localizer	stimulus	Stuhl	NaN	0	2.218311700000413	NaN	True	NaN	NaN	NaN	NaN	NaN	NaN	NaN
640.5816689000003	2.2183	sub-15	1	localizer	blank	interval	NaN	NaN	NaN	NaN	NaN	NaN	NaN	NaN	NaN	NaN	NaN	NaN
643.1012540000002	0.4995	sub-15	1	localizer	stimulus	Haus	NaN	0	2.8688044999998965	NaN	True	NaN	NaN	NaN	NaN	NaN	NaN	NaN
643.5842258000002	2.8688	sub-15	1	localizer	blank	interval	NaN	NaN	NaN	NaN	NaN	NaN	NaN	NaN	NaN	NaN	NaN	NaN
646.7539773000008	0.4996	sub-15	1	localizer	stimulus	Haus	NaN	0	3.335807299999942	NaN	True	NaN	NaN	NaN	NaN	NaN	NaN	NaN
647.2370344000001	3.3358	sub-15	1	localizer	blank	interval	NaN	NaN	NaN	NaN	NaN	NaN	NaN	NaN	NaN	NaN	NaN	NaN
650.8739805000005	0.4995	sub-15	1	localizer	stimulus	Schuh	NaN	180	2.118310200000451	0.734	True	NaN	NaN	NaN	NaN	NaN	NaN	NaN
651.3569440000001	2.1183	sub-15	1	localizer	blank	interval	NaN	NaN	NaN	NaN	NaN	NaN	NaN	NaN	NaN	NaN	NaN	NaN
653.7763466000006	0.4995	sub-15	1	localizer	stimulus	Katze	NaN	0	1.417714999999589	NaN	True	NaN	NaN	NaN	NaN	NaN	NaN	NaN
654.2592773000006	1.4177	sub-15	1	localizer	blank	interval	NaN	NaN	NaN	NaN	NaN	NaN	NaN	NaN	NaN	NaN	NaN	NaN
655.9780669000002	0.4995	sub-15	1	localizer	stimulus	Stuhl	NaN	0	3.235800100000233	NaN	True	NaN	NaN	NaN	NaN	NaN	NaN	NaN
656.4610822000004	3.2358	sub-15	1	localizer	blank	interval	NaN	NaN	NaN	NaN	NaN	NaN	NaN	NaN	NaN	NaN	NaN	NaN
659.9980543000001	0.4995	sub-15	1	localizer	stimulus	Schuh	NaN	0	3.469474999999875	NaN	True	NaN	NaN	NaN	NaN	NaN	NaN	NaN
660.4810172000007	3.4695	sub-15	1	localizer	blank	interval	NaN	NaN	NaN	NaN	NaN	NaN	NaN	NaN	NaN	NaN	NaN	NaN
664.2516396000001	0.4995	sub-15	1	localizer	stimulus	Schuh	NaN	0	3.252477899999576	NaN	True	NaN	NaN	NaN	NaN	NaN	NaN	NaN
664.7345498000004	3.2525	sub-15	1	localizer	blank	interval	NaN	NaN	NaN	NaN	NaN	NaN	NaN	NaN	NaN	NaN	NaN	NaN
668.2882322000005	0.4994	sub-15	1	localizer	stimulus	Haus	NaN	180	2.3183264999997846	0.5842	True	NaN	NaN	NaN	NaN	NaN	NaN	NaN
668.7711465000002	2.3183	sub-15	1	localizer	blank	interval	NaN	NaN	NaN	NaN	NaN	NaN	NaN	NaN	NaN	NaN	NaN	NaN
671.3904923	0.4997	sub-15	1	localizer	stimulus	Katze	NaN	0	2.0348149999999805	NaN	True	NaN	NaN	NaN	NaN	NaN	NaN	NaN
671.8735300000008	2.0348	sub-15	1	localizer	blank	interval	NaN	NaN	NaN	NaN	NaN	NaN	NaN	NaN	NaN	NaN	NaN	NaN
674.2094715000003	0.4996	sub-15	1	localizer	stimulus	Gesicht	NaN	0	2.5185811999999714	NaN	True	NaN	NaN	NaN	NaN	NaN	NaN	NaN
674.6924319000009	2.5186	sub-15	1	localizer	blank	interval	NaN	NaN	NaN	NaN	NaN	NaN	NaN	NaN	NaN	NaN	NaN	NaN
677.5121342000002	0.4995	sub-15	1	localizer	stimulus	Haus	NaN	0	2.7520176999996693	NaN	True	NaN	NaN	NaN	NaN	NaN	NaN	NaN
677.9951519000006	2.752	sub-15	1	localizer	blank	interval	NaN	NaN	NaN	NaN	NaN	NaN	NaN	NaN	NaN	NaN	NaN	NaN
681.0482778000005	0.4996	sub-15	1	localizer	stimulus	Stuhl	NaN	0	3.202592800000275	NaN	True	NaN	NaN	NaN	NaN	NaN	NaN	NaN
681.5312984000002	3.2026	sub-15	1	localizer	blank	interval	NaN	NaN	NaN	NaN	NaN	NaN	NaN	NaN	NaN	NaN	NaN	NaN
685.0351535000009	0.4995	sub-15	1	localizer	stimulus	Stuhl	NaN	180	1.5343655999995462	0.5338	True	NaN	NaN	NaN	NaN	NaN	NaN	NaN
685.5180905000007	1.5344	sub-15	1	localizer	blank	interval	NaN	NaN	NaN	NaN	NaN	NaN	NaN	NaN	NaN	NaN	NaN	NaN
687.3533984000005	0.4996	sub-15	1	localizer	stimulus	Katze	NaN	0	2.0514077999996516	NaN	True	NaN	NaN	NaN	NaN	NaN	NaN	NaN
687.8365317000007	2.0514	sub-15	1	localizer	blank	interval	NaN	NaN	NaN	NaN	NaN	NaN	NaN	NaN	NaN	NaN	NaN	NaN
690.1890176000006	0.4996	sub-15	1	localizer	stimulus	Katze	NaN	0	3.152398600000197	NaN	True	NaN	NaN	NaN	NaN	NaN	NaN	NaN
690.6720267000001	3.1524	sub-15	1	localizer	blank	interval	NaN	NaN	NaN	NaN	NaN	NaN	NaN	NaN	NaN	NaN	NaN	NaN
694.1255939000002	0.4995	sub-15	1	localizer	stimulus	Schuh	NaN	0	2.285007299999961	NaN	True	NaN	NaN	NaN	NaN	NaN	NaN	NaN
694.6085578000002	2.285	sub-15	1	localizer	blank	interval	NaN	NaN	NaN	NaN	NaN	NaN	NaN	NaN	NaN	NaN	NaN	NaN
697.1947767000001	0.4994	sub-15	1	localizer	stimulus	Gesicht	NaN	0	2.7354138000000603	NaN	True	NaN	NaN	NaN	NaN	NaN	NaN	NaN
697.6776829	2.7354	sub-15	1	localizer	blank	interval	NaN	NaN	NaN	NaN	NaN	NaN	NaN	NaN	NaN	NaN	NaN	NaN
700.7141662000004	0.4996	sub-15	1	localizer	stimulus	Stuhl	NaN	0	2.635424900000544	NaN	True	NaN	NaN	NaN	NaN	NaN	NaN	NaN
701.1972081000004	2.6354	sub-15	1	localizer	blank	interval	NaN	NaN	NaN	NaN	NaN	NaN	NaN	NaN	NaN	NaN	NaN	NaN
704.1337066000006	0.4997	sub-15	1	localizer	stimulus	Gesicht	NaN	0	1.501134799999818	NaN	True	NaN	NaN	NaN	NaN	NaN	NaN	NaN
704.6167438000002	1.5011	sub-15	1	localizer	blank	interval	NaN	NaN	NaN	NaN	NaN	NaN	NaN	NaN	NaN	NaN	NaN	NaN
706.4190362000008	0.4996	sub-15	1	localizer	stimulus	Gesicht	NaN	0	2.985379899999316	NaN	True	NaN	NaN	NaN	NaN	NaN	NaN	NaN
706.9020714000008	2.9854	sub-15	1	localizer	blank	interval	NaN	NaN	NaN	NaN	NaN	NaN	NaN	NaN	NaN	NaN	NaN	NaN
710.1885481000008	0.4995	sub-15	1	localizer	stimulus	Katze	NaN	180	2.4351176000000123	0.5671	True	NaN	NaN	NaN	NaN	NaN	NaN	NaN
710.6715553000004	2.4351	sub-15	1	localizer	blank	interval	NaN	NaN	NaN	NaN	NaN	NaN	NaN	NaN	NaN	NaN	NaN	NaN
713.4078029000002	0.4996	sub-15	1	localizer	stimulus	Haus	NaN	0	2.134752099999787	NaN	True	NaN	NaN	NaN	NaN	NaN	NaN	NaN
713.8909801000009	2.1348	sub-15	1	localizer	blank	interval	NaN	NaN	NaN	NaN	NaN	NaN	NaN	NaN	NaN	NaN	NaN	NaN
716.3268340000004	0.4995	sub-15	1	localizer	stimulus	Gesicht	NaN	180	2.018172300000515	0.5672	True	NaN	NaN	NaN	NaN	NaN	NaN	NaN
716.8098301	2.0182	sub-15	1	localizer	blank	interval	NaN	NaN	NaN	NaN	NaN	NaN	NaN	NaN	NaN	NaN	NaN	NaN
722.3144389000008	1.0005	sub-15	1	sequence	cue	Katze	NaN	NaN	NaN	NaN	NaN	NaN	NaN	NaN	NaN	NaN	NaN	NaN
723.3149575000007	2.0018	sub-15	1	sequence	blank	blank	NaN	NaN	NaN	NaN	NaN	NaN	NaN	NaN	NaN	NaN	NaN	NaN
725.3168094000002	0.3003	sub-15	1	sequence	fixation	dot	NaN	NaN	NaN	NaN	NaN	NaN	NaN	NaN	NaN	NaN	NaN	NaN
725.6353236000004	0.1151	sub-15	1	sequence	stimulus	Haus	NaN	NaN	32.0	NaN	NaN	2.0	1.0	NaN	NaN	NaN	NaN	NaN
725.7504692000002	0.0334	sub-15	1	sequence	interval	dot	NaN	NaN	NaN	NaN	NaN	NaN	NaN	NaN	NaN	NaN	NaN	NaN
725.7838708000008	0.1	sub-15	1	sequence	stimulus	Katze	NaN	NaN	32.0	NaN	NaN	3.0	2.0	NaN	NaN	NaN	NaN	NaN
725.8838234000004	0.0335	sub-15	1	sequence	interval	dot	NaN	NaN	NaN	NaN	NaN	NaN	NaN	NaN	NaN	NaN	NaN	NaN
725.9173334000006	0.1	sub-15	1	sequence	stimulus	Gesicht	NaN	NaN	32.0	NaN	NaN	1.0	3.0	NaN	NaN	NaN	NaN	NaN
726.0173354000008	0.0334	sub-15	1	sequence	interval	dot	NaN	NaN	NaN	NaN	NaN	NaN	NaN	NaN	NaN	NaN	NaN	NaN
726.0507341000002	0.1	sub-15	1	sequence	stimulus	Stuhl	NaN	NaN	32.0	NaN	NaN	5.0	4.0	NaN	NaN	NaN	NaN	NaN
726.1507326000001	0.0336	sub-15	1	sequence	interval	dot	NaN	NaN	NaN	NaN	NaN	NaN	NaN	NaN	NaN	NaN	NaN	NaN
726.1843258000008	0.0999	sub-15	1	sequence	stimulus	Schuh	NaN	NaN	32.0	NaN	NaN	4.0	5.0	NaN	NaN	NaN	NaN	NaN
726.2842100000007	0.0334	sub-15	1	sequence	interval	dot	NaN	NaN	NaN	NaN	NaN	NaN	NaN	NaN	NaN	NaN	NaN	NaN
726.3176270000004	8.5383	sub-15	1	sequence	delay	dot	NaN	NaN	NaN	NaN	NaN	NaN	NaN	NaN	NaN	NaN	NaN	NaN
734.8345826000004	0.9243	sub-15	1	sequence	choice	choice	left	NaN	NaN	0.9048	True	NaN	NaN	left	True	2.0	3.0	2.0
735.7592431000003	0.4998	sub-15	1	sequence	feedback	NaN	NaN	NaN	NaN	NaN	NaN	NaN	NaN	NaN	NaN	NaN	NaN	NaN
736.2592705000006	1.0004	sub-15	1	sequence	cue	Stuhl	NaN	NaN	NaN	NaN	NaN	NaN	NaN	NaN	NaN	NaN	NaN	NaN
737.2596584000003	2.0017	sub-15	1	sequence	blank	blank	NaN	NaN	NaN	NaN	NaN	NaN	NaN	NaN	NaN	NaN	NaN	NaN
739.2614078000006	0.3002	sub-15	1	sequence	fixation	dot	NaN	NaN	NaN	NaN	NaN	NaN	NaN	NaN	NaN	NaN	NaN	NaN
739.5789342000007	0.0993	sub-15	1	sequence	stimulus	Gesicht	NaN	NaN	64.0	NaN	NaN	1.0	1.0	NaN	NaN	NaN	NaN	NaN
739.6782540000004	0.0668	sub-15	1	sequence	interval	dot	NaN	NaN	NaN	NaN	NaN	NaN	NaN	NaN	NaN	NaN	NaN	NaN
739.7450119000005	0.0999	sub-15	1	sequence	stimulus	Schuh	NaN	NaN	64.0	NaN	NaN	4.0	2.0	NaN	NaN	NaN	NaN	NaN
739.8449535000009	0.0669	sub-15	1	sequence	interval	dot	NaN	NaN	NaN	NaN	NaN	NaN	NaN	NaN	NaN	NaN	NaN	NaN
739.9118319000008	0.1001	sub-15	1	sequence	stimulus	Haus	NaN	NaN	64.0	NaN	NaN	2.0	3.0	NaN	NaN	NaN	NaN	NaN
740.0119048000006	0.0668	sub-15	1	sequence	interval	dot	NaN	NaN	NaN	NaN	NaN	NaN	NaN	NaN	NaN	NaN	NaN	NaN
740.0786851000003	0.0999	sub-15	1	sequence	stimulus	Katze	NaN	NaN	64.0	NaN	NaN	3.0	4.0	NaN	NaN	NaN	NaN	NaN
740.1785589000001	0.0669	sub-15	1	sequence	interval	dot	NaN	NaN	NaN	NaN	NaN	NaN	NaN	NaN	NaN	NaN	NaN	NaN
740.2454646000006	0.0999	sub-15	1	sequence	stimulus	Stuhl	NaN	NaN	64.0	NaN	NaN	5.0	5.0	NaN	NaN	NaN	NaN	NaN
740.3453819000006	0.0668	sub-15	1	sequence	interval	dot	NaN	NaN	NaN	NaN	NaN	NaN	NaN	NaN	NaN	NaN	NaN	NaN
740.4121857	8.372	sub-15	1	sequence	delay	dot	NaN	NaN	NaN	NaN	NaN	NaN	NaN	NaN	NaN	NaN	NaN	NaN
748.7702393000009	0.7666	sub-15	1	sequence	choice	choice	right	NaN	NaN	0.7543	True	NaN	NaN	right	True	4.0	5.0	5.0
749.5371518000002	0.4997	sub-15	1	sequence	feedback	NaN	NaN	NaN	NaN	NaN	NaN	NaN	NaN	NaN	NaN	NaN	NaN	NaN
750.0370241	1.0004	sub-15	1	sequence	cue	Katze	NaN	NaN	NaN	NaN	NaN	NaN	NaN	NaN	NaN	NaN	NaN	NaN
751.0374722000006	2.0015	sub-15	1	sequence	blank	blank	NaN	NaN	NaN	NaN	NaN	NaN	NaN	NaN	NaN	NaN	NaN	NaN
753.0389666000001	0.3003	sub-15	1	sequence	fixation	dot	NaN	NaN	NaN	NaN	NaN	NaN	NaN	NaN	NaN	NaN	NaN	NaN
753.3577121000008	0.1149	sub-15	1	sequence	stimulus	Stuhl	NaN	NaN	128.0	NaN	NaN	5.0	1.0	NaN	NaN	NaN	NaN	NaN
753.4726322000006	0.1337	sub-15	1	sequence	interval	dot	NaN	NaN	NaN	NaN	NaN	NaN	NaN	NaN	NaN	NaN	NaN	NaN
753.6062996	0.0999	sub-15	1	sequence	stimulus	Gesicht	NaN	NaN	128.0	NaN	NaN	1.0	2.0	NaN	NaN	NaN	NaN	NaN
753.7061653000001	0.1337	sub-15	1	sequence	interval	dot	NaN	NaN	NaN	NaN	NaN	NaN	NaN	NaN	NaN	NaN	NaN	NaN
753.8398410000009	0.1	sub-15	1	sequence	stimulus	Katze	NaN	NaN	128.0	NaN	NaN	3.0	3.0	NaN	NaN	NaN	NaN	NaN
753.9397991000005	0.1335	sub-15	1	sequence	interval	dot	NaN	NaN	NaN	NaN	NaN	NaN	NaN	NaN	NaN	NaN	NaN	NaN
754.0732663000008	0.1	sub-15	1	sequence	stimulus	Haus	NaN	NaN	128.0	NaN	NaN	2.0	4.0	NaN	NaN	NaN	NaN	NaN
754.1732522000002	0.1336	sub-15	1	sequence	interval	dot	NaN	NaN	NaN	NaN	NaN	NaN	NaN	NaN	NaN	NaN	NaN	NaN
754.3068181000008	0.0999	sub-15	1	sequence	stimulus	Schuh	NaN	NaN	128.0	NaN	NaN	4.0	5.0	NaN	NaN	NaN	NaN	NaN
754.4067087000003	0.1336	sub-15	1	sequence	interval	dot	NaN	NaN	NaN	NaN	NaN	NaN	NaN	NaN	NaN	NaN	NaN	NaN
754.5403094000003	8.0548	sub-15	1	sequence	delay	dot	NaN	NaN	NaN	NaN	NaN	NaN	NaN	NaN	NaN	NaN	NaN	NaN
762.5759776000004	0.7554	sub-15	1	sequence	choice	choice	left	NaN	NaN	0.738	True	NaN	NaN	left	True	3.0	5.0	3.0
763.3315871000004	0.4997	sub-15	1	sequence	feedback	NaN	NaN	NaN	NaN	NaN	NaN	NaN	NaN	NaN	NaN	NaN	NaN	NaN
763.8315534000003	1.0004	sub-15	1	sequence	cue	Schuh	NaN	NaN	NaN	NaN	NaN	NaN	NaN	NaN	NaN	NaN	NaN	NaN
764.8319703000006	2.0019	sub-15	1	sequence	blank	blank	NaN	NaN	NaN	NaN	NaN	NaN	NaN	NaN	NaN	NaN	NaN	NaN
766.8338389	0.3004	sub-15	1	sequence	fixation	dot	NaN	NaN	NaN	NaN	NaN	NaN	NaN	NaN	NaN	NaN	NaN	NaN
767.1521825000009	0.1153	sub-15	1	sequence	stimulus	Stuhl	NaN	NaN	512.0	NaN	NaN	5.0	1.0	NaN	NaN	NaN	NaN	NaN
767.2674609000005	0.5171	sub-15	1	sequence	interval	dot	NaN	NaN	NaN	NaN	NaN	NaN	NaN	NaN	NaN	NaN	NaN	NaN
767.784584	0.1	sub-15	1	sequence	stimulus	Katze	NaN	NaN	512.0	NaN	NaN	3.0	2.0	NaN	NaN	NaN	NaN	NaN
767.8845829000002	0.5172	sub-15	1	sequence	interval	dot	NaN	NaN	NaN	NaN	NaN	NaN	NaN	NaN	NaN	NaN	NaN	NaN
768.4018010000009	0.0998	sub-15	1	sequence	stimulus	Gesicht	NaN	NaN	512.0	NaN	NaN	1.0	3.0	NaN	NaN	NaN	NaN	NaN
768.5016309000002	0.5173	sub-15	1	sequence	interval	dot	NaN	NaN	NaN	NaN	NaN	NaN	NaN	NaN	NaN	NaN	NaN	NaN
769.0189285000006	0.1	sub-15	1	sequence	stimulus	Haus	NaN	NaN	512.0	NaN	NaN	2.0	4.0	NaN	NaN	NaN	NaN	NaN
769.1189068000003	0.5172	sub-15	1	sequence	interval	dot	NaN	NaN	NaN	NaN	NaN	NaN	NaN	NaN	NaN	NaN	NaN	NaN
769.6361029000009	0.1	sub-15	1	sequence	stimulus	Schuh	NaN	NaN	512.0	NaN	NaN	4.0	5.0	NaN	NaN	NaN	NaN	NaN
769.7360583000009	0.5169	sub-15	1	sequence	interval	dot	NaN	NaN	NaN	NaN	NaN	NaN	NaN	NaN	NaN	NaN	NaN	NaN
770.2529663000005	6.1534	sub-15	1	sequence	delay	dot	NaN	NaN	NaN	NaN	NaN	NaN	NaN	NaN	NaN	NaN	NaN	NaN
776.3816780000006	0.7106	sub-15	1	sequence	choice	choice	right	NaN	NaN	0.6874	True	NaN	NaN	right	True	4.0	5.0	5.0
777.0925093000005	0.5	sub-15	1	sequence	feedback	NaN	NaN	NaN	NaN	NaN	NaN	NaN	NaN	NaN	NaN	NaN	NaN	NaN
777.5926306000001	1.0003	sub-15	1	sequence	cue	Haus	NaN	NaN	NaN	NaN	NaN	NaN	NaN	NaN	NaN	NaN	NaN	NaN
778.5929398000007	2.0016	sub-15	1	sequence	blank	blank	NaN	NaN	NaN	NaN	NaN	NaN	NaN	NaN	NaN	NaN	NaN	NaN
780.5945578000001	0.3002	sub-15	1	sequence	fixation	dot	NaN	NaN	NaN	NaN	NaN	NaN	NaN	NaN	NaN	NaN	NaN	NaN
780.9135679000001	0.1147	sub-15	1	sequence	stimulus	Katze	NaN	NaN	32.0	NaN	NaN	3.0	1.0	NaN	NaN	NaN	NaN	NaN
781.0282377000003	0.0335	sub-15	1	sequence	interval	dot	NaN	NaN	NaN	NaN	NaN	NaN	NaN	NaN	NaN	NaN	NaN	NaN
781.0617190000003	0.0999	sub-15	1	sequence	stimulus	Gesicht	NaN	NaN	32.0	NaN	NaN	1.0	2.0	NaN	NaN	NaN	NaN	NaN
781.1616452000007	0.0335	sub-15	1	sequence	interval	dot	NaN	NaN	NaN	NaN	NaN	NaN	NaN	NaN	NaN	NaN	NaN	NaN
781.1951279000004	0.1	sub-15	1	sequence	stimulus	Stuhl	NaN	NaN	32.0	NaN	NaN	5.0	3.0	NaN	NaN	NaN	NaN	NaN
781.2951007000001	0.0335	sub-15	1	sequence	interval	dot	NaN	NaN	NaN	NaN	NaN	NaN	NaN	NaN	NaN	NaN	NaN	NaN
781.3285992000001	0.0999	sub-15	1	sequence	stimulus	Schuh	NaN	NaN	32.0	NaN	NaN	4.0	4.0	NaN	NaN	NaN	NaN	NaN
781.4285306000002	0.0335	sub-15	1	sequence	interval	dot	NaN	NaN	NaN	NaN	NaN	NaN	NaN	NaN	NaN	NaN	NaN	NaN
781.4620399000005	0.1	sub-15	1	sequence	stimulus	Haus	NaN	NaN	32.0	NaN	NaN	2.0	5.0	NaN	NaN	NaN	NaN	NaN
781.5620366000003	0.0333	sub-15	1	sequence	interval	dot	NaN	NaN	NaN	NaN	NaN	NaN	NaN	NaN	NaN	NaN	NaN	NaN
781.5953508000002	8.5389	sub-15	1	sequence	delay	dot	NaN	NaN	NaN	NaN	NaN	NaN	NaN	NaN	NaN	NaN	NaN	NaN
790.1092904000006	1.0277	sub-15	1	sequence	choice	choice	left	NaN	NaN	1.0045	True	NaN	NaN	left	True	5.0	3.0	5.0
791.1372440000005	0.4998	sub-15	1	sequence	feedback	NaN	NaN	NaN	NaN	NaN	NaN	NaN	NaN	NaN	NaN	NaN	NaN	NaN
791.6372462000008	1.0004	sub-15	1	sequence	cue	Gesicht	NaN	NaN	NaN	NaN	NaN	NaN	NaN	NaN	NaN	NaN	NaN	NaN
792.6376991000006	2.0017	sub-15	1	sequence	blank	blank	NaN	NaN	NaN	NaN	NaN	NaN	NaN	NaN	NaN	NaN	NaN	NaN
794.6393608000008	0.3002	sub-15	1	sequence	fixation	dot	NaN	NaN	NaN	NaN	NaN	NaN	NaN	NaN	NaN	NaN	NaN	NaN
794.9570468000002	0.0992	sub-15	1	sequence	stimulus	Schuh	NaN	NaN	64.0	NaN	NaN	4.0	1.0	NaN	NaN	NaN	NaN	NaN
795.0562535000008	0.0669	sub-15	1	sequence	interval	dot	NaN	NaN	NaN	NaN	NaN	NaN	NaN	NaN	NaN	NaN	NaN	NaN
795.1231066	0.0999	sub-15	1	sequence	stimulus	Haus	NaN	NaN	64.0	NaN	NaN	2.0	2.0	NaN	NaN	NaN	NaN	NaN
795.2230513000004	0.0668	sub-15	1	sequence	interval	dot	NaN	NaN	NaN	NaN	NaN	NaN	NaN	NaN	NaN	NaN	NaN	NaN
795.2898298	0.1	sub-15	1	sequence	stimulus	Gesicht	NaN	NaN	64.0	NaN	NaN	1.0	3.0	NaN	NaN	NaN	NaN	NaN
795.3898042000001	0.0669	sub-15	1	sequence	interval	dot	NaN	NaN	NaN	NaN	NaN	NaN	NaN	NaN	NaN	NaN	NaN	NaN
795.4566765000009	0.0999	sub-15	1	sequence	stimulus	Stuhl	NaN	NaN	64.0	NaN	NaN	5.0	4.0	NaN	NaN	NaN	NaN	NaN
795.5566069000006	0.0669	sub-15	1	sequence	interval	dot	NaN	NaN	NaN	NaN	NaN	NaN	NaN	NaN	NaN	NaN	NaN	NaN
795.6235046000002	0.0999	sub-15	1	sequence	stimulus	Katze	NaN	NaN	64.0	NaN	NaN	3.0	5.0	NaN	NaN	NaN	NaN	NaN
795.7234537000004	0.0667	sub-15	1	sequence	interval	dot	NaN	NaN	NaN	NaN	NaN	NaN	NaN	NaN	NaN	NaN	NaN	NaN
795.7901490000004	8.3718	sub-15	1	sequence	delay	dot	NaN	NaN	NaN	NaN	NaN	NaN	NaN	NaN	NaN	NaN	NaN	NaN
804.1489909000002	0.8158	sub-15	1	sequence	choice	choice	left	NaN	NaN	0.8039	True	NaN	NaN	left	True	3.0	4.0	3.0
804.9648978000005	0.4999	sub-15	1	sequence	feedback	NaN	NaN	NaN	NaN	NaN	NaN	NaN	NaN	NaN	NaN	NaN	NaN	NaN
805.4649467000008	1.0007	sub-15	1	sequence	cue	Haus	NaN	NaN	NaN	NaN	NaN	NaN	NaN	NaN	NaN	NaN	NaN	NaN
806.4656232000007	2.0017	sub-15	1	sequence	blank	blank	NaN	NaN	NaN	NaN	NaN	NaN	NaN	NaN	NaN	NaN	NaN	NaN
808.4672817000001	0.3003	sub-15	1	sequence	fixation	dot	NaN	NaN	NaN	NaN	NaN	NaN	NaN	NaN	NaN	NaN	NaN	NaN
808.7856921000002	0.1153	sub-15	1	sequence	stimulus	Stuhl	NaN	NaN	512.0	NaN	NaN	5.0	1.0	NaN	NaN	NaN	NaN	NaN
808.9009627000005	0.5172	sub-15	1	sequence	interval	dot	NaN	NaN	NaN	NaN	NaN	NaN	NaN	NaN	NaN	NaN	NaN	NaN
809.4182090000004	0.1001	sub-15	1	sequence	stimulus	Gesicht	NaN	NaN	512.0	NaN	NaN	1.0	2.0	NaN	NaN	NaN	NaN	NaN
809.5182968000008	0.5171	sub-15	1	sequence	interval	dot	NaN	NaN	NaN	NaN	NaN	NaN	NaN	NaN	NaN	NaN	NaN	NaN
810.0353940000005	0.1	sub-15	1	sequence	stimulus	Haus	NaN	NaN	512.0	NaN	NaN	2.0	3.0	NaN	NaN	NaN	NaN	NaN
810.1353854000008	0.5171	sub-15	1	sequence	interval	dot	NaN	NaN	NaN	NaN	NaN	NaN	NaN	NaN	NaN	NaN	NaN	NaN
810.6524586000005	0.1	sub-15	1	sequence	stimulus	Katze	NaN	NaN	512.0	NaN	NaN	3.0	4.0	NaN	NaN	NaN	NaN	NaN
810.7524346	0.5173	sub-15	1	sequence	interval	dot	NaN	NaN	NaN	NaN	NaN	NaN	NaN	NaN	NaN	NaN	NaN	NaN
811.2696917000003	0.0999	sub-15	1	sequence	stimulus	Schuh	NaN	NaN	512.0	NaN	NaN	4.0	5.0	NaN	NaN	NaN	NaN	NaN
811.3696094000006	0.517	sub-15	1	sequence	interval	dot	NaN	NaN	NaN	NaN	NaN	NaN	NaN	NaN	NaN	NaN	NaN	NaN
811.8865708000003	6.1367	sub-15	1	sequence	delay	dot	NaN	NaN	NaN	NaN	NaN	NaN	NaN	NaN	NaN	NaN	NaN	NaN
818.0067228000007	0.8526	sub-15	1	sequence	choice	choice	right	NaN	NaN	0.838	True	NaN	NaN	right	True	5.0	3.0	3.0
818.8596483000001	0.4999	sub-15	1	sequence	feedback	NaN	NaN	NaN	NaN	NaN	NaN	NaN	NaN	NaN	NaN	NaN	NaN	NaN
819.3597951000002	1.0002	sub-15	1	sequence	cue	Stuhl	NaN	NaN	NaN	NaN	NaN	NaN	NaN	NaN	NaN	NaN	NaN	NaN
820.3599949000009	2.0016	sub-15	1	sequence	blank	blank	NaN	NaN	NaN	NaN	NaN	NaN	NaN	NaN	NaN	NaN	NaN	NaN
822.3615981000003	0.3004	sub-15	1	sequence	fixation	dot	NaN	NaN	NaN	NaN	NaN	NaN	NaN	NaN	NaN	NaN	NaN	NaN
822.6794146000002	0.0992	sub-15	1	sequence	stimulus	Katze	NaN	NaN	128.0	NaN	NaN	3.0	1.0	NaN	NaN	NaN	NaN	NaN
822.7785936	0.1336	sub-15	1	sequence	interval	dot	NaN	NaN	NaN	NaN	NaN	NaN	NaN	NaN	NaN	NaN	NaN	NaN
822.9121848000004	0.1	sub-15	1	sequence	stimulus	Haus	NaN	NaN	128.0	NaN	NaN	2.0	2.0	NaN	NaN	NaN	NaN	NaN
823.0121360000003	0.1337	sub-15	1	sequence	interval	dot	NaN	NaN	NaN	NaN	NaN	NaN	NaN	NaN	NaN	NaN	NaN	NaN
823.1458091000004	0.0999	sub-15	1	sequence	stimulus	Gesicht	NaN	NaN	128.0	NaN	NaN	1.0	3.0	NaN	NaN	NaN	NaN	NaN
823.2457180000001	0.1335	sub-15	1	sequence	interval	dot	NaN	NaN	NaN	NaN	NaN	NaN	NaN	NaN	NaN	NaN	NaN	NaN
823.3792347000008	0.0999	sub-15	1	sequence	stimulus	Schuh	NaN	NaN	128.0	NaN	NaN	4.0	4.0	NaN	NaN	NaN	NaN	NaN
823.4791342000008	0.1336	sub-15	1	sequence	interval	dot	NaN	NaN	NaN	NaN	NaN	NaN	NaN	NaN	NaN	NaN	NaN	NaN
823.6127335000001	0.0999	sub-15	1	sequence	stimulus	Stuhl	NaN	NaN	128.0	NaN	NaN	5.0	5.0	NaN	NaN	NaN	NaN	NaN
823.7126342000001	0.1335	sub-15	1	sequence	interval	dot	NaN	NaN	NaN	NaN	NaN	NaN	NaN	NaN	NaN	NaN	NaN	NaN
823.8461571000007	8.0717	sub-15	1	sequence	delay	dot	NaN	NaN	NaN	NaN	NaN	NaN	NaN	NaN	NaN	NaN	NaN	NaN
831.8904157000006	0.7468	sub-15	1	sequence	choice	choice	right	NaN	NaN	0.7212	True	NaN	NaN	right	True	3.0	5.0	5.0
832.6375492000006	0.4997	sub-15	1	sequence	feedback	NaN	NaN	NaN	NaN	NaN	NaN	NaN	NaN	NaN	NaN	NaN	NaN	NaN
833.1377513000007	12.5932	sub-15	1	other	break	break	NaN	NaN	NaN	NaN	NaN	NaN	NaN	NaN	NaN	NaN	NaN	NaN
849.5513109000003	0.4995	sub-15	1	localizer	stimulus	Schuh	NaN	0	2.134891400000015	NaN	True	NaN	NaN	NaN	NaN	NaN	NaN	NaN
850.0508468000007	2.1349	sub-15	1	localizer	blank	interval	NaN	NaN	NaN	NaN	NaN	NaN	NaN	NaN	NaN	NaN	NaN	NaN
852.4869544000003	0.4995	sub-15	1	localizer	stimulus	Gesicht	NaN	180	1.300754699999743	0.6007	True	NaN	NaN	NaN	NaN	NaN	NaN	NaN
852.9699314000009	1.3008	sub-15	1	localizer	blank	interval	NaN	NaN	NaN	NaN	NaN	NaN	NaN	NaN	NaN	NaN	NaN	NaN
854.5718186000004	0.4997	sub-15	1	localizer	stimulus	Gesicht	NaN	0	2.852257699999427	NaN	True	NaN	NaN	NaN	NaN	NaN	NaN	NaN
855.0548277000007	2.8523	sub-15	1	localizer	blank	interval	NaN	NaN	NaN	NaN	NaN	NaN	NaN	NaN	NaN	NaN	NaN	NaN
858.2080914000007	0.4995	sub-15	1	localizer	stimulus	Katze	NaN	0	2.35174730000017	NaN	True	NaN	NaN	NaN	NaN	NaN	NaN	NaN
858.6911071000004	2.3517	sub-15	1	localizer	blank	interval	NaN	NaN	NaN	NaN	NaN	NaN	NaN	NaN	NaN	NaN	NaN	NaN
861.3439774000008	0.4995	sub-15	1	localizer	stimulus	Schuh	NaN	0	3.2358361999995395	NaN	True	NaN	NaN	NaN	NaN	NaN	NaN	NaN
861.8269309000007	3.2358	sub-15	1	localizer	blank	interval	NaN	NaN	NaN	NaN	NaN	NaN	NaN	NaN	NaN	NaN	NaN	NaN
865.3638759000005	0.4995	sub-15	1	localizer	stimulus	Schuh	NaN	0	2.43531559999974	NaN	True	NaN	NaN	NaN	NaN	NaN	NaN	NaN
865.8468552000004	2.4353	sub-15	1	localizer	blank	interval	NaN	NaN	NaN	NaN	NaN	NaN	NaN	NaN	NaN	NaN	NaN	NaN
868.5831966000005	0.4996	sub-15	1	localizer	stimulus	Katze	NaN	0	2.451856900000166	NaN	True	NaN	NaN	NaN	NaN	NaN	NaN	NaN
869.0662484000004	2.4519	sub-15	1	localizer	blank	interval	NaN	NaN	NaN	NaN	NaN	NaN	NaN	NaN	NaN	NaN	NaN	NaN
871.8191866000006	0.4996	sub-15	1	localizer	stimulus	Haus	NaN	180	3.2358277000003	0.5505	True	NaN	NaN	NaN	NaN	NaN	NaN	NaN
872.3022183000003	3.2358	sub-15	1	localizer	blank	interval	NaN	NaN	NaN	NaN	NaN	NaN	NaN	NaN	NaN	NaN	NaN	NaN
875.8391334000007	0.4995	sub-15	1	localizer	stimulus	Gesicht	NaN	0	2.00123320000057	NaN	True	NaN	NaN	NaN	NaN	NaN	NaN	NaN
876.3222149000003	2.0012	sub-15	1	localizer	blank	interval	NaN	NaN	NaN	NaN	NaN	NaN	NaN	NaN	NaN	NaN	NaN	NaN
878.6245389000005	0.4996	sub-15	1	localizer	stimulus	Schuh	NaN	0	1.984822599999461	NaN	True	NaN	NaN	NaN	NaN	NaN	NaN	NaN
879.1076427000007	1.9848	sub-15	1	localizer	blank	interval	NaN	NaN	NaN	NaN	NaN	NaN	NaN	NaN	NaN	NaN	NaN	NaN
881.3935013	0.4995	sub-15	1	localizer	stimulus	Haus	NaN	0	2.0515174000001934	NaN	True	NaN	NaN	NaN	NaN	NaN	NaN	NaN
881.8765791000005	2.0515	sub-15	1	localizer	blank	interval	NaN	NaN	NaN	NaN	NaN	NaN	NaN	NaN	NaN	NaN	NaN	NaN
884.2291333000003	0.4995	sub-15	1	localizer	stimulus	Haus	NaN	0	1.984781899999689	NaN	True	NaN	NaN	NaN	NaN	NaN	NaN	NaN
884.7120897000004	1.9848	sub-15	1	localizer	blank	interval	NaN	NaN	NaN	NaN	NaN	NaN	NaN	NaN	NaN	NaN	NaN	NaN
886.9980380000006	0.4995	sub-15	1	localizer	stimulus	Stuhl	NaN	0	2.034805000000233	NaN	True	NaN	NaN	NaN	NaN	NaN	NaN	NaN
887.4811196	2.0348	sub-15	1	localizer	blank	interval	NaN	NaN	NaN	NaN	NaN	NaN	NaN	NaN	NaN	NaN	NaN	NaN
889.8169945000009	0.4997	sub-15	1	localizer	stimulus	Schuh	NaN	180	2.1015348000000813	0.5843	True	NaN	NaN	NaN	NaN	NaN	NaN	NaN
890.3000888000006	2.1015	sub-15	1	localizer	blank	interval	NaN	NaN	NaN	NaN	NaN	NaN	NaN	NaN	NaN	NaN	NaN	NaN
892.7026934000005	0.4997	sub-15	1	localizer	stimulus	Stuhl	NaN	0	2.1515697000004366	NaN	True	NaN	NaN	NaN	NaN	NaN	NaN	NaN
893.1857766000003	2.1516	sub-15	1	localizer	blank	interval	NaN	NaN	NaN	NaN	NaN	NaN	NaN	NaN	NaN	NaN	NaN	NaN
895.6384071000002	0.4995	sub-15	1	localizer	stimulus	Haus	NaN	0	2.2015768999999636	NaN	True	NaN	NaN	NaN	NaN	NaN	NaN	NaN
896.1213732000006	2.2016	sub-15	1	localizer	blank	interval	NaN	NaN	NaN	NaN	NaN	NaN	NaN	NaN	NaN	NaN	NaN	NaN
898.6240284000005	0.4996	sub-15	1	localizer	stimulus	Katze	NaN	0	3.252514099999644	NaN	True	NaN	NaN	NaN	NaN	NaN	NaN	NaN
899.1070716000004	3.2525	sub-15	1	localizer	blank	interval	NaN	NaN	NaN	NaN	NaN	NaN	NaN	NaN	NaN	NaN	NaN	NaN
902.6605838000004	0.4996	sub-15	1	localizer	stimulus	Stuhl	NaN	0	1.9515267000006133	NaN	True	NaN	NaN	NaN	NaN	NaN	NaN	NaN
903.1436345000002	1.9515	sub-15	1	localizer	blank	interval	NaN	NaN	NaN	NaN	NaN	NaN	NaN	NaN	NaN	NaN	NaN	NaN
905.3961435	0.4996	sub-15	1	localizer	stimulus	Stuhl	NaN	0	2.018180300000381	NaN	True	NaN	NaN	NaN	NaN	NaN	NaN	NaN
905.8792559000004	2.0182	sub-15	1	localizer	blank	interval	NaN	NaN	NaN	NaN	NaN	NaN	NaN	NaN	NaN	NaN	NaN	NaN
908.1985835000004	0.4995	sub-15	1	localizer	stimulus	Gesicht	NaN	0	2.6020111000005954	NaN	True	NaN	NaN	NaN	NaN	NaN	NaN	NaN
908.6816766000002	2.602	sub-15	1	localizer	blank	interval	NaN	NaN	NaN	NaN	NaN	NaN	NaN	NaN	NaN	NaN	NaN	NaN
911.5845657000008	0.4996	sub-15	1	localizer	stimulus	Stuhl	NaN	180	2.6354149999996253	0.6677	True	NaN	NaN	NaN	NaN	NaN	NaN	NaN
912.0675822000004	2.6354	sub-15	1	localizer	blank	interval	NaN	NaN	NaN	NaN	NaN	NaN	NaN	NaN	NaN	NaN	NaN	NaN
915.0040037000008	0.4997	sub-15	1	localizer	stimulus	Katze	NaN	0	2.5185521000001927	NaN	True	NaN	NaN	NaN	NaN	NaN	NaN	NaN
915.4870134000004	2.5186	sub-15	1	localizer	blank	interval	NaN	NaN	NaN	NaN	NaN	NaN	NaN	NaN	NaN	NaN	NaN	NaN
918.3065960000004	0.4995	sub-15	1	localizer	stimulus	Katze	NaN	180	2.251674699999967	0.5841	True	NaN	NaN	NaN	NaN	NaN	NaN	NaN
918.7897108000006	2.2517	sub-15	1	localizer	blank	interval	NaN	NaN	NaN	NaN	NaN	NaN	NaN	NaN	NaN	NaN	NaN	NaN
921.3424045000002	0.4996	sub-15	1	localizer	stimulus	Gesicht	NaN	0	1.8348432999999886	NaN	True	NaN	NaN	NaN	NaN	NaN	NaN	NaN
921.8253870000008	1.8348	sub-15	1	localizer	blank	interval	NaN	NaN	NaN	NaN	NaN	NaN	NaN	NaN	NaN	NaN	NaN	NaN
923.9612177000008	0.4996	sub-15	1	localizer	stimulus	Haus	NaN	0	2.501876500000435	NaN	True	NaN	NaN	NaN	NaN	NaN	NaN	NaN
924.4442231000004	2.5019	sub-15	1	localizer	blank	interval	NaN	NaN	NaN	NaN	NaN	NaN	NaN	NaN	NaN	NaN	NaN	NaN
930.4326810000002	1.0007	sub-15	1	sequence	cue	Stuhl	NaN	NaN	NaN	NaN	NaN	NaN	NaN	NaN	NaN	NaN	NaN	NaN
931.4333929000004	2.0014	sub-15	1	sequence	blank	blank	NaN	NaN	NaN	NaN	NaN	NaN	NaN	NaN	NaN	NaN	NaN	NaN
933.4347527	0.3002	sub-15	1	sequence	fixation	dot	NaN	NaN	NaN	NaN	NaN	NaN	NaN	NaN	NaN	NaN	NaN	NaN
933.7525755000006	0.0991	sub-15	1	sequence	stimulus	Haus	NaN	NaN	32.0	NaN	NaN	2.0	1.0	NaN	NaN	NaN	NaN	NaN
933.8516965000008	0.0335	sub-15	1	sequence	interval	dot	NaN	NaN	NaN	NaN	NaN	NaN	NaN	NaN	NaN	NaN	NaN	NaN
933.8852239000008	0.0999	sub-15	1	sequence	stimulus	Katze	NaN	NaN	32.0	NaN	NaN	3.0	2.0	NaN	NaN	NaN	NaN	NaN
933.9851147000008	0.0336	sub-15	1	sequence	interval	dot	NaN	NaN	NaN	NaN	NaN	NaN	NaN	NaN	NaN	NaN	NaN	NaN
934.0186750000004	0.0999	sub-15	1	sequence	stimulus	Gesicht	NaN	NaN	32.0	NaN	NaN	1.0	3.0	NaN	NaN	NaN	NaN	NaN
934.1185761000006	0.0335	sub-15	1	sequence	interval	dot	NaN	NaN	NaN	NaN	NaN	NaN	NaN	NaN	NaN	NaN	NaN	NaN
934.1521153000004	0.1	sub-15	1	sequence	stimulus	Stuhl	NaN	NaN	32.0	NaN	NaN	5.0	4.0	NaN	NaN	NaN	NaN	NaN
934.2520802000008	0.0335	sub-15	1	sequence	interval	dot	NaN	NaN	NaN	NaN	NaN	NaN	NaN	NaN	NaN	NaN	NaN	NaN
934.2855788000006	0.1001	sub-15	1	sequence	stimulus	Schuh	NaN	NaN	32.0	NaN	NaN	4.0	5.0	NaN	NaN	NaN	NaN	NaN
934.3856335	0.0333	sub-15	1	sequence	interval	dot	NaN	NaN	NaN	NaN	NaN	NaN	NaN	NaN	NaN	NaN	NaN	NaN
934.4189208000008	8.5385	sub-15	1	sequence	delay	dot	NaN	NaN	NaN	NaN	NaN	NaN	NaN	NaN	NaN	NaN	NaN	NaN
942.9338073000008	0.7765	sub-15	1	sequence	choice	choice	left	NaN	NaN	0.7547	True	NaN	NaN	left	True	4.0	5.0	4.0
943.7106597000002	0.4997	sub-15	1	sequence	feedback	NaN	NaN	NaN	NaN	NaN	NaN	NaN	NaN	NaN	NaN	NaN	NaN	NaN
944.2105737000002	1.0003	sub-15	1	sequence	cue	Katze	NaN	NaN	NaN	NaN	NaN	NaN	NaN	NaN	NaN	NaN	NaN	NaN
945.2108755000008	2.0016	sub-15	1	sequence	blank	blank	NaN	NaN	NaN	NaN	NaN	NaN	NaN	NaN	NaN	NaN	NaN	NaN
947.2125183000009	0.3003	sub-15	1	sequence	fixation	dot	NaN	NaN	NaN	NaN	NaN	NaN	NaN	NaN	NaN	NaN	NaN	NaN
947.5328750000008	0.1133	sub-15	1	sequence	stimulus	Gesicht	NaN	NaN	64.0	NaN	NaN	1.0	1.0	NaN	NaN	NaN	NaN	NaN
947.6461508000002	0.0668	sub-15	1	sequence	interval	dot	NaN	NaN	NaN	NaN	NaN	NaN	NaN	NaN	NaN	NaN	NaN	NaN
947.7129866000004	0.0999	sub-15	1	sequence	stimulus	Schuh	NaN	NaN	64.0	NaN	NaN	4.0	2.0	NaN	NaN	NaN	NaN	NaN
947.8129274000004	0.0669	sub-15	1	sequence	interval	dot	NaN	NaN	NaN	NaN	NaN	NaN	NaN	NaN	NaN	NaN	NaN	NaN
947.8798354	0.0999	sub-15	1	sequence	stimulus	Haus	NaN	NaN	64.0	NaN	NaN	2.0	3.0	NaN	NaN	NaN	NaN	NaN
947.9797732000006	0.0668	sub-15	1	sequence	interval	dot	NaN	NaN	NaN	NaN	NaN	NaN	NaN	NaN	NaN	NaN	NaN	NaN
948.0466134000008	0.1	sub-15	1	sequence	stimulus	Katze	NaN	NaN	64.0	NaN	NaN	3.0	4.0	NaN	NaN	NaN	NaN	NaN
948.1465758000004	0.067	sub-15	1	sequence	interval	dot	NaN	NaN	NaN	NaN	NaN	NaN	NaN	NaN	NaN	NaN	NaN	NaN
948.2135560000006	0.0999	sub-15	1	sequence	stimulus	Stuhl	NaN	NaN	64.0	NaN	NaN	5.0	5.0	NaN	NaN	NaN	NaN	NaN
948.3134814000005	0.0667	sub-15	1	sequence	interval	dot	NaN	NaN	NaN	NaN	NaN	NaN	NaN	NaN	NaN	NaN	NaN	NaN
948.3802005000008	8.3718	sub-15	1	sequence	delay	dot	NaN	NaN	NaN	NaN	NaN	NaN	NaN	NaN	NaN	NaN	NaN	NaN
956.7395448000008	1.082	sub-15	1	sequence	choice	choice	right	NaN	NaN	1.0706	True	NaN	NaN	right	True	3.0	4.0	4.0
957.8216974000006	0.5001	sub-15	1	sequence	feedback	NaN	NaN	NaN	NaN	NaN	NaN	NaN	NaN	NaN	NaN	NaN	NaN	NaN
958.3219029000002	1.0004	sub-15	1	sequence	cue	Katze	NaN	NaN	NaN	NaN	NaN	NaN	NaN	NaN	NaN	NaN	NaN	NaN
959.3222809000008	2.0016	sub-15	1	sequence	blank	blank	NaN	NaN	NaN	NaN	NaN	NaN	NaN	NaN	NaN	NaN	NaN	NaN
961.3239160000004	0.3002	sub-15	1	sequence	fixation	dot	NaN	NaN	NaN	NaN	NaN	NaN	NaN	NaN	NaN	NaN	NaN	NaN
961.6423648	0.1152	sub-15	1	sequence	stimulus	Stuhl	NaN	NaN	128.0	NaN	NaN	5.0	1.0	NaN	NaN	NaN	NaN	NaN
961.7575901	0.1335	sub-15	1	sequence	interval	dot	NaN	NaN	NaN	NaN	NaN	NaN	NaN	NaN	NaN	NaN	NaN	NaN
961.8910495	0.1	sub-15	1	sequence	stimulus	Gesicht	NaN	NaN	128.0	NaN	NaN	1.0	2.0	NaN	NaN	NaN	NaN	NaN
961.9910273000004	0.1336	sub-15	1	sequence	interval	dot	NaN	NaN	NaN	NaN	NaN	NaN	NaN	NaN	NaN	NaN	NaN	NaN
962.1246145000003	0.1	sub-15	1	sequence	stimulus	Katze	NaN	NaN	128.0	NaN	NaN	3.0	3.0	NaN	NaN	NaN	NaN	NaN
962.2245830000002	0.1336	sub-15	1	sequence	interval	dot	NaN	NaN	NaN	NaN	NaN	NaN	NaN	NaN	NaN	NaN	NaN	NaN
962.3581800000002	0.0999	sub-15	1	sequence	stimulus	Haus	NaN	NaN	128.0	NaN	NaN	2.0	4.0	NaN	NaN	NaN	NaN	NaN
962.4580733000004	0.1336	sub-15	1	sequence	interval	dot	NaN	NaN	NaN	NaN	NaN	NaN	NaN	NaN	NaN	NaN	NaN	NaN
962.5916464000002	0.0999	sub-15	1	sequence	stimulus	Schuh	NaN	NaN	128.0	NaN	NaN	4.0	5.0	NaN	NaN	NaN	NaN	NaN
962.6915654000004	0.1335	sub-15	1	sequence	interval	dot	NaN	NaN	NaN	NaN	NaN	NaN	NaN	NaN	NaN	NaN	NaN	NaN
962.8250958000008	8.0717	sub-15	1	sequence	delay	dot	NaN	NaN	NaN	NaN	NaN	NaN	NaN	NaN	NaN	NaN	NaN	NaN
970.8832185	0.8164	sub-15	1	sequence	choice	choice	right	NaN	NaN	0.7871	True	NaN	NaN	right	True	4.0	3.0	3.0
971.6999064	0.4997	sub-15	1	sequence	feedback	NaN	NaN	NaN	NaN	NaN	NaN	NaN	NaN	NaN	NaN	NaN	NaN	NaN
972.1997135	1.0004	sub-15	1	sequence	cue	Stuhl	NaN	NaN	NaN	NaN	NaN	NaN	NaN	NaN	NaN	NaN	NaN	NaN
973.2001485	2.0017	sub-15	1	sequence	blank	blank	NaN	NaN	NaN	NaN	NaN	NaN	NaN	NaN	NaN	NaN	NaN	NaN
975.2018243000002	0.3002	sub-15	1	sequence	fixation	dot	NaN	NaN	NaN	NaN	NaN	NaN	NaN	NaN	NaN	NaN	NaN	NaN
975.5196619000008	0.0991	sub-15	1	sequence	stimulus	Katze	NaN	NaN	32.0	NaN	NaN	3.0	1.0	NaN	NaN	NaN	NaN	NaN
975.6187773	0.0335	sub-15	1	sequence	interval	dot	NaN	NaN	NaN	NaN	NaN	NaN	NaN	NaN	NaN	NaN	NaN	NaN
975.6522632000006	0.1	sub-15	1	sequence	stimulus	Gesicht	NaN	NaN	32.0	NaN	NaN	1.0	2.0	NaN	NaN	NaN	NaN	NaN
975.7522328000005	0.0335	sub-15	1	sequence	interval	dot	NaN	NaN	NaN	NaN	NaN	NaN	NaN	NaN	NaN	NaN	NaN	NaN
975.7857436000004	0.1	sub-15	1	sequence	stimulus	Stuhl	NaN	NaN	32.0	NaN	NaN	5.0	3.0	NaN	NaN	NaN	NaN	NaN
975.8857065000002	0.0335	sub-15	1	sequence	interval	dot	NaN	NaN	NaN	NaN	NaN	NaN	NaN	NaN	NaN	NaN	NaN	NaN
975.919213	0.0999	sub-15	1	sequence	stimulus	Schuh	NaN	NaN	32.0	NaN	NaN	4.0	4.0	NaN	NaN	NaN	NaN	NaN
976.0191433	0.0335	sub-15	1	sequence	interval	dot	NaN	NaN	NaN	NaN	NaN	NaN	NaN	NaN	NaN	NaN	NaN	NaN
976.0526912000004	0.0999	sub-15	1	sequence	stimulus	Haus	NaN	NaN	32.0	NaN	NaN	2.0	5.0	NaN	NaN	NaN	NaN	NaN
976.1526068000004	0.0334	sub-15	1	sequence	interval	dot	NaN	NaN	NaN	NaN	NaN	NaN	NaN	NaN	NaN	NaN	NaN	NaN
976.1860030000008	8.5218	sub-15	1	sequence	delay	dot	NaN	NaN	NaN	NaN	NaN	NaN	NaN	NaN	NaN	NaN	NaN	NaN
984.6888760000002	0.7216	sub-15	1	sequence	choice	choice	left	NaN	NaN	0.7044	True	NaN	NaN	left	True	3.0	4.0	3.0
985.4107434000008	0.5	sub-15	1	sequence	feedback	NaN	NaN	NaN	NaN	NaN	NaN	NaN	NaN	NaN	NaN	NaN	NaN	NaN
985.9109187000004	1.0005	sub-15	1	sequence	cue	Schuh	NaN	NaN	NaN	NaN	NaN	NaN	NaN	NaN	NaN	NaN	NaN	NaN
986.9113799000006	2.0016	sub-15	1	sequence	blank	blank	NaN	NaN	NaN	NaN	NaN	NaN	NaN	NaN	NaN	NaN	NaN	NaN
988.9130269000008	0.3001	sub-15	1	sequence	fixation	dot	NaN	NaN	NaN	NaN	NaN	NaN	NaN	NaN	NaN	NaN	NaN	NaN
989.2315206000004	0.1151	sub-15	1	sequence	stimulus	Stuhl	NaN	NaN	512.0	NaN	NaN	5.0	1.0	NaN	NaN	NaN	NaN	NaN
989.3465937	0.5173	sub-15	1	sequence	interval	dot	NaN	NaN	NaN	NaN	NaN	NaN	NaN	NaN	NaN	NaN	NaN	NaN
989.8638476000006	0.1	sub-15	1	sequence	stimulus	Gesicht	NaN	NaN	512.0	NaN	NaN	1.0	2.0	NaN	NaN	NaN	NaN	NaN
989.9638030000006	0.5173	sub-15	1	sequence	interval	dot	NaN	NaN	NaN	NaN	NaN	NaN	NaN	NaN	NaN	NaN	NaN	NaN
990.4810967000004	0.0999	sub-15	1	sequence	stimulus	Haus	NaN	NaN	512.0	NaN	NaN	2.0	3.0	NaN	NaN	NaN	NaN	NaN
990.5809679000004	0.5173	sub-15	1	sequence	interval	dot	NaN	NaN	NaN	NaN	NaN	NaN	NaN	NaN	NaN	NaN	NaN	NaN
991.0982232000006	0.1	sub-15	1	sequence	stimulus	Katze	NaN	NaN	512.0	NaN	NaN	3.0	4.0	NaN	NaN	NaN	NaN	NaN
991.1981843000004	0.5173	sub-15	1	sequence	interval	dot	NaN	NaN	NaN	NaN	NaN	NaN	NaN	NaN	NaN	NaN	NaN	NaN
991.7154710000004	0.1	sub-15	1	sequence	stimulus	Schuh	NaN	NaN	512.0	NaN	NaN	4.0	5.0	NaN	NaN	NaN	NaN	NaN
991.8155157	0.5169	sub-15	1	sequence	interval	dot	NaN	NaN	NaN	NaN	NaN	NaN	NaN	NaN	NaN	NaN	NaN	NaN
992.3323716000004	6.1533	sub-15	1	sequence	delay	dot	NaN	NaN	NaN	NaN	NaN	NaN	NaN	NaN	NaN	NaN	NaN	NaN
998.4685713000008	0.9534	sub-15	1	sequence	choice	choice	left	NaN	NaN	0.9379	True	NaN	NaN	left	True	5.0	3.0	5.0
999.4222781000008	0.4998	sub-15	1	sequence	feedback	NaN	NaN	NaN	NaN	NaN	NaN	NaN	NaN	NaN	NaN	NaN	NaN	NaN
999.9221859000008	1.0004	sub-15	1	sequence	cue	Haus	NaN	NaN	NaN	NaN	NaN	NaN	NaN	NaN	NaN	NaN	NaN	NaN
1000.9225594000008	2.0016	sub-15	1	sequence	blank	blank	NaN	NaN	NaN	NaN	NaN	NaN	NaN	NaN	NaN	NaN	NaN	NaN
1002.9241604000008	0.3002	sub-15	1	sequence	fixation	dot	NaN	NaN	NaN	NaN	NaN	NaN	NaN	NaN	NaN	NaN	NaN	NaN
1003.2426483000008	0.1152	sub-15	1	sequence	stimulus	Stuhl	NaN	NaN	512.0	NaN	NaN	5.0	1.0	NaN	NaN	NaN	NaN	NaN
1003.3578191000006	0.5172	sub-15	1	sequence	interval	dot	NaN	NaN	NaN	NaN	NaN	NaN	NaN	NaN	NaN	NaN	NaN	NaN
1003.8749991000004	0.1	sub-15	1	sequence	stimulus	Katze	NaN	NaN	512.0	NaN	NaN	3.0	2.0	NaN	NaN	NaN	NaN	NaN
1003.9750002	0.5173	sub-15	1	sequence	interval	dot	NaN	NaN	NaN	NaN	NaN	NaN	NaN	NaN	NaN	NaN	NaN	NaN
1004.4922581	0.1	sub-15	1	sequence	stimulus	Gesicht	NaN	NaN	512.0	NaN	NaN	1.0	3.0	NaN	NaN	NaN	NaN	NaN
1004.5922135	0.5172	sub-15	1	sequence	interval	dot	NaN	NaN	NaN	NaN	NaN	NaN	NaN	NaN	NaN	NaN	NaN	NaN
1005.1094043000004	0.1	sub-15	1	sequence	stimulus	Haus	NaN	NaN	512.0	NaN	NaN	2.0	4.0	NaN	NaN	NaN	NaN	NaN
1005.2093928000004	0.5173	sub-15	1	sequence	interval	dot	NaN	NaN	NaN	NaN	NaN	NaN	NaN	NaN	NaN	NaN	NaN	NaN
1005.7266763000008	0.1	sub-15	1	sequence	stimulus	Schuh	NaN	NaN	512.0	NaN	NaN	4.0	5.0	NaN	NaN	NaN	NaN	NaN
1005.8266528000004	0.517	sub-15	1	sequence	interval	dot	NaN	NaN	NaN	NaN	NaN	NaN	NaN	NaN	NaN	NaN	NaN	NaN
1006.3436677000008	6.1534	sub-15	1	sequence	delay	dot	NaN	NaN	NaN	NaN	NaN	NaN	NaN	NaN	NaN	NaN	NaN	NaN
1012.4822106	0.8177	sub-15	1	sequence	choice	choice	right	NaN	NaN	0.8053	True	NaN	NaN	right	True	3.0	4.0	4.0
1013.3002212	0.4997	sub-15	1	sequence	feedback	NaN	NaN	NaN	NaN	NaN	NaN	NaN	NaN	NaN	NaN	NaN	NaN	NaN
1013.8001422000008	1.0003	sub-15	1	sequence	cue	Stuhl	NaN	NaN	NaN	NaN	NaN	NaN	NaN	NaN	NaN	NaN	NaN	NaN
1014.8004566000008	2.0016	sub-15	1	sequence	blank	blank	NaN	NaN	NaN	NaN	NaN	NaN	NaN	NaN	NaN	NaN	NaN	NaN
1016.8020551000008	0.3003	sub-15	1	sequence	fixation	dot	NaN	NaN	NaN	NaN	NaN	NaN	NaN	NaN	NaN	NaN	NaN	NaN
1017.1198793000004	0.0991	sub-15	1	sequence	stimulus	Katze	NaN	NaN	128.0	NaN	NaN	3.0	1.0	NaN	NaN	NaN	NaN	NaN
1017.2189590000008	0.1337	sub-15	1	sequence	interval	dot	NaN	NaN	NaN	NaN	NaN	NaN	NaN	NaN	NaN	NaN	NaN	NaN
1017.3526251000004	0.0999	sub-15	1	sequence	stimulus	Haus	NaN	NaN	128.0	NaN	NaN	2.0	2.0	NaN	NaN	NaN	NaN	NaN
1017.4525465000006	0.1336	sub-15	1	sequence	interval	dot	NaN	NaN	NaN	NaN	NaN	NaN	NaN	NaN	NaN	NaN	NaN	NaN
1017.5861362000004	0.1	sub-15	1	sequence	stimulus	Gesicht	NaN	NaN	128.0	NaN	NaN	1.0	3.0	NaN	NaN	NaN	NaN	NaN
1017.6861265000008	0.1336	sub-15	1	sequence	interval	dot	NaN	NaN	NaN	NaN	NaN	NaN	NaN	NaN	NaN	NaN	NaN	NaN
1017.8197053000004	0.0999	sub-15	1	sequence	stimulus	Schuh	NaN	NaN	128.0	NaN	NaN	4.0	4.0	NaN	NaN	NaN	NaN	NaN
1017.9195926000002	0.1336	sub-15	1	sequence	interval	dot	NaN	NaN	NaN	NaN	NaN	NaN	NaN	NaN	NaN	NaN	NaN	NaN
1018.0531696000008	0.1	sub-15	1	sequence	stimulus	Stuhl	NaN	NaN	128.0	NaN	NaN	5.0	5.0	NaN	NaN	NaN	NaN	NaN
1018.1531531	0.1335	sub-15	1	sequence	interval	dot	NaN	NaN	NaN	NaN	NaN	NaN	NaN	NaN	NaN	NaN	NaN	NaN
1018.2866943000008	8.0715	sub-15	1	sequence	delay	dot	NaN	NaN	NaN	NaN	NaN	NaN	NaN	NaN	NaN	NaN	NaN	NaN
1026.339909800001	0.7876	sub-15	1	sequence	choice	choice	right	NaN	NaN	0.7709	True	NaN	NaN	right	True	3.0	5.0	5.0
1027.1277876000004	0.5	sub-15	1	sequence	feedback	NaN	NaN	NaN	NaN	NaN	NaN	NaN	NaN	NaN	NaN	NaN	NaN	NaN
1027.6280399000009	1.0168	sub-15	1	sequence	cue	Stuhl	NaN	NaN	NaN	NaN	NaN	NaN	NaN	NaN	NaN	NaN	NaN	NaN
1028.6448712	1.985	sub-15	1	sequence	blank	blank	NaN	NaN	NaN	NaN	NaN	NaN	NaN	NaN	NaN	NaN	NaN	NaN
1030.6299245	0.3002	sub-15	1	sequence	fixation	dot	NaN	NaN	NaN	NaN	NaN	NaN	NaN	NaN	NaN	NaN	NaN	NaN
1030.9478589	0.099	sub-15	1	sequence	stimulus	Schuh	NaN	NaN	64.0	NaN	NaN	4.0	1.0	NaN	NaN	NaN	NaN	NaN
1031.0468991000007	0.0668	sub-15	1	sequence	interval	dot	NaN	NaN	NaN	NaN	NaN	NaN	NaN	NaN	NaN	NaN	NaN	NaN
1031.1137413000006	0.1	sub-15	1	sequence	stimulus	Haus	NaN	NaN	64.0	NaN	NaN	2.0	2.0	NaN	NaN	NaN	NaN	NaN
1031.2137456	0.0668	sub-15	1	sequence	interval	dot	NaN	NaN	NaN	NaN	NaN	NaN	NaN	NaN	NaN	NaN	NaN	NaN
1031.2805386	0.1	sub-15	1	sequence	stimulus	Gesicht	NaN	NaN	64.0	NaN	NaN	1.0	3.0	NaN	NaN	NaN	NaN	NaN
1031.3804981000003	0.0668	sub-15	1	sequence	interval	dot	NaN	NaN	NaN	NaN	NaN	NaN	NaN	NaN	NaN	NaN	NaN	NaN
1031.4473406000006	0.1	sub-15	1	sequence	stimulus	Stuhl	NaN	NaN	64.0	NaN	NaN	5.0	4.0	NaN	NaN	NaN	NaN	NaN
1031.547305	0.0668	sub-15	1	sequence	interval	dot	NaN	NaN	NaN	NaN	NaN	NaN	NaN	NaN	NaN	NaN	NaN	NaN
1031.6141314000006	0.1	sub-15	1	sequence	stimulus	Katze	NaN	NaN	64.0	NaN	NaN	3.0	5.0	NaN	NaN	NaN	NaN	NaN
1031.7141321000008	0.0667	sub-15	1	sequence	interval	dot	NaN	NaN	NaN	NaN	NaN	NaN	NaN	NaN	NaN	NaN	NaN	NaN
1031.7808781000003	8.3883	sub-15	1	sequence	delay	dot	NaN	NaN	NaN	NaN	NaN	NaN	NaN	NaN	NaN	NaN	NaN	NaN
1040.1455123000003	1.027	sub-15	1	sequence	choice	choice	left	NaN	NaN	1.0049	True	NaN	NaN	left	True	4.0	3.0	4.0
1041.1727302000008	0.5	sub-15	1	sequence	feedback	NaN	NaN	NaN	NaN	NaN	NaN	NaN	NaN	NaN	NaN	NaN	NaN	NaN
1045.4926437000004	0.4996	sub-15	1	localizer	stimulus	Stuhl	NaN	0	3.3359517999995205	NaN	True	NaN	NaN	NaN	NaN	NaN	NaN	NaN
1045.9756639000009	3.336	sub-15	1	localizer	blank	interval	NaN	NaN	NaN	NaN	NaN	NaN	NaN	NaN	NaN	NaN	NaN	NaN
1049.6128132000003	0.4996	sub-15	1	localizer	stimulus	Gesicht	NaN	180	2.485205799999676	0.6006	True	NaN	NaN	NaN	NaN	NaN	NaN	NaN
1050.095866400001	2.4852	sub-15	1	localizer	blank	interval	NaN	NaN	NaN	NaN	NaN	NaN	NaN	NaN	NaN	NaN	NaN	NaN
1052.8821673000002	0.4993	sub-15	1	localizer	stimulus	Haus	NaN	0	2.4018269999994573	NaN	True	NaN	NaN	NaN	NaN	NaN	NaN	NaN
1053.3649805000005	2.4018	sub-15	1	localizer	blank	interval	NaN	NaN	NaN	NaN	NaN	NaN	NaN	NaN	NaN	NaN	NaN	NaN
1056.0679551000003	0.4995	sub-15	1	localizer	stimulus	Haus	NaN	0	2.1182808000003206	NaN	True	NaN	NaN	NaN	NaN	NaN	NaN	NaN
1056.5509312000004	2.1183	sub-15	1	localizer	blank	interval	NaN	NaN	NaN	NaN	NaN	NaN	NaN	NaN	NaN	NaN	NaN	NaN
1058.9703663	0.4994	sub-15	1	localizer	stimulus	Schuh	NaN	180	2.7021407999991425	0.5838	True	NaN	NaN	NaN	NaN	NaN	NaN	NaN
1059.453304400001	2.7021	sub-15	1	localizer	blank	interval	NaN	NaN	NaN	NaN	NaN	NaN	NaN	NaN	NaN	NaN	NaN	NaN
1062.4566042000006	0.4995	sub-15	1	localizer	stimulus	Schuh	NaN	0	1.8678956999990532	NaN	True	NaN	NaN	NaN	NaN	NaN	NaN	NaN
1062.9395470000009	1.8679	sub-15	1	localizer	blank	interval	NaN	NaN	NaN	NaN	NaN	NaN	NaN	NaN	NaN	NaN	NaN	NaN
1065.1085306000004	0.4996	sub-15	1	localizer	stimulus	Katze	NaN	0	1.3009129000004123	NaN	True	NaN	NaN	NaN	NaN	NaN	NaN	NaN
1065.5914695	1.3009	sub-15	1	localizer	blank	interval	NaN	NaN	NaN	NaN	NaN	NaN	NaN	NaN	NaN	NaN	NaN	NaN
1067.1935099000002	0.4995	sub-15	1	localizer	stimulus	Katze	NaN	0	1.6344990000009147	NaN	True	NaN	NaN	NaN	NaN	NaN	NaN	NaN
1067.6765845	1.6345	sub-15	1	localizer	blank	interval	NaN	NaN	NaN	NaN	NaN	NaN	NaN	NaN	NaN	NaN	NaN	NaN
1069.6123284000005	0.4995	sub-15	1	localizer	stimulus	Gesicht	NaN	0	3.019038100000216	NaN	True	NaN	NaN	NaN	NaN	NaN	NaN	NaN
1070.0952802000002	3.019	sub-15	1	localizer	blank	interval	NaN	NaN	NaN	NaN	NaN	NaN	NaN	NaN	NaN	NaN	NaN	NaN
1073.4152148000005	0.5	sub-15	1	localizer	stimulus	Stuhl	NaN	0	3.452624399999877	NaN	True	NaN	NaN	NaN	NaN	NaN	NaN	NaN
1073.8983073000009	3.4526	sub-15	1	localizer	blank	interval	NaN	NaN	NaN	NaN	NaN	NaN	NaN	NaN	NaN	NaN	NaN	NaN
1077.6519531000004	0.4995	sub-15	1	localizer	stimulus	Katze	NaN	0	2.5353401999991547	NaN	True	NaN	NaN	NaN	NaN	NaN	NaN	NaN
1078.1349750000008	2.5353	sub-15	1	localizer	blank	interval	NaN	NaN	NaN	NaN	NaN	NaN	NaN	NaN	NaN	NaN	NaN	NaN
1080.9714292000008	0.4996	sub-15	1	localizer	stimulus	Schuh	NaN	0	2.118361200000436	NaN	True	NaN	NaN	NaN	NaN	NaN	NaN	NaN
1081.4544661	2.1184	sub-15	1	localizer	blank	interval	NaN	NaN	NaN	NaN	NaN	NaN	NaN	NaN	NaN	NaN	NaN	NaN
1083.8738361000003	0.4994	sub-15	1	localizer	stimulus	Gesicht	NaN	0	2.868929000000435	NaN	True	NaN	NaN	NaN	NaN	NaN	NaN	NaN
1084.3566581000005	2.8689	sub-15	1	localizer	blank	interval	NaN	NaN	NaN	NaN	NaN	NaN	NaN	NaN	NaN	NaN	NaN	NaN
1087.5266745000008	0.4996	sub-15	1	localizer	stimulus	Schuh	NaN	0	2.185061999999789	NaN	True	NaN	NaN	NaN	NaN	NaN	NaN	NaN
1088.0097140000007	2.1851	sub-15	1	localizer	blank	interval	NaN	NaN	NaN	NaN	NaN	NaN	NaN	NaN	NaN	NaN	NaN	NaN
1090.4957943000009	0.4996	sub-15	1	localizer	stimulus	Haus	NaN	180	2.301714199999651	0.6174	True	NaN	NaN	NaN	NaN	NaN	NaN	NaN
1090.9788501000005	2.3017	sub-15	1	localizer	blank	interval	NaN	NaN	NaN	NaN	NaN	NaN	NaN	NaN	NaN	NaN	NaN	NaN
1093.5815177000004	0.4995	sub-15	1	localizer	stimulus	Katze	NaN	0	2.451817400000664	NaN	True	NaN	NaN	NaN	NaN	NaN	NaN	NaN
1094.0644952000002	2.4518	sub-15	1	localizer	blank	interval	NaN	NaN	NaN	NaN	NaN	NaN	NaN	NaN	NaN	NaN	NaN	NaN
1096.8174665000006	0.4995	sub-15	1	localizer	stimulus	Haus	NaN	0	2.6686078000004727	NaN	True	NaN	NaN	NaN	NaN	NaN	NaN	NaN
1097.3005468	2.6686	sub-15	1	localizer	blank	interval	NaN	NaN	NaN	NaN	NaN	NaN	NaN	NaN	NaN	NaN	NaN	NaN
1100.2701992000002	0.4997	sub-15	1	localizer	stimulus	Stuhl	NaN	180	1.8848127000001114	0.5841	True	NaN	NaN	NaN	NaN	NaN	NaN	NaN
