onset	duration	subject	session	condition	trial_type	stim_label	key_down	orientation	interval_time	response_time	accuracy	stim_index	serial_position	key_expected	key_pressed	choice_left	choice_right	choice_correct
1.2481549000003724	1.0524	sub-02	1	instruction	instruction	language_selection	german	NaN	NaN	NaN	NaN	NaN	NaN	NaN	NaN	NaN	NaN	NaN
40.03159359999973	0.4996	sub-02	1	localizer	stimulus	Katze	NaN	180	2.8020307999995566	-8.07730679999895	1.0	NaN	NaN	NaN	NaN	NaN	NaN	NaN
40.51462160000028	2.802	sub-02	1	localizer	blank	interval	NaN	NaN	NaN	NaN	NaN	NaN	NaN	NaN	NaN	NaN	NaN	NaN
43.61784429999989	0.4995	sub-02	1	localizer	stimulus	Haus	NaN	0	2.5851681000003808	NaN	True	NaN	NaN	NaN	NaN	NaN	NaN	NaN
44.10076939999999	2.5852	sub-02	1	localizer	blank	interval	NaN	NaN	NaN	NaN	NaN	NaN	NaN	NaN	NaN	NaN	NaN	NaN
46.987075099999856	0.4996	sub-02	1	localizer	stimulus	Gesicht	NaN	0	2.485203399999591	NaN	True	NaN	NaN	NaN	NaN	NaN	NaN	NaN
47.470058300000346	2.4852	sub-02	1	localizer	blank	interval	NaN	NaN	NaN	NaN	NaN	NaN	NaN	NaN	NaN	NaN	NaN	NaN
50.256640999999945	0.4994	sub-02	1	localizer	stimulus	Gesicht	NaN	0	3.135610799999988	NaN	True	NaN	NaN	NaN	NaN	NaN	NaN	NaN
50.73955070000011	3.1356	sub-02	1	localizer	blank	interval	NaN	NaN	NaN	NaN	NaN	NaN	NaN	NaN	NaN	NaN	NaN	NaN
54.17625690000023	0.4995	sub-02	1	localizer	stimulus	Stuhl	NaN	0	2.301719099999893	-8.173890199998823	False	NaN	NaN	NaN	NaN	NaN	NaN	NaN
54.65918770000008	2.3017	sub-02	1	localizer	blank	interval	NaN	NaN	NaN	NaN	NaN	NaN	NaN	NaN	NaN	NaN	NaN	NaN
57.2620265000005	0.4996	sub-02	1	localizer	stimulus	Stuhl	NaN	180	2.702070100000128	-8.195999099999426	True	NaN	NaN	NaN	NaN	NaN	NaN	NaN
57.74505380000028	2.7021	sub-02	1	localizer	blank	interval	NaN	NaN	NaN	NaN	NaN	NaN	NaN	NaN	NaN	NaN	NaN	NaN
60.74827730000016	0.4996	sub-02	1	localizer	stimulus	Katze	NaN	0	1.984873699999298	NaN	True	NaN	NaN	NaN	NaN	NaN	NaN	NaN
61.231330000000526	1.9849	sub-02	1	localizer	blank	interval	NaN	NaN	NaN	NaN	NaN	NaN	NaN	NaN	NaN	NaN	NaN	NaN
63.51732960000027	0.4993	sub-02	1	localizer	stimulus	Gesicht	NaN	0	2.1182496000001265	NaN	True	NaN	NaN	NaN	NaN	NaN	NaN	NaN
64.0000756999998	2.1182	sub-02	1	localizer	blank	interval	NaN	NaN	NaN	NaN	NaN	NaN	NaN	NaN	NaN	NaN	NaN	NaN
66.41950369999995	0.4995	sub-02	1	localizer	stimulus	Haus	NaN	0	1.8513790000006338	NaN	True	NaN	NaN	NaN	NaN	NaN	NaN	NaN
66.9024817999998	1.8514	sub-02	1	localizer	blank	interval	NaN	NaN	NaN	NaN	NaN	NaN	NaN	NaN	NaN	NaN	NaN	NaN
69.05526160000045	0.4991	sub-02	1	localizer	stimulus	Haus	NaN	0	2.5019245999992563	NaN	True	NaN	NaN	NaN	NaN	NaN	NaN	NaN
69.53790540000045	2.5019	sub-02	1	localizer	blank	interval	NaN	NaN	NaN	NaN	NaN	NaN	NaN	NaN	NaN	NaN	NaN	NaN
72.34104670000033	0.4995	sub-02	1	localizer	stimulus	Stuhl	NaN	0	2.935383300000467	NaN	True	NaN	NaN	NaN	NaN	NaN	NaN	NaN
72.82403109999996	2.9354	sub-02	1	localizer	blank	interval	NaN	NaN	NaN	NaN	NaN	NaN	NaN	NaN	NaN	NaN	NaN	NaN
76.06057750000036	0.4995	sub-02	1	localizer	stimulus	Schuh	NaN	0	3.001818899999307	NaN	True	NaN	NaN	NaN	NaN	NaN	NaN	NaN
76.54396030000044	3.0018	sub-02	1	localizer	blank	interval	NaN	NaN	NaN	NaN	NaN	NaN	NaN	NaN	NaN	NaN	NaN	NaN
79.84709089999978	0.4994	sub-02	1	localizer	stimulus	Schuh	NaN	180	1.8681919999999081	-8.180945400000383	True	NaN	NaN	NaN	NaN	NaN	NaN	NaN
80.32999910000035	1.8682	sub-02	1	localizer	blank	interval	NaN	NaN	NaN	NaN	NaN	NaN	NaN	NaN	NaN	NaN	NaN	NaN
82.49911340000017	0.4996	sub-02	1	localizer	stimulus	Katze	NaN	0	3.202322699999968	NaN	True	NaN	NaN	NaN	NaN	NaN	NaN	NaN
82.98215299999993	3.2023	sub-02	1	localizer	blank	interval	NaN	NaN	NaN	NaN	NaN	NaN	NaN	NaN	NaN	NaN	NaN	NaN
86.48565239999971	0.4994	sub-02	1	localizer	stimulus	Katze	NaN	0	2.9355687999996007	NaN	True	NaN	NaN	NaN	NaN	NaN	NaN	NaN
86.96858880000036	2.9356	sub-02	1	localizer	blank	interval	NaN	NaN	NaN	NaN	NaN	NaN	NaN	NaN	NaN	NaN	NaN	NaN
90.2054936000004	0.4993	sub-02	1	localizer	stimulus	Stuhl	NaN	0	2.4854030000005736	NaN	True	NaN	NaN	NaN	NaN	NaN	NaN	NaN
90.68832449999992	2.4854	sub-02	1	localizer	blank	interval	NaN	NaN	NaN	NaN	NaN	NaN	NaN	NaN	NaN	NaN	NaN	NaN
93.47482289999972	0.4994	sub-02	1	localizer	stimulus	Gesicht	NaN	0	2.7686690000000453	NaN	True	NaN	NaN	NaN	NaN	NaN	NaN	NaN
93.9576704000001	2.7687	sub-02	1	localizer	blank	interval	NaN	NaN	NaN	NaN	NaN	NaN	NaN	NaN	NaN	NaN	NaN	NaN
97.0274902000001	0.4995	sub-02	1	localizer	stimulus	Schuh	NaN	0	2.3018834000004063	NaN	True	NaN	NaN	NaN	NaN	NaN	NaN	NaN
97.51041600000008	2.3019	sub-02	1	localizer	blank	interval	NaN	NaN	NaN	NaN	NaN	NaN	NaN	NaN	NaN	NaN	NaN	NaN
100.11330610000005	0.4995	sub-02	1	localizer	stimulus	Stuhl	NaN	0	2.501447100000405	NaN	True	NaN	NaN	NaN	NaN	NaN	NaN	NaN
100.59681869999986	2.5014	sub-02	1	localizer	blank	interval	NaN	NaN	NaN	NaN	NaN	NaN	NaN	NaN	NaN	NaN	NaN	NaN
103.3993363999998	0.4997	sub-02	1	localizer	stimulus	Haus	NaN	180	1.7846423999999388	-8.237328799999887	True	NaN	NaN	NaN	NaN	NaN	NaN	NaN
103.88236039999992	1.7846	sub-02	1	localizer	blank	interval	NaN	NaN	NaN	NaN	NaN	NaN	NaN	NaN	NaN	NaN	NaN	NaN
105.96801719999984	0.4995	sub-02	1	localizer	stimulus	Katze	NaN	0	1.818131699999853	NaN	True	NaN	NaN	NaN	NaN	NaN	NaN	NaN
106.45093840000028	1.8181	sub-02	1	localizer	blank	interval	NaN	NaN	NaN	NaN	NaN	NaN	NaN	NaN	NaN	NaN	NaN	NaN
108.57018830000015	0.4994	sub-02	1	localizer	stimulus	Schuh	NaN	0	1.9181228000006598	NaN	True	NaN	NaN	NaN	NaN	NaN	NaN	NaN
109.0530915999998	1.9181	sub-02	1	localizer	blank	interval	NaN	NaN	NaN	NaN	NaN	NaN	NaN	NaN	NaN	NaN	NaN	NaN
111.27252060000046	0.4994	sub-02	1	localizer	stimulus	Haus	NaN	0	1.5678130999995261	NaN	True	NaN	NaN	NaN	NaN	NaN	NaN	NaN
111.75543430000016	1.5678	sub-02	1	localizer	blank	interval	NaN	NaN	NaN	NaN	NaN	NaN	NaN	NaN	NaN	NaN	NaN	NaN
113.62452099999972	0.4993	sub-02	1	localizer	stimulus	Schuh	NaN	0	2.5518425999998584	NaN	True	NaN	NaN	NaN	NaN	NaN	NaN	NaN
114.1072707000003	2.5518	sub-02	1	localizer	blank	interval	NaN	NaN	NaN	NaN	NaN	NaN	NaN	NaN	NaN	NaN	NaN	NaN
116.96026340000026	0.4995	sub-02	1	localizer	stimulus	Gesicht	NaN	180	2.2182982999993186	-8.142393599999195	True	NaN	NaN	NaN	NaN	NaN	NaN	NaN
117.44320440000048	2.2183	sub-02	1	localizer	blank	interval	NaN	NaN	NaN	NaN	NaN	NaN	NaN	NaN	NaN	NaN	NaN	NaN
123.14805129999968	1.0006	sub-02	1	sequence	cue	Stuhl	NaN	NaN	NaN	NaN	NaN	NaN	NaN	NaN	NaN	NaN	NaN	NaN
124.1486175	2.0017	sub-02	1	sequence	blank	blank	NaN	NaN	NaN	NaN	NaN	NaN	NaN	NaN	NaN	NaN	NaN	NaN
126.15030500000012	0.3002	sub-02	1	sequence	fixation	dot	NaN	NaN	NaN	NaN	NaN	NaN	NaN	NaN	NaN	NaN	NaN	NaN
126.51565159999971	0.1016	sub-02	1	sequence	stimulus	Katze	NaN	NaN	128.0	NaN	NaN	3.0	1.0	NaN	NaN	NaN	NaN	NaN
126.61728560000029	0.1335	sub-02	1	sequence	interval	dot	NaN	NaN	NaN	NaN	NaN	NaN	NaN	NaN	NaN	NaN	NaN	NaN
126.75082720000046	0.0999	sub-02	1	sequence	stimulus	Haus	NaN	NaN	128.0	NaN	NaN	2.0	2.0	NaN	NaN	NaN	NaN	NaN
126.85073050000028	0.1337	sub-02	1	sequence	interval	dot	NaN	NaN	NaN	NaN	NaN	NaN	NaN	NaN	NaN	NaN	NaN	NaN
126.98444829999973	0.0998	sub-02	1	sequence	stimulus	Stuhl	NaN	NaN	128.0	NaN	NaN	5.0	3.0	NaN	NaN	NaN	NaN	NaN
127.0842760000005	0.1336	sub-02	1	sequence	interval	dot	NaN	NaN	NaN	NaN	NaN	NaN	NaN	NaN	NaN	NaN	NaN	NaN
127.21790030000012	0.0999	sub-02	1	sequence	stimulus	Schuh	NaN	NaN	128.0	NaN	NaN	4.0	4.0	NaN	NaN	NaN	NaN	NaN
127.31783390000056	0.1336	sub-02	1	sequence	interval	dot	NaN	NaN	NaN	NaN	NaN	NaN	NaN	NaN	NaN	NaN	NaN	NaN
127.45140080000056	0.0999	sub-02	1	sequence	stimulus	Gesicht	NaN	NaN	128.0	NaN	NaN	1.0	5.0	NaN	NaN	NaN	NaN	NaN
127.55131950000032	0.1334	sub-02	1	sequence	interval	dot	NaN	NaN	NaN	NaN	NaN	NaN	NaN	NaN	NaN	NaN	NaN	NaN
127.68476600000032	8.0547	sub-02	1	sequence	delay	dot	NaN	NaN	NaN	NaN	NaN	NaN	NaN	NaN	NaN	NaN	NaN	NaN
135.7252079	1.4843	sub-02	1	sequence	choice	choice	left	NaN	NaN	-7.353294599999572	True	NaN	NaN	left	1.0	3.0	5.0	3.0
137.20985259999998	0.4998	sub-02	1	sequence	feedback	NaN	NaN	NaN	NaN	NaN	NaN	NaN	NaN	NaN	NaN	NaN	NaN	NaN
137.70983630000046	1.0004	sub-02	1	sequence	cue	Katze	NaN	NaN	NaN	NaN	NaN	NaN	NaN	NaN	NaN	NaN	NaN	NaN
138.71029210000052	2.0016	sub-02	1	sequence	blank	blank	NaN	NaN	NaN	NaN	NaN	NaN	NaN	NaN	NaN	NaN	NaN	NaN
140.7118644000002	0.3004	sub-02	1	sequence	fixation	dot	NaN	NaN	NaN	NaN	NaN	NaN	NaN	NaN	NaN	NaN	NaN	NaN
141.03010880000056	0.1154	sub-02	1	sequence	stimulus	Schuh	NaN	NaN	64.0	NaN	NaN	4.0	1.0	NaN	NaN	NaN	NaN	NaN
141.14552150000054	0.0668	sub-02	1	sequence	interval	dot	NaN	NaN	NaN	NaN	NaN	NaN	NaN	NaN	NaN	NaN	NaN	NaN
141.21234819999972	0.1	sub-02	1	sequence	stimulus	Stuhl	NaN	NaN	64.0	NaN	NaN	5.0	2.0	NaN	NaN	NaN	NaN	NaN
141.31231149999985	0.0668	sub-02	1	sequence	interval	dot	NaN	NaN	NaN	NaN	NaN	NaN	NaN	NaN	NaN	NaN	NaN	NaN
141.3791523	0.1	sub-02	1	sequence	stimulus	Gesicht	NaN	NaN	64.0	NaN	NaN	1.0	3.0	NaN	NaN	NaN	NaN	NaN
141.47911209999984	0.0669	sub-02	1	sequence	interval	dot	NaN	NaN	NaN	NaN	NaN	NaN	NaN	NaN	NaN	NaN	NaN	NaN
141.54601600000024	0.1	sub-02	1	sequence	stimulus	Haus	NaN	NaN	64.0	NaN	NaN	2.0	4.0	NaN	NaN	NaN	NaN	NaN
141.64598320000005	0.0668	sub-02	1	sequence	interval	dot	NaN	NaN	NaN	NaN	NaN	NaN	NaN	NaN	NaN	NaN	NaN	NaN
141.7127962000004	0.1	sub-02	1	sequence	stimulus	Katze	NaN	NaN	64.0	NaN	NaN	3.0	5.0	NaN	NaN	NaN	NaN	NaN
141.81276049999997	0.0667	sub-02	1	sequence	interval	dot	NaN	NaN	NaN	NaN	NaN	NaN	NaN	NaN	NaN	NaN	NaN	NaN
141.87943240000004	8.3717	sub-02	1	sequence	delay	dot	NaN	NaN	NaN	NaN	NaN	NaN	NaN	NaN	NaN	NaN	NaN	NaN
150.23279530000036	0.9883	sub-02	1	sequence	choice	choice	left	NaN	NaN	-7.848970299999564	True	NaN	NaN	left	True	5.0	4.0	5.0
151.22141420000025	0.4998	sub-02	1	sequence	feedback	NaN	NaN	NaN	NaN	NaN	NaN	NaN	NaN	NaN	NaN	NaN	NaN	NaN
151.72146770000018	1.0002	sub-02	1	sequence	cue	Haus	NaN	NaN	NaN	NaN	NaN	NaN	NaN	NaN	NaN	NaN	NaN	NaN
152.72164770000018	2.0016	sub-02	1	sequence	blank	blank	NaN	NaN	NaN	NaN	NaN	NaN	NaN	NaN	NaN	NaN	NaN	NaN
154.72320670000045	0.3001	sub-02	1	sequence	fixation	dot	NaN	NaN	NaN	NaN	NaN	NaN	NaN	NaN	NaN	NaN	NaN	NaN
155.04105640000034	0.0993	sub-02	1	sequence	stimulus	Schuh	NaN	NaN	32.0	NaN	NaN	4.0	1.0	NaN	NaN	NaN	NaN	NaN
155.14037590000044	0.0335	sub-02	1	sequence	interval	dot	NaN	NaN	NaN	NaN	NaN	NaN	NaN	NaN	NaN	NaN	NaN	NaN
155.17386780000015	0.0997	sub-02	1	sequence	stimulus	Stuhl	NaN	NaN	32.0	NaN	NaN	5.0	2.0	NaN	NaN	NaN	NaN	NaN
155.27361199999996	0.0336	sub-02	1	sequence	interval	dot	NaN	NaN	NaN	NaN	NaN	NaN	NaN	NaN	NaN	NaN	NaN	NaN
155.3072358999998	0.0998	sub-02	1	sequence	stimulus	Katze	NaN	NaN	32.0	NaN	NaN	3.0	3.0	NaN	NaN	NaN	NaN	NaN
155.40703500000018	0.0335	sub-02	1	sequence	interval	dot	NaN	NaN	NaN	NaN	NaN	NaN	NaN	NaN	NaN	NaN	NaN	NaN
155.4404899000001	0.1	sub-02	1	sequence	stimulus	Gesicht	NaN	NaN	32.0	NaN	NaN	1.0	4.0	NaN	NaN	NaN	NaN	NaN
155.54046389999985	0.0336	sub-02	1	sequence	interval	dot	NaN	NaN	NaN	NaN	NaN	NaN	NaN	NaN	NaN	NaN	NaN	NaN
155.57406460000038	0.0998	sub-02	1	sequence	stimulus	Haus	NaN	NaN	32.0	NaN	NaN	2.0	5.0	NaN	NaN	NaN	NaN	NaN
155.67388310000024	0.0334	sub-02	1	sequence	interval	dot	NaN	NaN	NaN	NaN	NaN	NaN	NaN	NaN	NaN	NaN	NaN	NaN
155.70728270000018	8.5387	sub-02	1	sequence	delay	dot	NaN	NaN	NaN	NaN	NaN	NaN	NaN	NaN	NaN	NaN	NaN	NaN
164.22047199999997	0.9785	sub-02	1	sequence	choice	choice	right	NaN	NaN	-7.875630599999567	True	NaN	NaN	right	True	3.0	5.0	5.0
165.19925109999986	0.4998	sub-02	1	sequence	feedback	NaN	NaN	NaN	NaN	NaN	NaN	NaN	NaN	NaN	NaN	NaN	NaN	NaN
165.69930060000024	1.0004	sub-02	1	sequence	cue	Stuhl	NaN	NaN	NaN	NaN	NaN	NaN	NaN	NaN	NaN	NaN	NaN	NaN
166.69974749999983	2.0015	sub-02	1	sequence	blank	blank	NaN	NaN	NaN	NaN	NaN	NaN	NaN	NaN	NaN	NaN	NaN	NaN
168.70120450000013	0.3003	sub-02	1	sequence	fixation	dot	NaN	NaN	NaN	NaN	NaN	NaN	NaN	NaN	NaN	NaN	NaN	NaN
169.01967330000025	0.1152	sub-02	1	sequence	stimulus	Katze	NaN	NaN	64.0	NaN	NaN	3.0	1.0	NaN	NaN	NaN	NaN	NaN
169.13482380000005	0.0669	sub-02	1	sequence	interval	dot	NaN	NaN	NaN	NaN	NaN	NaN	NaN	NaN	NaN	NaN	NaN	NaN
169.2016996000002	0.0999	sub-02	1	sequence	stimulus	Gesicht	NaN	NaN	64.0	NaN	NaN	1.0	2.0	NaN	NaN	NaN	NaN	NaN
169.30164500000046	0.0669	sub-02	1	sequence	interval	dot	NaN	NaN	NaN	NaN	NaN	NaN	NaN	NaN	NaN	NaN	NaN	NaN
169.36853260000044	0.0998	sub-02	1	sequence	stimulus	Haus	NaN	NaN	64.0	NaN	NaN	2.0	3.0	NaN	NaN	NaN	NaN	NaN
169.46836020000046	0.067	sub-02	1	sequence	interval	dot	NaN	NaN	NaN	NaN	NaN	NaN	NaN	NaN	NaN	NaN	NaN	NaN
169.53531440000006	0.0999	sub-02	1	sequence	stimulus	Schuh	NaN	NaN	64.0	NaN	NaN	4.0	4.0	NaN	NaN	NaN	NaN	NaN
169.63523580000037	0.0669	sub-02	1	sequence	interval	dot	NaN	NaN	NaN	NaN	NaN	NaN	NaN	NaN	NaN	NaN	NaN	NaN
169.70210320000024	0.0999	sub-02	1	sequence	stimulus	Stuhl	NaN	NaN	64.0	NaN	NaN	5.0	5.0	NaN	NaN	NaN	NaN	NaN
169.80204630000026	0.0666	sub-02	1	sequence	interval	dot	NaN	NaN	NaN	NaN	NaN	NaN	NaN	NaN	NaN	NaN	NaN	NaN
169.8686729000001	8.3887	sub-02	1	sequence	delay	dot	NaN	NaN	NaN	NaN	NaN	NaN	NaN	NaN	NaN	NaN	NaN	NaN
178.2342391000002	0.7758	sub-02	1	sequence	choice	choice	left	NaN	NaN	-8.063410499999009	True	NaN	NaN	left	True	5.0	4.0	5.0
179.01034479999998	0.4999	sub-02	1	sequence	feedback	NaN	NaN	NaN	NaN	NaN	NaN	NaN	NaN	NaN	NaN	NaN	NaN	NaN
179.5104454000002	1.0002	sub-02	1	sequence	cue	Katze	NaN	NaN	NaN	NaN	NaN	NaN	NaN	NaN	NaN	NaN	NaN	NaN
180.5106726000004	2.0016	sub-02	1	sequence	blank	blank	NaN	NaN	NaN	NaN	NaN	NaN	NaN	NaN	NaN	NaN	NaN	NaN
182.5122770999997	0.3003	sub-02	1	sequence	fixation	dot	NaN	NaN	NaN	NaN	NaN	NaN	NaN	NaN	NaN	NaN	NaN	NaN
182.8449231000004	0.101	sub-02	1	sequence	stimulus	Stuhl	NaN	NaN	32.0	NaN	NaN	5.0	1.0	NaN	NaN	NaN	NaN	NaN
182.94592749999995	0.0336	sub-02	1	sequence	interval	dot	NaN	NaN	NaN	NaN	NaN	NaN	NaN	NaN	NaN	NaN	NaN	NaN
182.97950440000025	0.0998	sub-02	1	sequence	stimulus	Gesicht	NaN	NaN	32.0	NaN	NaN	1.0	2.0	NaN	NaN	NaN	NaN	NaN
183.0793418000003	0.0336	sub-02	1	sequence	interval	dot	NaN	NaN	NaN	NaN	NaN	NaN	NaN	NaN	NaN	NaN	NaN	NaN
183.1129744	0.0999	sub-02	1	sequence	stimulus	Katze	NaN	NaN	32.0	NaN	NaN	3.0	3.0	NaN	NaN	NaN	NaN	NaN
183.21282620000056	0.0335	sub-02	1	sequence	interval	dot	NaN	NaN	NaN	NaN	NaN	NaN	NaN	NaN	NaN	NaN	NaN	NaN
183.24629269999969	0.1001	sub-02	1	sequence	stimulus	Schuh	NaN	NaN	32.0	NaN	NaN	4.0	4.0	NaN	NaN	NaN	NaN	NaN
183.34634410000035	0.0335	sub-02	1	sequence	interval	dot	NaN	NaN	NaN	NaN	NaN	NaN	NaN	NaN	NaN	NaN	NaN	NaN
183.3798557	0.0999	sub-02	1	sequence	stimulus	Haus	NaN	NaN	32.0	NaN	NaN	2.0	5.0	NaN	NaN	NaN	NaN	NaN
183.4797238000001	0.0334	sub-02	1	sequence	interval	dot	NaN	NaN	NaN	NaN	NaN	NaN	NaN	NaN	NaN	NaN	NaN	NaN
183.5131677999998	8.5387	sub-02	1	sequence	delay	dot	NaN	NaN	NaN	NaN	NaN	NaN	NaN	NaN	NaN	NaN	NaN	NaN
192.03982879999967	0.865	sub-02	1	sequence	choice	choice	right	NaN	NaN	-7.961470600000212	False	NaN	NaN	left	True	3.0	4.0	3.0
192.9050772999999	0.4998	sub-02	1	sequence	feedback	NaN	NaN	NaN	NaN	NaN	NaN	NaN	NaN	NaN	NaN	NaN	NaN	NaN
193.4051645999998	1.0002	sub-02	1	sequence	cue	Gesicht	NaN	NaN	NaN	NaN	NaN	NaN	NaN	NaN	NaN	NaN	NaN	NaN
194.4054084999998	2.0015	sub-02	1	sequence	blank	blank	NaN	NaN	NaN	NaN	NaN	NaN	NaN	NaN	NaN	NaN	NaN	NaN
196.40687640000036	0.3003	sub-02	1	sequence	fixation	dot	NaN	NaN	NaN	NaN	NaN	NaN	NaN	NaN	NaN	NaN	NaN	NaN
196.7255657000005	0.1149	sub-02	1	sequence	stimulus	Stuhl	NaN	NaN	512.0	NaN	NaN	5.0	1.0	NaN	NaN	NaN	NaN	NaN
196.8404439000005	0.5173	sub-02	1	sequence	interval	dot	NaN	NaN	NaN	NaN	NaN	NaN	NaN	NaN	NaN	NaN	NaN	NaN
197.3577519999999	0.1	sub-02	1	sequence	stimulus	Schuh	NaN	NaN	512.0	NaN	NaN	4.0	2.0	NaN	NaN	NaN	NaN	NaN
197.4577406999997	0.5173	sub-02	1	sequence	interval	dot	NaN	NaN	NaN	NaN	NaN	NaN	NaN	NaN	NaN	NaN	NaN	NaN
197.97500339999988	0.0998	sub-02	1	sequence	stimulus	Gesicht	NaN	NaN	512.0	NaN	NaN	1.0	3.0	NaN	NaN	NaN	NaN	NaN
198.0747719000001	0.5173	sub-02	1	sequence	interval	dot	NaN	NaN	NaN	NaN	NaN	NaN	NaN	NaN	NaN	NaN	NaN	NaN
198.5920339000004	0.0999	sub-02	1	sequence	stimulus	Haus	NaN	NaN	512.0	NaN	NaN	2.0	4.0	NaN	NaN	NaN	NaN	NaN
198.6919297000004	0.5172	sub-02	1	sequence	interval	dot	NaN	NaN	NaN	NaN	NaN	NaN	NaN	NaN	NaN	NaN	NaN	NaN
199.20913389999987	0.1001	sub-02	1	sequence	stimulus	Katze	NaN	NaN	512.0	NaN	NaN	3.0	5.0	NaN	NaN	NaN	NaN	NaN
199.3092205000003	0.517	sub-02	1	sequence	interval	dot	NaN	NaN	NaN	NaN	NaN	NaN	NaN	NaN	NaN	NaN	NaN	NaN
199.8261908000004	6.1367	sub-02	1	sequence	delay	dot	NaN	NaN	NaN	NaN	NaN	NaN	NaN	NaN	NaN	NaN	NaN	NaN
205.9495757000004	1.1833	sub-02	1	sequence	choice	choice	left	NaN	NaN	-7.656510999999227	False	NaN	NaN	right	True	2.0	3.0	3.0
207.13314660000012	0.4998	sub-02	1	sequence	feedback	NaN	NaN	NaN	NaN	NaN	NaN	NaN	NaN	NaN	NaN	NaN	NaN	NaN
207.6332468999999	1.0003	sub-02	1	sequence	cue	Gesicht	NaN	NaN	NaN	NaN	NaN	NaN	NaN	NaN	NaN	NaN	NaN	NaN
208.63360040000043	2.0014	sub-02	1	sequence	blank	blank	NaN	NaN	NaN	NaN	NaN	NaN	NaN	NaN	NaN	NaN	NaN	NaN
210.6350463999997	0.3001	sub-02	1	sequence	fixation	dot	NaN	NaN	NaN	NaN	NaN	NaN	NaN	NaN	NaN	NaN	NaN	NaN
210.9536091	0.1154	sub-02	1	sequence	stimulus	Stuhl	NaN	NaN	128.0	NaN	NaN	5.0	1.0	NaN	NaN	NaN	NaN	NaN
211.0689988000004	0.1333	sub-02	1	sequence	interval	dot	NaN	NaN	NaN	NaN	NaN	NaN	NaN	NaN	NaN	NaN	NaN	NaN
211.20234400000027	0.1	sub-02	1	sequence	stimulus	Schuh	NaN	NaN	128.0	NaN	NaN	4.0	2.0	NaN	NaN	NaN	NaN	NaN
211.3022977999999	0.1336	sub-02	1	sequence	interval	dot	NaN	NaN	NaN	NaN	NaN	NaN	NaN	NaN	NaN	NaN	NaN	NaN
211.4358687000004	0.0999	sub-02	1	sequence	stimulus	Gesicht	NaN	NaN	128.0	NaN	NaN	1.0	3.0	NaN	NaN	NaN	NaN	NaN
211.53579140000056	0.1336	sub-02	1	sequence	interval	dot	NaN	NaN	NaN	NaN	NaN	NaN	NaN	NaN	NaN	NaN	NaN	NaN
211.66939850000017	0.1	sub-02	1	sequence	stimulus	Katze	NaN	NaN	128.0	NaN	NaN	3.0	4.0	NaN	NaN	NaN	NaN	NaN
211.76940699999977	0.1335	sub-02	1	sequence	interval	dot	NaN	NaN	NaN	NaN	NaN	NaN	NaN	NaN	NaN	NaN	NaN	NaN
211.90293209999984	0.0998	sub-02	1	sequence	stimulus	Haus	NaN	NaN	128.0	NaN	NaN	2.0	5.0	NaN	NaN	NaN	NaN	NaN
212.00276500000015	0.1335	sub-02	1	sequence	interval	dot	NaN	NaN	NaN	NaN	NaN	NaN	NaN	NaN	NaN	NaN	NaN	NaN
212.13621599999988	8.0549	sub-02	1	sequence	delay	dot	NaN	NaN	NaN	NaN	NaN	NaN	NaN	NaN	NaN	NaN	NaN	NaN
220.17130290000023	0.7893	sub-02	1	sequence	choice	choice	right	NaN	NaN	-8.04475309999998	True	NaN	NaN	right	True	5.0	3.0	3.0
220.96092270000008	0.4999	sub-02	1	sequence	feedback	NaN	NaN	NaN	NaN	NaN	NaN	NaN	NaN	NaN	NaN	NaN	NaN	NaN
221.46105400000036	1.0002	sub-02	1	sequence	cue	Schuh	NaN	NaN	NaN	NaN	NaN	NaN	NaN	NaN	NaN	NaN	NaN	NaN
222.4612991000004	2.0016	sub-02	1	sequence	blank	blank	NaN	NaN	NaN	NaN	NaN	NaN	NaN	NaN	NaN	NaN	NaN	NaN
224.46287870000012	0.3002	sub-02	1	sequence	fixation	dot	NaN	NaN	NaN	NaN	NaN	NaN	NaN	NaN	NaN	NaN	NaN	NaN
224.7806642000005	0.0992	sub-02	1	sequence	stimulus	Gesicht	NaN	NaN	512.0	NaN	NaN	1.0	1.0	NaN	NaN	NaN	NaN	NaN
224.8798896999997	0.5173	sub-02	1	sequence	interval	dot	NaN	NaN	NaN	NaN	NaN	NaN	NaN	NaN	NaN	NaN	NaN	NaN
225.39715030000025	0.0999	sub-02	1	sequence	stimulus	Schuh	NaN	NaN	512.0	NaN	NaN	4.0	2.0	NaN	NaN	NaN	NaN	NaN
225.4970647	0.5172	sub-02	1	sequence	interval	dot	NaN	NaN	NaN	NaN	NaN	NaN	NaN	NaN	NaN	NaN	NaN	NaN
226.0143125000004	0.1	sub-02	1	sequence	stimulus	Katze	NaN	NaN	512.0	NaN	NaN	3.0	3.0	NaN	NaN	NaN	NaN	NaN
226.1142695999997	0.5171	sub-02	1	sequence	interval	dot	NaN	NaN	NaN	NaN	NaN	NaN	NaN	NaN	NaN	NaN	NaN	NaN
226.63141410000023	0.1	sub-02	1	sequence	stimulus	Stuhl	NaN	NaN	512.0	NaN	NaN	5.0	4.0	NaN	NaN	NaN	NaN	NaN
226.73137049999968	0.5173	sub-02	1	sequence	interval	dot	NaN	NaN	NaN	NaN	NaN	NaN	NaN	NaN	NaN	NaN	NaN	NaN
227.24862790000043	0.1	sub-02	1	sequence	stimulus	Haus	NaN	NaN	512.0	NaN	NaN	2.0	5.0	NaN	NaN	NaN	NaN	NaN
227.3486236999997	0.5171	sub-02	1	sequence	interval	dot	NaN	NaN	NaN	NaN	NaN	NaN	NaN	NaN	NaN	NaN	NaN	NaN
227.86571120000008	6.1533	sub-02	1	sequence	delay	dot	NaN	NaN	NaN	NaN	NaN	NaN	NaN	NaN	NaN	NaN	NaN	NaN
234.00302120000012	0.9024	sub-02	1	sequence	choice	choice	right	NaN	NaN	-7.936885000000075	True	NaN	NaN	right	True	5.0	2.0	2.0
234.90573610000047	0.5	sub-02	1	sequence	feedback	NaN	NaN	NaN	NaN	NaN	NaN	NaN	NaN	NaN	NaN	NaN	NaN	NaN
239.22566770000049	0.4995	sub-02	1	localizer	stimulus	Katze	NaN	180	2.6019549000002655	NaN	False	NaN	NaN	NaN	NaN	NaN	NaN	NaN
239.7085833000001	2.602	sub-02	1	localizer	blank	interval	NaN	NaN	NaN	NaN	NaN	NaN	NaN	NaN	NaN	NaN	NaN	NaN
242.6116738000001	0.4995	sub-02	1	localizer	stimulus	Haus	NaN	0	2.7687300999996296	NaN	True	NaN	NaN	NaN	NaN	NaN	NaN	NaN
243.09462970000004	2.7687	sub-02	1	localizer	blank	interval	NaN	NaN	NaN	NaN	NaN	NaN	NaN	NaN	NaN	NaN	NaN	NaN
246.1645343	0.4996	sub-02	1	localizer	stimulus	Stuhl	NaN	0	2.802383400000508	NaN	True	NaN	NaN	NaN	NaN	NaN	NaN	NaN
246.6474417999998	2.8024	sub-02	1	localizer	blank	interval	NaN	NaN	NaN	NaN	NaN	NaN	NaN	NaN	NaN	NaN	NaN	NaN
249.75077789999975	0.4997	sub-02	1	localizer	stimulus	Stuhl	NaN	0	2.818913000000066	NaN	True	NaN	NaN	NaN	NaN	NaN	NaN	NaN
250.23386980000032	2.8189	sub-02	1	localizer	blank	interval	NaN	NaN	NaN	NaN	NaN	NaN	NaN	NaN	NaN	NaN	NaN	NaN
253.35366909999996	0.4996	sub-02	1	localizer	stimulus	Haus	NaN	0	2.985519400000186	NaN	True	NaN	NaN	NaN	NaN	NaN	NaN	NaN
253.83674119999975	2.9855	sub-02	1	localizer	blank	interval	NaN	NaN	NaN	NaN	NaN	NaN	NaN	NaN	NaN	NaN	NaN	NaN
257.12343520000013	0.4994	sub-02	1	localizer	stimulus	Haus	NaN	180	2.7188397999998415	-8.201302099999339	True	NaN	NaN	NaN	NaN	NaN	NaN	NaN
257.60631620000004	2.7188	sub-02	1	localizer	blank	interval	NaN	NaN	NaN	NaN	NaN	NaN	NaN	NaN	NaN	NaN	NaN	NaN
260.6262538000001	0.4994	sub-02	1	localizer	stimulus	Schuh	NaN	0	2.23494380000011	NaN	True	NaN	NaN	NaN	NaN	NaN	NaN	NaN
261.10932909999974	2.2349	sub-02	1	localizer	blank	interval	NaN	NaN	NaN	NaN	NaN	NaN	NaN	NaN	NaN	NaN	NaN	NaN
263.6453425	0.4996	sub-02	1	localizer	stimulus	Stuhl	NaN	180	2.6353022000002966	-8.187894400000005	True	NaN	NaN	NaN	NaN	NaN	NaN	NaN
264.1283566000002	2.6353	sub-02	1	localizer	blank	interval	NaN	NaN	NaN	NaN	NaN	NaN	NaN	NaN	NaN	NaN	NaN	NaN
267.0647170000002	0.4995	sub-02	1	localizer	stimulus	Gesicht	NaN	0	3.3861043999995672	NaN	True	NaN	NaN	NaN	NaN	NaN	NaN	NaN
267.54765620000035	3.3861	sub-02	1	localizer	blank	interval	NaN	NaN	NaN	NaN	NaN	NaN	NaN	NaN	NaN	NaN	NaN	NaN
271.2349314000003	0.4995	sub-02	1	localizer	stimulus	Stuhl	NaN	0	1.9348024999999893	NaN	True	NaN	NaN	NaN	NaN	NaN	NaN	NaN
271.7179065	1.9348	sub-02	1	localizer	blank	interval	NaN	NaN	NaN	NaN	NaN	NaN	NaN	NaN	NaN	NaN	NaN	NaN
273.9536506000004	0.4997	sub-02	1	localizer	stimulus	Katze	NaN	0	2.7187105000002703	NaN	True	NaN	NaN	NaN	NaN	NaN	NaN	NaN
274.4366361000002	2.7187	sub-02	1	localizer	blank	interval	NaN	NaN	NaN	NaN	NaN	NaN	NaN	NaN	NaN	NaN	NaN	NaN
277.4564859000002	0.4994	sub-02	1	localizer	stimulus	Gesicht	NaN	0	2.6520197999998345	NaN	True	NaN	NaN	NaN	NaN	NaN	NaN	NaN
277.9395002000001	2.652	sub-02	1	localizer	blank	interval	NaN	NaN	NaN	NaN	NaN	NaN	NaN	NaN	NaN	NaN	NaN	NaN
280.8925314999997	0.4996	sub-02	1	localizer	stimulus	Schuh	NaN	180	1.4509986000002755	-8.298746999999821	True	NaN	NaN	NaN	NaN	NaN	NaN	NaN
281.3755030000002	1.451	sub-02	1	localizer	blank	interval	NaN	NaN	NaN	NaN	NaN	NaN	NaN	NaN	NaN	NaN	NaN	NaN
283.12768909999977	0.4995	sub-02	1	localizer	stimulus	Katze	NaN	0	2.6687647999996784	NaN	True	NaN	NaN	NaN	NaN	NaN	NaN	NaN
283.6106065000004	2.6688	sub-02	1	localizer	blank	interval	NaN	NaN	NaN	NaN	NaN	NaN	NaN	NaN	NaN	NaN	NaN	NaN
286.5804697000003	0.4996	sub-02	1	localizer	stimulus	Stuhl	NaN	0	2.10153580000042	NaN	True	NaN	NaN	NaN	NaN	NaN	NaN	NaN
287.0635487999998	2.1015	sub-02	1	localizer	blank	interval	NaN	NaN	NaN	NaN	NaN	NaN	NaN	NaN	NaN	NaN	NaN	NaN
289.46633720000045	0.4994	sub-02	1	localizer	stimulus	Schuh	NaN	0	2.4353635999996186	NaN	True	NaN	NaN	NaN	NaN	NaN	NaN	NaN
289.9490278000003	2.4354	sub-02	1	localizer	blank	interval	NaN	NaN	NaN	NaN	NaN	NaN	NaN	NaN	NaN	NaN	NaN	NaN
292.6856300999998	0.4995	sub-02	1	localizer	stimulus	Haus	NaN	0	3.4022961999999097	NaN	True	NaN	NaN	NaN	NaN	NaN	NaN	NaN
293.16880279999987	3.4023	sub-02	1	localizer	blank	interval	NaN	NaN	NaN	NaN	NaN	NaN	NaN	NaN	NaN	NaN	NaN	NaN
296.8721459999997	0.4996	sub-02	1	localizer	stimulus	Gesicht	NaN	0	2.30179599999974	NaN	True	NaN	NaN	NaN	NaN	NaN	NaN	NaN
297.3551021000003	2.3018	sub-02	1	localizer	blank	interval	NaN	NaN	NaN	NaN	NaN	NaN	NaN	NaN	NaN	NaN	NaN	NaN
299.95796130000053	0.4994	sub-02	1	localizer	stimulus	Haus	NaN	0	2.285023899999942	NaN	True	NaN	NaN	NaN	NaN	NaN	NaN	NaN
300.4408671000001	2.285	sub-02	1	localizer	blank	interval	NaN	NaN	NaN	NaN	NaN	NaN	NaN	NaN	NaN	NaN	NaN	NaN
303.0270860999999	0.4996	sub-02	1	localizer	stimulus	Katze	NaN	0	2.118068800000401	NaN	True	NaN	NaN	NaN	NaN	NaN	NaN	NaN
303.5101764000001	2.1181	sub-02	1	localizer	blank	interval	NaN	NaN	NaN	NaN	NaN	NaN	NaN	NaN	NaN	NaN	NaN	NaN
305.9294372000004	0.4996	sub-02	1	localizer	stimulus	Katze	NaN	0	2.201597300000742	NaN	True	NaN	NaN	NaN	NaN	NaN	NaN	NaN
306.4124291999997	2.2016	sub-02	1	localizer	blank	interval	NaN	NaN	NaN	NaN	NaN	NaN	NaN	NaN	NaN	NaN	NaN	NaN
308.9152032000002	0.4995	sub-02	1	localizer	stimulus	Schuh	NaN	0	2.819004099999802	NaN	True	NaN	NaN	NaN	NaN	NaN	NaN	NaN
309.39822809999987	2.819	sub-02	1	localizer	blank	interval	NaN	NaN	NaN	NaN	NaN	NaN	NaN	NaN	NaN	NaN	NaN	NaN
312.5182829000005	0.4995	sub-02	1	localizer	stimulus	Schuh	NaN	0	2.5020071999997526	NaN	True	NaN	NaN	NaN	NaN	NaN	NaN	NaN
313.0012880000004	2.502	sub-02	1	localizer	blank	interval	NaN	NaN	NaN	NaN	NaN	NaN	NaN	NaN	NaN	NaN	NaN	NaN
315.80424550000043	0.4994	sub-02	1	localizer	stimulus	Gesicht	NaN	0	2.802116599999863	NaN	True	NaN	NaN	NaN	NaN	NaN	NaN	NaN
316.2871774000005	2.8021	sub-02	1	localizer	blank	interval	NaN	NaN	NaN	NaN	NaN	NaN	NaN	NaN	NaN	NaN	NaN	NaN
319.39031179999984	0.4999	sub-02	1	localizer	stimulus	Gesicht	NaN	180	1.8345890999999028	-8.196482599999399	True	NaN	NaN	NaN	NaN	NaN	NaN	NaN
319.8734196000005	1.8346	sub-02	1	localizer	blank	interval	NaN	NaN	NaN	NaN	NaN	NaN	NaN	NaN	NaN	NaN	NaN	NaN
325.1943621999999	1.0005	sub-02	1	sequence	cue	Stuhl	NaN	NaN	NaN	NaN	NaN	NaN	NaN	NaN	NaN	NaN	NaN	NaN
326.19490289999976	2.0017	sub-02	1	sequence	blank	blank	NaN	NaN	NaN	NaN	NaN	NaN	NaN	NaN	NaN	NaN	NaN	NaN
328.19662680000056	0.3003	sub-02	1	sequence	fixation	dot	NaN	NaN	NaN	NaN	NaN	NaN	NaN	NaN	NaN	NaN	NaN	NaN
328.5143361999999	0.0993	sub-02	1	sequence	stimulus	Katze	NaN	NaN	64.0	NaN	NaN	3.0	1.0	NaN	NaN	NaN	NaN	NaN
328.6136623000002	0.0669	sub-02	1	sequence	interval	dot	NaN	NaN	NaN	NaN	NaN	NaN	NaN	NaN	NaN	NaN	NaN	NaN
328.6805279	0.0999	sub-02	1	sequence	stimulus	Gesicht	NaN	NaN	64.0	NaN	NaN	1.0	2.0	NaN	NaN	NaN	NaN	NaN
328.78045100000054	0.0668	sub-02	1	sequence	interval	dot	NaN	NaN	NaN	NaN	NaN	NaN	NaN	NaN	NaN	NaN	NaN	NaN
328.8472978	0.1	sub-02	1	sequence	stimulus	Haus	NaN	NaN	64.0	NaN	NaN	2.0	3.0	NaN	NaN	NaN	NaN	NaN
328.94725500000004	0.0668	sub-02	1	sequence	interval	dot	NaN	NaN	NaN	NaN	NaN	NaN	NaN	NaN	NaN	NaN	NaN	NaN
329.0140409000005	0.1	sub-02	1	sequence	stimulus	Schuh	NaN	NaN	64.0	NaN	NaN	4.0	4.0	NaN	NaN	NaN	NaN	NaN
329.1140072999997	0.0669	sub-02	1	sequence	interval	dot	NaN	NaN	NaN	NaN	NaN	NaN	NaN	NaN	NaN	NaN	NaN	NaN
329.18087360000027	0.0999	sub-02	1	sequence	stimulus	Stuhl	NaN	NaN	64.0	NaN	NaN	5.0	5.0	NaN	NaN	NaN	NaN	NaN
329.2808216000003	0.0668	sub-02	1	sequence	interval	dot	NaN	NaN	NaN	NaN	NaN	NaN	NaN	NaN	NaN	NaN	NaN	NaN
329.34758880000027	8.3884	sub-02	1	sequence	delay	dot	NaN	NaN	NaN	NaN	NaN	NaN	NaN	NaN	NaN	NaN	NaN	NaN
337.7146038000001	0.9244	sub-02	1	sequence	choice	choice	right	NaN	NaN	-7.918570499999987	True	NaN	NaN	right	True	3.0	5.0	5.0
338.6393807000004	0.4996	sub-02	1	sequence	feedback	NaN	NaN	NaN	NaN	NaN	NaN	NaN	NaN	NaN	NaN	NaN	NaN	NaN
339.1392112000003	1.0004	sub-02	1	sequence	cue	Katze	NaN	NaN	NaN	NaN	NaN	NaN	NaN	NaN	NaN	NaN	NaN	NaN
340.1396119000001	2.0017	sub-02	1	sequence	blank	blank	NaN	NaN	NaN	NaN	NaN	NaN	NaN	NaN	NaN	NaN	NaN	NaN
342.1412800999997	0.3001	sub-02	1	sequence	fixation	dot	NaN	NaN	NaN	NaN	NaN	NaN	NaN	NaN	NaN	NaN	NaN	NaN
342.4599307999997	0.115	sub-02	1	sequence	stimulus	Katze	NaN	NaN	128.0	NaN	NaN	3.0	1.0	NaN	NaN	NaN	NaN	NaN
342.5749186000003	0.1336	sub-02	1	sequence	interval	dot	NaN	NaN	NaN	NaN	NaN	NaN	NaN	NaN	NaN	NaN	NaN	NaN
342.7085145000001	0.0999	sub-02	1	sequence	stimulus	Haus	NaN	NaN	128.0	NaN	NaN	2.0	2.0	NaN	NaN	NaN	NaN	NaN
342.80837489999976	0.1337	sub-02	1	sequence	interval	dot	NaN	NaN	NaN	NaN	NaN	NaN	NaN	NaN	NaN	NaN	NaN	NaN
342.9420434000004	0.1	sub-02	1	sequence	stimulus	Stuhl	NaN	NaN	128.0	NaN	NaN	5.0	3.0	NaN	NaN	NaN	NaN	NaN
343.0419972999998	0.1336	sub-02	1	sequence	interval	dot	NaN	NaN	NaN	NaN	NaN	NaN	NaN	NaN	NaN	NaN	NaN	NaN
343.1755702999999	0.0999	sub-02	1	sequence	stimulus	Schuh	NaN	NaN	128.0	NaN	NaN	4.0	4.0	NaN	NaN	NaN	NaN	NaN
343.27544860000035	0.1336	sub-02	1	sequence	interval	dot	NaN	NaN	NaN	NaN	NaN	NaN	NaN	NaN	NaN	NaN	NaN	NaN
343.40900580000016	0.1	sub-02	1	sequence	stimulus	Gesicht	NaN	NaN	128.0	NaN	NaN	1.0	5.0	NaN	NaN	NaN	NaN	NaN
343.5090316000005	0.1334	sub-02	1	sequence	interval	dot	NaN	NaN	NaN	NaN	NaN	NaN	NaN	NaN	NaN	NaN	NaN	NaN
343.64245589999973	8.0547	sub-02	1	sequence	delay	dot	NaN	NaN	NaN	NaN	NaN	NaN	NaN	NaN	NaN	NaN	NaN	NaN
351.6762663999998	0.7573	sub-02	1	sequence	choice	choice	left	NaN	NaN	-8.087840999999571	True	NaN	NaN	left	True	1.0	4.0	1.0
352.4338128999998	0.5002	sub-02	1	sequence	feedback	NaN	NaN	NaN	NaN	NaN	NaN	NaN	NaN	NaN	NaN	NaN	NaN	NaN
352.9342201999998	1.0005	sub-02	1	sequence	cue	Katze	NaN	NaN	NaN	NaN	NaN	NaN	NaN	NaN	NaN	NaN	NaN	NaN
353.9347452000002	2.0013	sub-02	1	sequence	blank	blank	NaN	NaN	NaN	NaN	NaN	NaN	NaN	NaN	NaN	NaN	NaN	NaN
355.93605819999993	0.3003	sub-02	1	sequence	fixation	dot	NaN	NaN	NaN	NaN	NaN	NaN	NaN	NaN	NaN	NaN	NaN	NaN
356.2545633	0.1151	sub-02	1	sequence	stimulus	Schuh	NaN	NaN	32.0	NaN	NaN	4.0	1.0	NaN	NaN	NaN	NaN	NaN
356.3696867999997	0.0335	sub-02	1	sequence	interval	dot	NaN	NaN	NaN	NaN	NaN	NaN	NaN	NaN	NaN	NaN	NaN	NaN
356.4031777	0.1	sub-02	1	sequence	stimulus	Stuhl	NaN	NaN	32.0	NaN	NaN	5.0	2.0	NaN	NaN	NaN	NaN	NaN
356.5031294999999	0.0335	sub-02	1	sequence	interval	dot	NaN	NaN	NaN	NaN	NaN	NaN	NaN	NaN	NaN	NaN	NaN	NaN
356.5366518999999	0.0999	sub-02	1	sequence	stimulus	Katze	NaN	NaN	32.0	NaN	NaN	3.0	3.0	NaN	NaN	NaN	NaN	NaN
356.6365652000004	0.0334	sub-02	1	sequence	interval	dot	NaN	NaN	NaN	NaN	NaN	NaN	NaN	NaN	NaN	NaN	NaN	NaN
356.66995380000026	0.0998	sub-02	1	sequence	stimulus	Gesicht	NaN	NaN	32.0	NaN	NaN	1.0	4.0	NaN	NaN	NaN	NaN	NaN
356.7697737999997	0.0336	sub-02	1	sequence	interval	dot	NaN	NaN	NaN	NaN	NaN	NaN	NaN	NaN	NaN	NaN	NaN	NaN
356.80335130000003	0.0999	sub-02	1	sequence	stimulus	Haus	NaN	NaN	32.0	NaN	NaN	2.0	5.0	NaN	NaN	NaN	NaN	NaN
356.9032708000004	0.0333	sub-02	1	sequence	interval	dot	NaN	NaN	NaN	NaN	NaN	NaN	NaN	NaN	NaN	NaN	NaN	NaN
356.93658700000015	8.5385	sub-02	1	sequence	delay	dot	NaN	NaN	NaN	NaN	NaN	NaN	NaN	NaN	NaN	NaN	NaN	NaN
365.4560012000002	0.6051	sub-02	1	sequence	choice	choice	right	NaN	NaN	-8.241895399999521	False	NaN	NaN	left	True	3.0	5.0	3.0
366.0613933000004	0.4998	sub-02	1	sequence	feedback	NaN	NaN	NaN	NaN	NaN	NaN	NaN	NaN	NaN	NaN	NaN	NaN	NaN
366.56141519999983	1.0004	sub-02	1	sequence	cue	Katze	NaN	NaN	NaN	NaN	NaN	NaN	NaN	NaN	NaN	NaN	NaN	NaN
367.5617879000001	2.0016	sub-02	1	sequence	blank	blank	NaN	NaN	NaN	NaN	NaN	NaN	NaN	NaN	NaN	NaN	NaN	NaN
369.56336550000015	0.3002	sub-02	1	sequence	fixation	dot	NaN	NaN	NaN	NaN	NaN	NaN	NaN	NaN	NaN	NaN	NaN	NaN
369.8811529000004	0.0992	sub-02	1	sequence	stimulus	Schuh	NaN	NaN	64.0	NaN	NaN	4.0	1.0	NaN	NaN	NaN	NaN	NaN
369.98035940000045	0.0668	sub-02	1	sequence	interval	dot	NaN	NaN	NaN	NaN	NaN	NaN	NaN	NaN	NaN	NaN	NaN	NaN
370.0471978000005	0.1	sub-02	1	sequence	stimulus	Stuhl	NaN	NaN	64.0	NaN	NaN	5.0	2.0	NaN	NaN	NaN	NaN	NaN
370.1471968000005	0.0668	sub-02	1	sequence	interval	dot	NaN	NaN	NaN	NaN	NaN	NaN	NaN	NaN	NaN	NaN	NaN	NaN
370.2140191999997	0.0999	sub-02	1	sequence	stimulus	Gesicht	NaN	NaN	64.0	NaN	NaN	1.0	3.0	NaN	NaN	NaN	NaN	NaN
370.31393990000015	0.0669	sub-02	1	sequence	interval	dot	NaN	NaN	NaN	NaN	NaN	NaN	NaN	NaN	NaN	NaN	NaN	NaN
370.3808260000005	0.0999	sub-02	1	sequence	stimulus	Haus	NaN	NaN	64.0	NaN	NaN	2.0	4.0	NaN	NaN	NaN	NaN	NaN
370.48075880000033	0.0669	sub-02	1	sequence	interval	dot	NaN	NaN	NaN	NaN	NaN	NaN	NaN	NaN	NaN	NaN	NaN	NaN
370.5476233	0.1	sub-02	1	sequence	stimulus	Katze	NaN	NaN	64.0	NaN	NaN	3.0	5.0	NaN	NaN	NaN	NaN	NaN
370.6475848	0.0667	sub-02	1	sequence	interval	dot	NaN	NaN	NaN	NaN	NaN	NaN	NaN	NaN	NaN	NaN	NaN	NaN
370.7143037000005	8.3884	sub-02	1	sequence	delay	dot	NaN	NaN	NaN	NaN	NaN	NaN	NaN	NaN	NaN	NaN	NaN	NaN
379.0796370999997	0.7927	sub-02	1	sequence	choice	choice	left	NaN	NaN	-8.053247499999088	True	NaN	NaN	left	True	5.0	4.0	5.0
379.8725698999997	0.4996	sub-02	1	sequence	feedback	NaN	NaN	NaN	NaN	NaN	NaN	NaN	NaN	NaN	NaN	NaN	NaN	NaN
380.37239750000026	1.0005	sub-02	1	sequence	cue	Katze	NaN	NaN	NaN	NaN	NaN	NaN	NaN	NaN	NaN	NaN	NaN	NaN
381.3728664999999	2.0016	sub-02	1	sequence	blank	blank	NaN	NaN	NaN	NaN	NaN	NaN	NaN	NaN	NaN	NaN	NaN	NaN
383.3744849000004	0.3002	sub-02	1	sequence	fixation	dot	NaN	NaN	NaN	NaN	NaN	NaN	NaN	NaN	NaN	NaN	NaN	NaN
383.6922420000001	0.0991	sub-02	1	sequence	stimulus	Stuhl	NaN	NaN	512.0	NaN	NaN	5.0	1.0	NaN	NaN	NaN	NaN	NaN
383.79138820000026	0.5173	sub-02	1	sequence	interval	dot	NaN	NaN	NaN	NaN	NaN	NaN	NaN	NaN	NaN	NaN	NaN	NaN
384.3086863999997	0.0999	sub-02	1	sequence	stimulus	Schuh	NaN	NaN	512.0	NaN	NaN	4.0	2.0	NaN	NaN	NaN	NaN	NaN
384.4085986	0.5173	sub-02	1	sequence	interval	dot	NaN	NaN	NaN	NaN	NaN	NaN	NaN	NaN	NaN	NaN	NaN	NaN
384.9258651	0.0999	sub-02	1	sequence	stimulus	Gesicht	NaN	NaN	512.0	NaN	NaN	1.0	3.0	NaN	NaN	NaN	NaN	NaN
385.0257370999998	0.5173	sub-02	1	sequence	interval	dot	NaN	NaN	NaN	NaN	NaN	NaN	NaN	NaN	NaN	NaN	NaN	NaN
385.54308459999993	0.0999	sub-02	1	sequence	stimulus	Haus	NaN	NaN	512.0	NaN	NaN	2.0	4.0	NaN	NaN	NaN	NaN	NaN
385.6429643000001	0.5173	sub-02	1	sequence	interval	dot	NaN	NaN	NaN	NaN	NaN	NaN	NaN	NaN	NaN	NaN	NaN	NaN
386.1602468000001	0.1	sub-02	1	sequence	stimulus	Katze	NaN	NaN	512.0	NaN	NaN	3.0	5.0	NaN	NaN	NaN	NaN	NaN
386.2602294999997	0.517	sub-02	1	sequence	interval	dot	NaN	NaN	NaN	NaN	NaN	NaN	NaN	NaN	NaN	NaN	NaN	NaN
386.7772280999998	6.1533	sub-02	1	sequence	delay	dot	NaN	NaN	NaN	NaN	NaN	NaN	NaN	NaN	NaN	NaN	NaN	NaN
392.9112689000003	0.8555	sub-02	1	sequence	choice	choice	left	NaN	NaN	-7.984685399998852	True	NaN	NaN	left	True	5.0	4.0	5.0
393.7670227999997	0.4999	sub-02	1	sequence	feedback	NaN	NaN	NaN	NaN	NaN	NaN	NaN	NaN	NaN	NaN	NaN	NaN	NaN
394.2670893000004	1.0004	sub-02	1	sequence	cue	Katze	NaN	NaN	NaN	NaN	NaN	NaN	NaN	NaN	NaN	NaN	NaN	NaN
395.26752149999993	2.0016	sub-02	1	sequence	blank	blank	NaN	NaN	NaN	NaN	NaN	NaN	NaN	NaN	NaN	NaN	NaN	NaN
397.26913289999993	0.3002	sub-02	1	sequence	fixation	dot	NaN	NaN	NaN	NaN	NaN	NaN	NaN	NaN	NaN	NaN	NaN	NaN
397.5877344999999	0.1151	sub-02	1	sequence	stimulus	Stuhl	NaN	NaN	32.0	NaN	NaN	5.0	1.0	NaN	NaN	NaN	NaN	NaN
397.7028348000004	0.0334	sub-02	1	sequence	interval	dot	NaN	NaN	NaN	NaN	NaN	NaN	NaN	NaN	NaN	NaN	NaN	NaN
397.73627860000033	0.0999	sub-02	1	sequence	stimulus	Gesicht	NaN	NaN	32.0	NaN	NaN	1.0	2.0	NaN	NaN	NaN	NaN	NaN
397.83620059999976	0.0335	sub-02	1	sequence	interval	dot	NaN	NaN	NaN	NaN	NaN	NaN	NaN	NaN	NaN	NaN	NaN	NaN
397.8697110000003	0.1	sub-02	1	sequence	stimulus	Katze	NaN	NaN	32.0	NaN	NaN	3.0	3.0	NaN	NaN	NaN	NaN	NaN
397.9696716999997	0.0336	sub-02	1	sequence	interval	dot	NaN	NaN	NaN	NaN	NaN	NaN	NaN	NaN	NaN	NaN	NaN	NaN
398.0032474999998	0.0999	sub-02	1	sequence	stimulus	Schuh	NaN	NaN	32.0	NaN	NaN	4.0	4.0	NaN	NaN	NaN	NaN	NaN
398.1031260999998	0.0336	sub-02	1	sequence	interval	dot	NaN	NaN	NaN	NaN	NaN	NaN	NaN	NaN	NaN	NaN	NaN	NaN
398.1366952999997	0.0999	sub-02	1	sequence	stimulus	Haus	NaN	NaN	32.0	NaN	NaN	2.0	5.0	NaN	NaN	NaN	NaN	NaN
398.23659510000016	0.0334	sub-02	1	sequence	interval	dot	NaN	NaN	NaN	NaN	NaN	NaN	NaN	NaN	NaN	NaN	NaN	NaN
398.2699486000001	8.5385	sub-02	1	sequence	delay	dot	NaN	NaN	NaN	NaN	NaN	NaN	NaN	NaN	NaN	NaN	NaN	NaN
406.79502950000006	1.0164	sub-02	1	sequence	choice	choice	right	NaN	NaN	-7.822551100000055	True	NaN	NaN	right	True	4.0	3.0	3.0
407.8116981000003	0.4998	sub-02	1	sequence	feedback	NaN	NaN	NaN	NaN	NaN	NaN	NaN	NaN	NaN	NaN	NaN	NaN	NaN
408.31168499999967	1.0003	sub-02	1	sequence	cue	Stuhl	NaN	NaN	NaN	NaN	NaN	NaN	NaN	NaN	NaN	NaN	NaN	NaN
409.3120313999998	2.0016	sub-02	1	sequence	blank	blank	NaN	NaN	NaN	NaN	NaN	NaN	NaN	NaN	NaN	NaN	NaN	NaN
411.3136811000004	0.3003	sub-02	1	sequence	fixation	dot	NaN	NaN	NaN	NaN	NaN	NaN	NaN	NaN	NaN	NaN	NaN	NaN
411.63141580000047	0.0992	sub-02	1	sequence	stimulus	Gesicht	NaN	NaN	512.0	NaN	NaN	1.0	1.0	NaN	NaN	NaN	NaN	NaN
411.7306466999999	0.5172	sub-02	1	sequence	interval	dot	NaN	NaN	NaN	NaN	NaN	NaN	NaN	NaN	NaN	NaN	NaN	NaN
412.2478717000004	0.1	sub-02	1	sequence	stimulus	Schuh	NaN	NaN	512.0	NaN	NaN	4.0	2.0	NaN	NaN	NaN	NaN	NaN
412.3478266000002	0.5172	sub-02	1	sequence	interval	dot	NaN	NaN	NaN	NaN	NaN	NaN	NaN	NaN	NaN	NaN	NaN	NaN
412.8650269	0.0999	sub-02	1	sequence	stimulus	Katze	NaN	NaN	512.0	NaN	NaN	3.0	3.0	NaN	NaN	NaN	NaN	NaN
412.96488560000034	0.5173	sub-02	1	sequence	interval	dot	NaN	NaN	NaN	NaN	NaN	NaN	NaN	NaN	NaN	NaN	NaN	NaN
413.4822168999999	0.0999	sub-02	1	sequence	stimulus	Stuhl	NaN	NaN	512.0	NaN	NaN	5.0	4.0	NaN	NaN	NaN	NaN	NaN
413.5821668999997	0.5173	sub-02	1	sequence	interval	dot	NaN	NaN	NaN	NaN	NaN	NaN	NaN	NaN	NaN	NaN	NaN	NaN
414.0994648000005	0.0999	sub-02	1	sequence	stimulus	Haus	NaN	NaN	512.0	NaN	NaN	2.0	5.0	NaN	NaN	NaN	NaN	NaN
414.1993472000004	0.5172	sub-02	1	sequence	interval	dot	NaN	NaN	NaN	NaN	NaN	NaN	NaN	NaN	NaN	NaN	NaN	NaN
414.7165063000002	6.17	sub-02	1	sequence	delay	dot	NaN	NaN	NaN	NaN	NaN	NaN	NaN	NaN	NaN	NaN	NaN	NaN
420.8607549999997	0.8784	sub-02	1	sequence	choice	choice	right	NaN	NaN	-7.972813399998813	True	NaN	NaN	right	True	5.0	4.0	4.0
421.7394068000003	0.4999	sub-02	1	sequence	feedback	NaN	NaN	NaN	NaN	NaN	NaN	NaN	NaN	NaN	NaN	NaN	NaN	NaN
422.2395053999999	1.0004	sub-02	1	sequence	cue	Haus	NaN	NaN	NaN	NaN	NaN	NaN	NaN	NaN	NaN	NaN	NaN	NaN
423.23992050000015	2.0017	sub-02	1	sequence	blank	blank	NaN	NaN	NaN	NaN	NaN	NaN	NaN	NaN	NaN	NaN	NaN	NaN
425.2416072000005	0.3002	sub-02	1	sequence	fixation	dot	NaN	NaN	NaN	NaN	NaN	NaN	NaN	NaN	NaN	NaN	NaN	NaN
425.5594939000002	0.099	sub-02	1	sequence	stimulus	Stuhl	NaN	NaN	128.0	NaN	NaN	5.0	1.0	NaN	NaN	NaN	NaN	NaN
425.65850430000046	0.1336	sub-02	1	sequence	interval	dot	NaN	NaN	NaN	NaN	NaN	NaN	NaN	NaN	NaN	NaN	NaN	NaN
425.7920898000002	0.1	sub-02	1	sequence	stimulus	Schuh	NaN	NaN	128.0	NaN	NaN	4.0	2.0	NaN	NaN	NaN	NaN	NaN
425.8921111999998	0.1335	sub-02	1	sequence	interval	dot	NaN	NaN	NaN	NaN	NaN	NaN	NaN	NaN	NaN	NaN	NaN	NaN
426.0256128000001	0.1001	sub-02	1	sequence	stimulus	Gesicht	NaN	NaN	128.0	NaN	NaN	1.0	3.0	NaN	NaN	NaN	NaN	NaN
426.1256672999998	0.1335	sub-02	1	sequence	interval	dot	NaN	NaN	NaN	NaN	NaN	NaN	NaN	NaN	NaN	NaN	NaN	NaN
426.25917070000014	0.1	sub-02	1	sequence	stimulus	Katze	NaN	NaN	128.0	NaN	NaN	3.0	4.0	NaN	NaN	NaN	NaN	NaN
426.3591643	0.1337	sub-02	1	sequence	interval	dot	NaN	NaN	NaN	NaN	NaN	NaN	NaN	NaN	NaN	NaN	NaN	NaN
426.4928203999998	0.0999	sub-02	1	sequence	stimulus	Haus	NaN	NaN	128.0	NaN	NaN	2.0	5.0	NaN	NaN	NaN	NaN	NaN
426.5927612000005	0.1334	sub-02	1	sequence	interval	dot	NaN	NaN	NaN	NaN	NaN	NaN	NaN	NaN	NaN	NaN	NaN	NaN
426.7261291000004	8.0716	sub-02	1	sequence	delay	dot	NaN	NaN	NaN	NaN	NaN	NaN	NaN	NaN	NaN	NaN	NaN	NaN
434.7704174999999	0.9137	sub-02	1	sequence	choice	choice	right	NaN	NaN	-7.940339799999492	True	NaN	NaN	right	True	3.0	5.0	5.0
435.6844154	0.4998	sub-02	1	sequence	feedback	NaN	NaN	NaN	NaN	NaN	NaN	NaN	NaN	NaN	NaN	NaN	NaN	NaN
436.18458329999976	13.3437	sub-02	1	other	break	break	NaN	NaN	NaN	NaN	NaN	NaN	NaN	NaN	NaN	NaN	NaN	NaN
453.3486131	0.4994	sub-02	1	localizer	stimulus	Gesicht	NaN	0	3.1196149999996123	NaN	True	NaN	NaN	NaN	NaN	NaN	NaN	NaN
453.8479648000002	3.1196	sub-02	1	localizer	blank	interval	NaN	NaN	NaN	NaN	NaN	NaN	NaN	NaN	NaN	NaN	NaN	NaN
457.26876379999976	0.4991	sub-02	1	localizer	stimulus	Schuh	NaN	180	2.9689053000001877	-8.259291299999859	True	NaN	NaN	NaN	NaN	NaN	NaN	NaN
457.75139880000006	2.9689	sub-02	1	localizer	blank	interval	NaN	NaN	NaN	NaN	NaN	NaN	NaN	NaN	NaN	NaN	NaN	NaN
461.0215006999997	0.4994	sub-02	1	localizer	stimulus	Schuh	NaN	0	2.8518985000000043	NaN	True	NaN	NaN	NaN	NaN	NaN	NaN	NaN
461.5045722000005	2.8519	sub-02	1	localizer	blank	interval	NaN	NaN	NaN	NaN	NaN	NaN	NaN	NaN	NaN	NaN	NaN	NaN
464.6576006000005	0.4995	sub-02	1	localizer	stimulus	Gesicht	NaN	0	1.834685499999921	NaN	True	NaN	NaN	NaN	NaN	NaN	NaN	NaN
465.14051240000026	1.8347	sub-02	1	localizer	blank	interval	NaN	NaN	NaN	NaN	NaN	NaN	NaN	NaN	NaN	NaN	NaN	NaN
467.2764739000004	0.4995	sub-02	1	localizer	stimulus	Stuhl	NaN	0	2.0013747000003264	NaN	True	NaN	NaN	NaN	NaN	NaN	NaN	NaN
467.7593951999997	2.0014	sub-02	1	localizer	blank	interval	NaN	NaN	NaN	NaN	NaN	NaN	NaN	NaN	NaN	NaN	NaN	NaN
470.06192160000046	0.4995	sub-02	1	localizer	stimulus	Gesicht	NaN	0	3.0371853000006013	NaN	True	NaN	NaN	NaN	NaN	NaN	NaN	NaN
470.5449878999998	3.0372	sub-02	1	localizer	blank	interval	NaN	NaN	NaN	NaN	NaN	NaN	NaN	NaN	NaN	NaN	NaN	NaN
473.8987509999997	0.4992	sub-02	1	localizer	stimulus	Katze	NaN	0	2.685508800000207	NaN	True	NaN	NaN	NaN	NaN	NaN	NaN	NaN
474.3647221000001	2.6855	sub-02	1	localizer	blank	interval	NaN	NaN	NaN	NaN	NaN	NaN	NaN	NaN	NaN	NaN	NaN	NaN
477.3513702999999	0.4994	sub-02	1	localizer	stimulus	Katze	NaN	0	1.6512081999999282	NaN	True	NaN	NaN	NaN	NaN	NaN	NaN	NaN
477.8342282000003	1.6512	sub-02	1	localizer	blank	interval	NaN	NaN	NaN	NaN	NaN	NaN	NaN	NaN	NaN	NaN	NaN	NaN
479.7865277000001	0.4995	sub-02	1	localizer	stimulus	Haus	NaN	0	2.5685813999998004	NaN	True	NaN	NaN	NaN	NaN	NaN	NaN	NaN
480.2695402	2.5686	sub-02	1	localizer	blank	interval	NaN	NaN	NaN	NaN	NaN	NaN	NaN	NaN	NaN	NaN	NaN	NaN
483.13916250000057	0.4996	sub-02	1	localizer	stimulus	Schuh	NaN	0	2.6519390000003114	NaN	True	NaN	NaN	NaN	NaN	NaN	NaN	NaN
483.6221728999999	2.6519	sub-02	1	localizer	blank	interval	NaN	NaN	NaN	NaN	NaN	NaN	NaN	NaN	NaN	NaN	NaN	NaN
486.57524120000016	0.4995	sub-02	1	localizer	stimulus	Katze	NaN	180	3.152505499999279	-8.277481600000101	True	NaN	NaN	NaN	NaN	NaN	NaN	NaN
487.05820420000055	3.1525	sub-02	1	localizer	blank	interval	NaN	NaN	NaN	NaN	NaN	NaN	NaN	NaN	NaN	NaN	NaN	NaN
490.51178960000016	0.4995	sub-02	1	localizer	stimulus	Schuh	NaN	0	2.4019143999994412	NaN	True	NaN	NaN	NaN	NaN	NaN	NaN	NaN
490.99480050000057	2.4019	sub-02	1	localizer	blank	interval	NaN	NaN	NaN	NaN	NaN	NaN	NaN	NaN	NaN	NaN	NaN	NaN
493.6978982999999	0.4993	sub-02	1	localizer	stimulus	Stuhl	NaN	0	2.018239199999698	NaN	True	NaN	NaN	NaN	NaN	NaN	NaN	NaN
494.1806437000005	2.0182	sub-02	1	localizer	blank	interval	NaN	NaN	NaN	NaN	NaN	NaN	NaN	NaN	NaN	NaN	NaN	NaN
496.4999938000001	0.4996	sub-02	1	localizer	stimulus	Schuh	NaN	0	3.135451500000272	NaN	True	NaN	NaN	NaN	NaN	NaN	NaN	NaN
496.98314889999983	3.1355	sub-02	1	localizer	blank	interval	NaN	NaN	NaN	NaN	NaN	NaN	NaN	NaN	NaN	NaN	NaN	NaN
500.4198907	0.4995	sub-02	1	localizer	stimulus	Haus	NaN	180	2.3685107000001153	-8.298601299999973	True	NaN	NaN	NaN	NaN	NaN	NaN	NaN
500.90294150000045	2.3685	sub-02	1	localizer	blank	interval	NaN	NaN	NaN	NaN	NaN	NaN	NaN	NaN	NaN	NaN	NaN	NaN
503.5724872999999	0.4993	sub-02	1	localizer	stimulus	Stuhl	NaN	0	2.752057199999399	NaN	True	NaN	NaN	NaN	NaN	NaN	NaN	NaN
504.0552703000003	2.7521	sub-02	1	localizer	blank	interval	NaN	NaN	NaN	NaN	NaN	NaN	NaN	NaN	NaN	NaN	NaN	NaN
507.1085234000002	0.4995	sub-02	1	localizer	stimulus	Haus	NaN	0	2.5351614999999583	NaN	True	NaN	NaN	NaN	NaN	NaN	NaN	NaN
507.59152020000056	2.5352	sub-02	1	localizer	blank	interval	NaN	NaN	NaN	NaN	NaN	NaN	NaN	NaN	NaN	NaN	NaN	NaN
510.4278709999999	0.4995	sub-02	1	localizer	stimulus	Haus	NaN	0	2.6852970000000482	NaN	True	NaN	NaN	NaN	NaN	NaN	NaN	NaN
510.9108891000005	2.6853	sub-02	1	localizer	blank	interval	NaN	NaN	NaN	NaN	NaN	NaN	NaN	NaN	NaN	NaN	NaN	NaN
513.8975263000002	0.4993	sub-02	1	localizer	stimulus	Gesicht	NaN	180	2.668740799999796	-8.29618919999939	True	NaN	NaN	NaN	NaN	NaN	NaN	NaN
514.3802990000004	2.6687	sub-02	1	localizer	blank	interval	NaN	NaN	NaN	NaN	NaN	NaN	NaN	NaN	NaN	NaN	NaN	NaN
517.3502907000002	0.4995	sub-02	1	localizer	stimulus	Haus	NaN	0	2.568438899999819	NaN	True	NaN	NaN	NaN	NaN	NaN	NaN	NaN
517.8332230000005	2.5684	sub-02	1	localizer	blank	interval	NaN	NaN	NaN	NaN	NaN	NaN	NaN	NaN	NaN	NaN	NaN	NaN
520.7029321999999	0.4994	sub-02	1	localizer	stimulus	Katze	NaN	0	2.28512899999987	NaN	True	NaN	NaN	NaN	NaN	NaN	NaN	NaN
521.1857797000002	2.2851	sub-02	1	localizer	blank	interval	NaN	NaN	NaN	NaN	NaN	NaN	NaN	NaN	NaN	NaN	NaN	NaN
523.7720895000002	0.4995	sub-02	1	localizer	stimulus	Stuhl	NaN	180	2.7685796999994636	-8.026844499999243	True	NaN	NaN	NaN	NaN	NaN	NaN	NaN
524.2550667000005	2.7686	sub-02	1	localizer	blank	interval	NaN	NaN	NaN	NaN	NaN	NaN	NaN	NaN	NaN	NaN	NaN	NaN
527.3248051999999	0.4995	sub-02	1	localizer	stimulus	Stuhl	NaN	0	2.6520359000005556	NaN	True	NaN	NaN	NaN	NaN	NaN	NaN	NaN
527.8076848999999	2.652	sub-02	1	localizer	blank	interval	NaN	NaN	NaN	NaN	NaN	NaN	NaN	NaN	NaN	NaN	NaN	NaN
530.7608950000003	0.4995	sub-02	1	localizer	stimulus	Katze	NaN	0	2.2683657999996285	NaN	True	NaN	NaN	NaN	NaN	NaN	NaN	NaN
531.2437951000002	2.2684	sub-02	1	localizer	blank	interval	NaN	NaN	NaN	NaN	NaN	NaN	NaN	NaN	NaN	NaN	NaN	NaN
533.8135595000003	0.4993	sub-02	1	localizer	stimulus	Gesicht	NaN	0	2.868859999999586	-8.004280999999537	False	NaN	NaN	NaN	NaN	NaN	NaN	NaN
534.2963859000001	2.8689	sub-02	1	localizer	blank	interval	NaN	NaN	NaN	NaN	NaN	NaN	NaN	NaN	NaN	NaN	NaN	NaN
540.6515522	1.0006	sub-02	1	sequence	cue	Schuh	NaN	NaN	NaN	NaN	NaN	NaN	NaN	NaN	NaN	NaN	NaN	NaN
541.6521093000001	2.0017	sub-02	1	sequence	blank	blank	NaN	NaN	NaN	NaN	NaN	NaN	NaN	NaN	NaN	NaN	NaN	NaN
543.6538422000003	0.3003	sub-02	1	sequence	fixation	dot	NaN	NaN	NaN	NaN	NaN	NaN	NaN	NaN	NaN	NaN	NaN	NaN
543.9717627999999	0.0991	sub-02	1	sequence	stimulus	Stuhl	NaN	NaN	512.0	NaN	NaN	5.0	1.0	NaN	NaN	NaN	NaN	NaN
544.0708891000004	0.5173	sub-02	1	sequence	interval	dot	NaN	NaN	NaN	NaN	NaN	NaN	NaN	NaN	NaN	NaN	NaN	NaN
544.5882007999999	0.1	sub-02	1	sequence	stimulus	Schuh	NaN	NaN	512.0	NaN	NaN	4.0	2.0	NaN	NaN	NaN	NaN	NaN
544.6881660999998	0.5173	sub-02	1	sequence	interval	dot	NaN	NaN	NaN	NaN	NaN	NaN	NaN	NaN	NaN	NaN	NaN	NaN
545.2054545000001	0.0999	sub-02	1	sequence	stimulus	Gesicht	NaN	NaN	512.0	NaN	NaN	1.0	3.0	NaN	NaN	NaN	NaN	NaN
545.3053841000001	0.5171	sub-02	1	sequence	interval	dot	NaN	NaN	NaN	NaN	NaN	NaN	NaN	NaN	NaN	NaN	NaN	NaN
545.8224577999999	0.0998	sub-02	1	sequence	stimulus	Haus	NaN	NaN	512.0	NaN	NaN	2.0	4.0	NaN	NaN	NaN	NaN	NaN
545.9222964999999	0.5173	sub-02	1	sequence	interval	dot	NaN	NaN	NaN	NaN	NaN	NaN	NaN	NaN	NaN	NaN	NaN	NaN
546.4396211000003	0.0999	sub-02	1	sequence	stimulus	Katze	NaN	NaN	512.0	NaN	NaN	3.0	5.0	NaN	NaN	NaN	NaN	NaN
546.5395123999997	0.517	sub-02	1	sequence	interval	dot	NaN	NaN	NaN	NaN	NaN	NaN	NaN	NaN	NaN	NaN	NaN	NaN
547.0565446999999	6.1534	sub-02	1	sequence	delay	dot	NaN	NaN	NaN	NaN	NaN	NaN	NaN	NaN	NaN	NaN	NaN	NaN
553.1976297000001	0.8149	sub-02	1	sequence	choice	choice	left	NaN	NaN	-8.024327699999958	True	NaN	NaN	left	True	2.0	3.0	2.0
554.0129176	0.4998	sub-02	1	sequence	feedback	NaN	NaN	NaN	NaN	NaN	NaN	NaN	NaN	NaN	NaN	NaN	NaN	NaN
554.5129164999998	1.0006	sub-02	1	sequence	cue	Katze	NaN	NaN	NaN	NaN	NaN	NaN	NaN	NaN	NaN	NaN	NaN	NaN
555.5134913000002	2.0016	sub-02	1	sequence	blank	blank	NaN	NaN	NaN	NaN	NaN	NaN	NaN	NaN	NaN	NaN	NaN	NaN
557.5151467000005	0.3003	sub-02	1	sequence	fixation	dot	NaN	NaN	NaN	NaN	NaN	NaN	NaN	NaN	NaN	NaN	NaN	NaN
557.8337987000004	0.1153	sub-02	1	sequence	stimulus	Gesicht	NaN	NaN	512.0	NaN	NaN	1.0	1.0	NaN	NaN	NaN	NaN	NaN
557.9491196999998	0.517	sub-02	1	sequence	interval	dot	NaN	NaN	NaN	NaN	NaN	NaN	NaN	NaN	NaN	NaN	NaN	NaN
558.4660968999997	0.0999	sub-02	1	sequence	stimulus	Schuh	NaN	NaN	512.0	NaN	NaN	4.0	2.0	NaN	NaN	NaN	NaN	NaN
558.5659983000005	0.5171	sub-02	1	sequence	interval	dot	NaN	NaN	NaN	NaN	NaN	NaN	NaN	NaN	NaN	NaN	NaN	NaN
559.0830950999998	0.1	sub-02	1	sequence	stimulus	Katze	NaN	NaN	512.0	NaN	NaN	3.0	3.0	NaN	NaN	NaN	NaN	NaN
559.1830759000004	0.5172	sub-02	1	sequence	interval	dot	NaN	NaN	NaN	NaN	NaN	NaN	NaN	NaN	NaN	NaN	NaN	NaN
559.7002352999998	0.1	sub-02	1	sequence	stimulus	Stuhl	NaN	NaN	512.0	NaN	NaN	5.0	4.0	NaN	NaN	NaN	NaN	NaN
559.8002434	0.5172	sub-02	1	sequence	interval	dot	NaN	NaN	NaN	NaN	NaN	NaN	NaN	NaN	NaN	NaN	NaN	NaN
560.3174199000005	0.0999	sub-02	1	sequence	stimulus	Haus	NaN	NaN	512.0	NaN	NaN	2.0	5.0	NaN	NaN	NaN	NaN	NaN
560.4173682999999	0.5171	sub-02	1	sequence	interval	dot	NaN	NaN	NaN	NaN	NaN	NaN	NaN	NaN	NaN	NaN	NaN	NaN
560.9344790000005	6.1367	sub-02	1	sequence	delay	dot	NaN	NaN	NaN	NaN	NaN	NaN	NaN	NaN	NaN	NaN	NaN	NaN
567.0552909999997	0.7519	sub-02	1	sequence	choice	choice	right	NaN	NaN	-8.07802509999965	True	NaN	NaN	right	True	1.0	3.0	3.0
567.8074469000003	0.5001	sub-02	1	sequence	feedback	NaN	NaN	NaN	NaN	NaN	NaN	NaN	NaN	NaN	NaN	NaN	NaN	NaN
568.3076686000004	1.0007	sub-02	1	sequence	cue	Stuhl	NaN	NaN	NaN	NaN	NaN	NaN	NaN	NaN	NaN	NaN	NaN	NaN
569.3083689000005	2.0012	sub-02	1	sequence	blank	blank	NaN	NaN	NaN	NaN	NaN	NaN	NaN	NaN	NaN	NaN	NaN	NaN
571.3095346999999	0.3002	sub-02	1	sequence	fixation	dot	NaN	NaN	NaN	NaN	NaN	NaN	NaN	NaN	NaN	NaN	NaN	NaN
571.6272289999997	0.0993	sub-02	1	sequence	stimulus	Katze	NaN	NaN	64.0	NaN	NaN	3.0	1.0	NaN	NaN	NaN	NaN	NaN
571.7264934000004	0.0668	sub-02	1	sequence	interval	dot	NaN	NaN	NaN	NaN	NaN	NaN	NaN	NaN	NaN	NaN	NaN	NaN
571.7932996	0.0998	sub-02	1	sequence	stimulus	Gesicht	NaN	NaN	64.0	NaN	NaN	1.0	2.0	NaN	NaN	NaN	NaN	NaN
571.8931441000004	0.0669	sub-02	1	sequence	interval	dot	NaN	NaN	NaN	NaN	NaN	NaN	NaN	NaN	NaN	NaN	NaN	NaN
571.9600556000005	0.0999	sub-02	1	sequence	stimulus	Haus	NaN	NaN	64.0	NaN	NaN	2.0	3.0	NaN	NaN	NaN	NaN	NaN
572.0599705000004	0.0669	sub-02	1	sequence	interval	dot	NaN	NaN	NaN	NaN	NaN	NaN	NaN	NaN	NaN	NaN	NaN	NaN
572.1268376999997	0.0999	sub-02	1	sequence	stimulus	Schuh	NaN	NaN	64.0	NaN	NaN	4.0	4.0	NaN	NaN	NaN	NaN	NaN
572.2267843	0.0669	sub-02	1	sequence	interval	dot	NaN	NaN	NaN	NaN	NaN	NaN	NaN	NaN	NaN	NaN	NaN	NaN
572.2936731	0.0999	sub-02	1	sequence	stimulus	Stuhl	NaN	NaN	64.0	NaN	NaN	5.0	5.0	NaN	NaN	NaN	NaN	NaN
572.3936210000002	0.0667	sub-02	1	sequence	interval	dot	NaN	NaN	NaN	NaN	NaN	NaN	NaN	NaN	NaN	NaN	NaN	NaN
572.4603145000001	8.3886	sub-02	1	sequence	delay	dot	NaN	NaN	NaN	NaN	NaN	NaN	NaN	NaN	NaN	NaN	NaN	NaN
580.8350995999999	0.9499	sub-02	1	sequence	choice	choice	left	NaN	NaN	-7.879615299999386	True	NaN	NaN	left	True	5.0	2.0	5.0
581.7852775000001	0.5	sub-02	1	sequence	feedback	NaN	NaN	NaN	NaN	NaN	NaN	NaN	NaN	NaN	NaN	NaN	NaN	NaN
582.2854370000005	1.0004	sub-02	1	sequence	cue	Haus	NaN	NaN	NaN	NaN	NaN	NaN	NaN	NaN	NaN	NaN	NaN	NaN
583.2858439000001	2.0018	sub-02	1	sequence	blank	blank	NaN	NaN	NaN	NaN	NaN	NaN	NaN	NaN	NaN	NaN	NaN	NaN
585.2876277000005	0.3001	sub-02	1	sequence	fixation	dot	NaN	NaN	NaN	NaN	NaN	NaN	NaN	NaN	NaN	NaN	NaN	NaN
585.6061949000004	0.115	sub-02	1	sequence	stimulus	Stuhl	NaN	NaN	128.0	NaN	NaN	5.0	1.0	NaN	NaN	NaN	NaN	NaN
585.7211785	0.1335	sub-02	1	sequence	interval	dot	NaN	NaN	NaN	NaN	NaN	NaN	NaN	NaN	NaN	NaN	NaN	NaN
585.8546999	0.1	sub-02	1	sequence	stimulus	Schuh	NaN	NaN	128.0	NaN	NaN	4.0	2.0	NaN	NaN	NaN	NaN	NaN
585.9546995999999	0.1336	sub-02	1	sequence	interval	dot	NaN	NaN	NaN	NaN	NaN	NaN	NaN	NaN	NaN	NaN	NaN	NaN
586.0883031000003	0.1001	sub-02	1	sequence	stimulus	Gesicht	NaN	NaN	128.0	NaN	NaN	1.0	3.0	NaN	NaN	NaN	NaN	NaN
586.1883593000002	0.1335	sub-02	1	sequence	interval	dot	NaN	NaN	NaN	NaN	NaN	NaN	NaN	NaN	NaN	NaN	NaN	NaN
586.3218537000002	0.1	sub-02	1	sequence	stimulus	Katze	NaN	NaN	128.0	NaN	NaN	3.0	4.0	NaN	NaN	NaN	NaN	NaN
586.4218331000002	0.1337	sub-02	1	sequence	interval	dot	NaN	NaN	NaN	NaN	NaN	NaN	NaN	NaN	NaN	NaN	NaN	NaN
586.5555401000001	0.1	sub-02	1	sequence	stimulus	Haus	NaN	NaN	128.0	NaN	NaN	2.0	5.0	NaN	NaN	NaN	NaN	NaN
586.6554980000001	0.1334	sub-02	1	sequence	interval	dot	NaN	NaN	NaN	NaN	NaN	NaN	NaN	NaN	NaN	NaN	NaN	NaN
586.7888697999997	8.0714	sub-02	1	sequence	delay	dot	NaN	NaN	NaN	NaN	NaN	NaN	NaN	NaN	NaN	NaN	NaN	NaN
594.8489350999998	0.8975	sub-02	1	sequence	choice	choice	right	NaN	NaN	-7.938049700000192	True	NaN	NaN	right	True	2.0	5.0	5.0
595.7466629999999	0.4999	sub-02	1	sequence	feedback	NaN	NaN	NaN	NaN	NaN	NaN	NaN	NaN	NaN	NaN	NaN	NaN	NaN
596.2467470000001	1.0005	sub-02	1	sequence	cue	Schuh	NaN	NaN	NaN	NaN	NaN	NaN	NaN	NaN	NaN	NaN	NaN	NaN
597.2472115999999	2.0017	sub-02	1	sequence	blank	blank	NaN	NaN	NaN	NaN	NaN	NaN	NaN	NaN	NaN	NaN	NaN	NaN
599.2489155000003	0.2999	sub-02	1	sequence	fixation	dot	NaN	NaN	NaN	NaN	NaN	NaN	NaN	NaN	NaN	NaN	NaN	NaN
599.5673888000001	0.115	sub-02	1	sequence	stimulus	Katze	NaN	NaN	128.0	NaN	NaN	3.0	1.0	NaN	NaN	NaN	NaN	NaN
599.6823666999999	0.1337	sub-02	1	sequence	interval	dot	NaN	NaN	NaN	NaN	NaN	NaN	NaN	NaN	NaN	NaN	NaN	NaN
599.8161091000002	0.0998	sub-02	1	sequence	stimulus	Haus	NaN	NaN	128.0	NaN	NaN	2.0	2.0	NaN	NaN	NaN	NaN	NaN
599.9159220000001	0.1336	sub-02	1	sequence	interval	dot	NaN	NaN	NaN	NaN	NaN	NaN	NaN	NaN	NaN	NaN	NaN	NaN
600.0494755	0.1	sub-02	1	sequence	stimulus	Stuhl	NaN	NaN	128.0	NaN	NaN	5.0	3.0	NaN	NaN	NaN	NaN	NaN
600.1494455000002	0.1336	sub-02	1	sequence	interval	dot	NaN	NaN	NaN	NaN	NaN	NaN	NaN	NaN	NaN	NaN	NaN	NaN
600.2830352000001	0.0999	sub-02	1	sequence	stimulus	Schuh	NaN	NaN	128.0	NaN	NaN	4.0	4.0	NaN	NaN	NaN	NaN	NaN
600.3829774000005	0.1336	sub-02	1	sequence	interval	dot	NaN	NaN	NaN	NaN	NaN	NaN	NaN	NaN	NaN	NaN	NaN	NaN
600.5165824000005	0.0999	sub-02	1	sequence	stimulus	Gesicht	NaN	NaN	128.0	NaN	NaN	1.0	5.0	NaN	NaN	NaN	NaN	NaN
600.6164854999997	0.1335	sub-02	1	sequence	interval	dot	NaN	NaN	NaN	NaN	NaN	NaN	NaN	NaN	NaN	NaN	NaN	NaN
600.7500083000004	8.0715	sub-02	1	sequence	delay	dot	NaN	NaN	NaN	NaN	NaN	NaN	NaN	NaN	NaN	NaN	NaN	NaN
608.8104432	0.697	sub-02	1	sequence	choice	choice	left	NaN	NaN	-8.131811199999902	True	NaN	NaN	left	True	4.0	5.0	4.0
609.5076710000003	0.4999	sub-02	1	sequence	feedback	NaN	NaN	NaN	NaN	NaN	NaN	NaN	NaN	NaN	NaN	NaN	NaN	NaN
610.0078283000003	1.0003	sub-02	1	sequence	cue	Haus	NaN	NaN	NaN	NaN	NaN	NaN	NaN	NaN	NaN	NaN	NaN	NaN
611.0081805999998	2.0017	sub-02	1	sequence	blank	blank	NaN	NaN	NaN	NaN	NaN	NaN	NaN	NaN	NaN	NaN	NaN	NaN
613.0098397000002	0.3002	sub-02	1	sequence	fixation	dot	NaN	NaN	NaN	NaN	NaN	NaN	NaN	NaN	NaN	NaN	NaN	NaN
613.3274941999998	0.0993	sub-02	1	sequence	stimulus	Stuhl	NaN	NaN	32.0	NaN	NaN	5.0	1.0	NaN	NaN	NaN	NaN	NaN
613.4267451000005	0.0335	sub-02	1	sequence	interval	dot	NaN	NaN	NaN	NaN	NaN	NaN	NaN	NaN	NaN	NaN	NaN	NaN
613.4602217000001	0.0999	sub-02	1	sequence	stimulus	Gesicht	NaN	NaN	32.0	NaN	NaN	1.0	2.0	NaN	NaN	NaN	NaN	NaN
613.5601191000005	0.0336	sub-02	1	sequence	interval	dot	NaN	NaN	NaN	NaN	NaN	NaN	NaN	NaN	NaN	NaN	NaN	NaN
613.5936854000001	0.0999	sub-02	1	sequence	stimulus	Katze	NaN	NaN	32.0	NaN	NaN	3.0	3.0	NaN	NaN	NaN	NaN	NaN
613.6936287999997	0.0335	sub-02	1	sequence	interval	dot	NaN	NaN	NaN	NaN	NaN	NaN	NaN	NaN	NaN	NaN	NaN	NaN
613.7271218000005	0.0999	sub-02	1	sequence	stimulus	Schuh	NaN	NaN	32.0	NaN	NaN	4.0	4.0	NaN	NaN	NaN	NaN	NaN
613.8270543999997	0.0335	sub-02	1	sequence	interval	dot	NaN	NaN	NaN	NaN	NaN	NaN	NaN	NaN	NaN	NaN	NaN	NaN
613.8605540999997	0.0999	sub-02	1	sequence	stimulus	Haus	NaN	NaN	32.0	NaN	NaN	2.0	5.0	NaN	NaN	NaN	NaN	NaN
613.9604574000005	0.0334	sub-02	1	sequence	interval	dot	NaN	NaN	NaN	NaN	NaN	NaN	NaN	NaN	NaN	NaN	NaN	NaN
613.9938321999998	8.5387	sub-02	1	sequence	delay	dot	NaN	NaN	NaN	NaN	NaN	NaN	NaN	NaN	NaN	NaN	NaN	NaN
622.5122547000001	0.8064	sub-02	1	sequence	choice	choice	right	NaN	NaN	-8.043596599999546	True	NaN	NaN	right	True	2.0	5.0	5.0
623.3189321	0.4997	sub-02	1	sequence	feedback	NaN	NaN	NaN	NaN	NaN	NaN	NaN	NaN	NaN	NaN	NaN	NaN	NaN
623.8187820000003	1.0005	sub-02	1	sequence	cue	Gesicht	NaN	NaN	NaN	NaN	NaN	NaN	NaN	NaN	NaN	NaN	NaN	NaN
624.8192958999998	2.0017	sub-02	1	sequence	blank	blank	NaN	NaN	NaN	NaN	NaN	NaN	NaN	NaN	NaN	NaN	NaN	NaN
626.8210076000005	0.3003	sub-02	1	sequence	fixation	dot	NaN	NaN	NaN	NaN	NaN	NaN	NaN	NaN	NaN	NaN	NaN	NaN
627.1387112000002	0.0993	sub-02	1	sequence	stimulus	Schuh	NaN	NaN	32.0	NaN	NaN	4.0	1.0	NaN	NaN	NaN	NaN	NaN
627.2380500999998	0.0334	sub-02	1	sequence	interval	dot	NaN	NaN	NaN	NaN	NaN	NaN	NaN	NaN	NaN	NaN	NaN	NaN
627.2714793000005	0.1001	sub-02	1	sequence	stimulus	Stuhl	NaN	NaN	32.0	NaN	NaN	5.0	2.0	NaN	NaN	NaN	NaN	NaN
627.3715345999999	0.0337	sub-02	1	sequence	interval	dot	NaN	NaN	NaN	NaN	NaN	NaN	NaN	NaN	NaN	NaN	NaN	NaN
627.405229	0.0997	sub-02	1	sequence	stimulus	Katze	NaN	NaN	32.0	NaN	NaN	3.0	3.0	NaN	NaN	NaN	NaN	NaN
627.5049475000005	0.0335	sub-02	1	sequence	interval	dot	NaN	NaN	NaN	NaN	NaN	NaN	NaN	NaN	NaN	NaN	NaN	NaN
627.5384234000003	0.1	sub-02	1	sequence	stimulus	Gesicht	NaN	NaN	32.0	NaN	NaN	1.0	4.0	NaN	NaN	NaN	NaN	NaN
627.6383912000001	0.0335	sub-02	1	sequence	interval	dot	NaN	NaN	NaN	NaN	NaN	NaN	NaN	NaN	NaN	NaN	NaN	NaN
627.6719002	0.0999	sub-02	1	sequence	stimulus	Haus	NaN	NaN	32.0	NaN	NaN	2.0	5.0	NaN	NaN	NaN	NaN	NaN
627.7718101999999	0.0333	sub-02	1	sequence	interval	dot	NaN	NaN	NaN	NaN	NaN	NaN	NaN	NaN	NaN	NaN	NaN	NaN
627.8051574000001	8.5384	sub-02	1	sequence	delay	dot	NaN	NaN	NaN	NaN	NaN	NaN	NaN	NaN	NaN	NaN	NaN	NaN
636.3178153999997	0.6953	sub-02	1	sequence	choice	choice	left	NaN	NaN	-8.15805999999975	True	NaN	NaN	left	True	4.0	5.0	4.0
637.0133707000005	0.4999	sub-02	1	sequence	feedback	NaN	NaN	NaN	NaN	NaN	NaN	NaN	NaN	NaN	NaN	NaN	NaN	NaN
637.5134997000005	1.0003	sub-02	1	sequence	cue	Haus	NaN	NaN	NaN	NaN	NaN	NaN	NaN	NaN	NaN	NaN	NaN	NaN
638.5138451000003	2.0014	sub-02	1	sequence	blank	blank	NaN	NaN	NaN	NaN	NaN	NaN	NaN	NaN	NaN	NaN	NaN	NaN
640.5152552	0.3004	sub-02	1	sequence	fixation	dot	NaN	NaN	NaN	NaN	NaN	NaN	NaN	NaN	NaN	NaN	NaN	NaN
640.8338629999998	0.1151	sub-02	1	sequence	stimulus	Schuh	NaN	NaN	64.0	NaN	NaN	4.0	1.0	NaN	NaN	NaN	NaN	NaN
640.9489169999997	0.0669	sub-02	1	sequence	interval	dot	NaN	NaN	NaN	NaN	NaN	NaN	NaN	NaN	NaN	NaN	NaN	NaN
641.0157958	0.0999	sub-02	1	sequence	stimulus	Stuhl	NaN	NaN	64.0	NaN	NaN	5.0	2.0	NaN	NaN	NaN	NaN	NaN
641.1157313000003	0.0669	sub-02	1	sequence	interval	dot	NaN	NaN	NaN	NaN	NaN	NaN	NaN	NaN	NaN	NaN	NaN	NaN
641.1826489000005	0.0999	sub-02	1	sequence	stimulus	Gesicht	NaN	NaN	64.0	NaN	NaN	1.0	3.0	NaN	NaN	NaN	NaN	NaN
641.2825112999999	0.0669	sub-02	1	sequence	interval	dot	NaN	NaN	NaN	NaN	NaN	NaN	NaN	NaN	NaN	NaN	NaN	NaN
641.3494006999999	0.1	sub-02	1	sequence	stimulus	Haus	NaN	NaN	64.0	NaN	NaN	2.0	4.0	NaN	NaN	NaN	NaN	NaN
641.4494176999997	0.0669	sub-02	1	sequence	interval	dot	NaN	NaN	NaN	NaN	NaN	NaN	NaN	NaN	NaN	NaN	NaN	NaN
641.5163252000002	0.0998	sub-02	1	sequence	stimulus	Katze	NaN	NaN	64.0	NaN	NaN	3.0	5.0	NaN	NaN	NaN	NaN	NaN
641.6160989999998	0.0669	sub-02	1	sequence	interval	dot	NaN	NaN	NaN	NaN	NaN	NaN	NaN	NaN	NaN	NaN	NaN	NaN
641.6829678000004	8.3886	sub-02	1	sequence	delay	dot	NaN	NaN	NaN	NaN	NaN	NaN	NaN	NaN	NaN	NaN	NaN	NaN
650.0454596999998	0.9289	sub-02	1	sequence	choice	choice	right	NaN	NaN	-7.910750199999711	True	NaN	NaN	right	True	2.0	4.0	4.0
650.9745912999997	0.4998	sub-02	1	sequence	feedback	NaN	NaN	NaN	NaN	NaN	NaN	NaN	NaN	NaN	NaN	NaN	NaN	NaN
655.2950348000004	0.4993	sub-02	1	localizer	stimulus	Haus	NaN	180	2.6855781000003844	-8.053675000000112	True	NaN	NaN	NaN	NaN	NaN	NaN	NaN
655.7777477999998	2.6856	sub-02	1	localizer	blank	interval	NaN	NaN	NaN	NaN	NaN	NaN	NaN	NaN	NaN	NaN	NaN	NaN
658.7645240000002	0.4994	sub-02	1	localizer	stimulus	Haus	NaN	0	2.601854999999887	NaN	True	NaN	NaN	NaN	NaN	NaN	NaN	NaN
659.2474696999998	2.6019	sub-02	1	localizer	blank	interval	NaN	NaN	NaN	NaN	NaN	NaN	NaN	NaN	NaN	NaN	NaN	NaN
662.1503091000004	0.4995	sub-02	1	localizer	stimulus	Stuhl	NaN	0	2.1848879999997735	NaN	True	NaN	NaN	NaN	NaN	NaN	NaN	NaN
662.6333595000006	2.1849	sub-02	1	localizer	blank	interval	NaN	NaN	NaN	NaN	NaN	NaN	NaN	NaN	NaN	NaN	NaN	NaN
665.1193967999998	0.4996	sub-02	1	localizer	stimulus	Schuh	NaN	0	3.3360861000001023	NaN	True	NaN	NaN	NaN	NaN	NaN	NaN	NaN
665.6023037000004	3.3361	sub-02	1	localizer	blank	interval	NaN	NaN	NaN	NaN	NaN	NaN	NaN	NaN	NaN	NaN	NaN	NaN
669.2394308000003	0.4995	sub-02	1	localizer	stimulus	Katze	NaN	0	2.3349442999997336	NaN	True	NaN	NaN	NaN	NaN	NaN	NaN	NaN
669.7224338000005	2.3349	sub-02	1	localizer	blank	interval	NaN	NaN	NaN	NaN	NaN	NaN	NaN	NaN	NaN	NaN	NaN	NaN
672.358577	0.4995	sub-02	1	localizer	stimulus	Gesicht	NaN	0	2.7353541000002224	-8.101935099999537	False	NaN	NaN	NaN	NaN	NaN	NaN	NaN
672.8415968999998	2.7354	sub-02	1	localizer	blank	interval	NaN	NaN	NaN	NaN	NaN	NaN	NaN	NaN	NaN	NaN	NaN	NaN
675.8782713999999	0.4994	sub-02	1	localizer	stimulus	Katze	NaN	0	2.702297599999838	NaN	True	NaN	NaN	NaN	NaN	NaN	NaN	NaN
676.3610938000002	2.7023	sub-02	1	localizer	blank	interval	NaN	NaN	NaN	NaN	NaN	NaN	NaN	NaN	NaN	NaN	NaN	NaN
679.3644248	0.4994	sub-02	1	localizer	stimulus	Schuh	NaN	0	2.5351825999996436	NaN	True	NaN	NaN	NaN	NaN	NaN	NaN	NaN
679.8472154000001	2.5352	sub-02	1	localizer	blank	interval	NaN	NaN	NaN	NaN	NaN	NaN	NaN	NaN	NaN	NaN	NaN	NaN
682.6835619000003	0.4995	sub-02	1	localizer	stimulus	Schuh	NaN	180	2.7854694999996354	-8.210444700000153	True	NaN	NaN	NaN	NaN	NaN	NaN	NaN
683.1664563000004	2.7855	sub-02	1	localizer	blank	interval	NaN	NaN	NaN	NaN	NaN	NaN	NaN	NaN	NaN	NaN	NaN	NaN
686.2531329000003	0.4995	sub-02	1	localizer	stimulus	Gesicht	NaN	0	1.6178651999998692	NaN	True	NaN	NaN	NaN	NaN	NaN	NaN	NaN
686.7360927	1.6179	sub-02	1	localizer	blank	interval	NaN	NaN	NaN	NaN	NaN	NaN	NaN	NaN	NaN	NaN	NaN	NaN
688.6551958999999	0.4994	sub-02	1	localizer	stimulus	Gesicht	NaN	0	2.001490399999966	NaN	True	NaN	NaN	NaN	NaN	NaN	NaN	NaN
689.1381296	2.0015	sub-02	1	localizer	blank	interval	NaN	NaN	NaN	NaN	NaN	NaN	NaN	NaN	NaN	NaN	NaN	NaN
691.4408229000001	0.4994	sub-02	1	localizer	stimulus	Stuhl	NaN	0	2.2348222999999052	NaN	True	NaN	NaN	NaN	NaN	NaN	NaN	NaN
691.9237322999998	2.2348	sub-02	1	localizer	blank	interval	NaN	NaN	NaN	NaN	NaN	NaN	NaN	NaN	NaN	NaN	NaN	NaN
694.4597130000002	0.4995	sub-02	1	localizer	stimulus	Katze	NaN	0	2.8522563000005903	NaN	True	NaN	NaN	NaN	NaN	NaN	NaN	NaN
694.9427194999998	2.8523	sub-02	1	localizer	blank	interval	NaN	NaN	NaN	NaN	NaN	NaN	NaN	NaN	NaN	NaN	NaN	NaN
698.0960087000003	0.4996	sub-02	1	localizer	stimulus	Katze	NaN	180	1.5844280000001163	-8.255137500000274	True	NaN	NaN	NaN	NaN	NaN	NaN	NaN
698.5790520999999	1.5844	sub-02	1	localizer	blank	interval	NaN	NaN	NaN	NaN	NaN	NaN	NaN	NaN	NaN	NaN	NaN	NaN
700.4645539000003	0.4995	sub-02	1	localizer	stimulus	Haus	NaN	0	2.45179570000073	NaN	True	NaN	NaN	NaN	NaN	NaN	NaN	NaN
700.9475770999998	2.4518	sub-02	1	localizer	blank	interval	NaN	NaN	NaN	NaN	NaN	NaN	NaN	NaN	NaN	NaN	NaN	NaN
703.7005255000004	0.4995	sub-02	1	localizer	stimulus	Katze	NaN	0	2.335097300000598	NaN	True	NaN	NaN	NaN	NaN	NaN	NaN	NaN
704.1834608999998	2.3351	sub-02	1	localizer	blank	interval	NaN	NaN	NaN	NaN	NaN	NaN	NaN	NaN	NaN	NaN	NaN	NaN
706.8197316000005	0.4995	sub-02	1	localizer	stimulus	Stuhl	NaN	0	2.6521170999994865	NaN	True	NaN	NaN	NaN	NaN	NaN	NaN	NaN
707.3026286000004	2.6521	sub-02	1	localizer	blank	interval	NaN	NaN	NaN	NaN	NaN	NaN	NaN	NaN	NaN	NaN	NaN	NaN
710.2558727000005	0.4996	sub-02	1	localizer	stimulus	Stuhl	NaN	0	1.015718200000265	NaN	True	NaN	NaN	NaN	NaN	NaN	NaN	NaN
710.7405116	1.0157	sub-02	1	localizer	blank	interval	NaN	NaN	NaN	NaN	NaN	NaN	NaN	NaN	NaN	NaN	NaN	NaN
712.0574255000001	0.4997	sub-02	1	localizer	stimulus	Haus	NaN	0	2.3182226000008086	NaN	True	NaN	NaN	NaN	NaN	NaN	NaN	NaN
712.5404430999997	2.3182	sub-02	1	localizer	blank	interval	NaN	NaN	NaN	NaN	NaN	NaN	NaN	NaN	NaN	NaN	NaN	NaN
715.1598071999997	0.4995	sub-02	1	localizer	stimulus	Schuh	NaN	0	2.2352332000000388	NaN	True	NaN	NaN	NaN	NaN	NaN	NaN	NaN
715.6426911999997	2.2352	sub-02	1	localizer	blank	interval	NaN	NaN	NaN	NaN	NaN	NaN	NaN	NaN	NaN	NaN	NaN	NaN
718.1789233999998	0.4995	sub-02	1	localizer	stimulus	Stuhl	NaN	180	3.2356885000008333	-8.233665099999598	True	NaN	NaN	NaN	NaN	NaN	NaN	NaN
718.6619708999997	3.2357	sub-02	1	localizer	blank	interval	NaN	NaN	NaN	NaN	NaN	NaN	NaN	NaN	NaN	NaN	NaN	NaN
722.1988130999998	0.4995	sub-02	1	localizer	stimulus	Gesicht	NaN	0	1.5010572000001048	NaN	True	NaN	NaN	NaN	NaN	NaN	NaN	NaN
722.6818241999999	1.5011	sub-02	1	localizer	blank	interval	NaN	NaN	NaN	NaN	NaN	NaN	NaN	NaN	NaN	NaN	NaN	NaN
724.4839571000002	0.4995	sub-02	1	localizer	stimulus	Haus	NaN	0	2.7522023000001354	NaN	True	NaN	NaN	NaN	NaN	NaN	NaN	NaN
724.9669077999997	2.7522	sub-02	1	localizer	blank	interval	NaN	NaN	NaN	NaN	NaN	NaN	NaN	NaN	NaN	NaN	NaN	NaN
728.0201889	0.4995	sub-02	1	localizer	stimulus	Gesicht	NaN	180	2.301775099999759	-8.274986699999317	True	NaN	NaN	NaN	NaN	NaN	NaN	NaN
728.5032194000005	2.3018	sub-02	1	localizer	blank	interval	NaN	NaN	NaN	NaN	NaN	NaN	NaN	NaN	NaN	NaN	NaN	NaN
731.1061164000002	0.4995	sub-02	1	localizer	stimulus	Schuh	NaN	0	2.735228699999425	NaN	True	NaN	NaN	NaN	NaN	NaN	NaN	NaN
731.5891546000003	2.7352	sub-02	1	localizer	blank	interval	NaN	NaN	NaN	NaN	NaN	NaN	NaN	NaN	NaN	NaN	NaN	NaN
737.8109505000002	1.0006	sub-02	1	sequence	cue	Haus	NaN	NaN	NaN	NaN	NaN	NaN	NaN	NaN	NaN	NaN	NaN	NaN
738.8115919000002	2.0015	sub-02	1	sequence	blank	blank	NaN	NaN	NaN	NaN	NaN	NaN	NaN	NaN	NaN	NaN	NaN	NaN
740.8131267999997	0.3002	sub-02	1	sequence	fixation	dot	NaN	NaN	NaN	NaN	NaN	NaN	NaN	NaN	NaN	NaN	NaN	NaN
741.1328831999999	0.1139	sub-02	1	sequence	stimulus	Gesicht	NaN	NaN	512.0	NaN	NaN	1.0	1.0	NaN	NaN	NaN	NaN	NaN
741.2467692999999	0.5171	sub-02	1	sequence	interval	dot	NaN	NaN	NaN	NaN	NaN	NaN	NaN	NaN	NaN	NaN	NaN	NaN
741.7638858	0.0999	sub-02	1	sequence	stimulus	Schuh	NaN	NaN	512.0	NaN	NaN	4.0	2.0	NaN	NaN	NaN	NaN	NaN
741.8638185	0.5172	sub-02	1	sequence	interval	dot	NaN	NaN	NaN	NaN	NaN	NaN	NaN	NaN	NaN	NaN	NaN	NaN
742.3810453000006	0.1	sub-02	1	sequence	stimulus	Katze	NaN	NaN	512.0	NaN	NaN	3.0	3.0	NaN	NaN	NaN	NaN	NaN
742.4810405999997	0.5171	sub-02	1	sequence	interval	dot	NaN	NaN	NaN	NaN	NaN	NaN	NaN	NaN	NaN	NaN	NaN	NaN
742.998122	0.1	sub-02	1	sequence	stimulus	Stuhl	NaN	NaN	512.0	NaN	NaN	5.0	4.0	NaN	NaN	NaN	NaN	NaN
743.0981455000001	0.5172	sub-02	1	sequence	interval	dot	NaN	NaN	NaN	NaN	NaN	NaN	NaN	NaN	NaN	NaN	NaN	NaN
743.6153746999998	0.0999	sub-02	1	sequence	stimulus	Haus	NaN	NaN	512.0	NaN	NaN	2.0	5.0	NaN	NaN	NaN	NaN	NaN
743.7153021000004	0.5171	sub-02	1	sequence	interval	dot	NaN	NaN	NaN	NaN	NaN	NaN	NaN	NaN	NaN	NaN	NaN	NaN
744.2323879000005	6.1367	sub-02	1	sequence	delay	dot	NaN	NaN	NaN	NaN	NaN	NaN	NaN	NaN	NaN	NaN	NaN	NaN
750.3512249000005	0.8873	sub-02	1	sequence	choice	choice	left	NaN	NaN	-7.959909799999878	True	NaN	NaN	left	True	5.0	3.0	5.0
751.2388769999998	0.4998	sub-02	1	sequence	feedback	NaN	NaN	NaN	NaN	NaN	NaN	NaN	NaN	NaN	NaN	NaN	NaN	NaN
751.7388170000004	1.0006	sub-02	1	sequence	cue	Gesicht	NaN	NaN	NaN	NaN	NaN	NaN	NaN	NaN	NaN	NaN	NaN	NaN
752.7394492000003	2.0017	sub-02	1	sequence	blank	blank	NaN	NaN	NaN	NaN	NaN	NaN	NaN	NaN	NaN	NaN	NaN	NaN
754.7411263000004	0.3001	sub-02	1	sequence	fixation	dot	NaN	NaN	NaN	NaN	NaN	NaN	NaN	NaN	NaN	NaN	NaN	NaN
755.0588174000004	0.0991	sub-02	1	sequence	stimulus	Schuh	NaN	NaN	32.0	NaN	NaN	4.0	1.0	NaN	NaN	NaN	NaN	NaN
755.1579162999997	0.0335	sub-02	1	sequence	interval	dot	NaN	NaN	NaN	NaN	NaN	NaN	NaN	NaN	NaN	NaN	NaN	NaN
755.1913816000006	0.1002	sub-02	1	sequence	stimulus	Stuhl	NaN	NaN	32.0	NaN	NaN	5.0	2.0	NaN	NaN	NaN	NaN	NaN
755.2915646000001	0.0338	sub-02	1	sequence	interval	dot	NaN	NaN	NaN	NaN	NaN	NaN	NaN	NaN	NaN	NaN	NaN	NaN
755.3253815999997	0.0993	sub-02	1	sequence	stimulus	Katze	NaN	NaN	32.0	NaN	NaN	3.0	3.0	NaN	NaN	NaN	NaN	NaN
755.4247119000001	0.0335	sub-02	1	sequence	interval	dot	NaN	NaN	NaN	NaN	NaN	NaN	NaN	NaN	NaN	NaN	NaN	NaN
755.4582280000004	0.1	sub-02	1	sequence	stimulus	Gesicht	NaN	NaN	32.0	NaN	NaN	1.0	4.0	NaN	NaN	NaN	NaN	NaN
755.5581923999998	0.0335	sub-02	1	sequence	interval	dot	NaN	NaN	NaN	NaN	NaN	NaN	NaN	NaN	NaN	NaN	NaN	NaN
755.5916914999998	0.0999	sub-02	1	sequence	stimulus	Haus	NaN	NaN	32.0	NaN	NaN	2.0	5.0	NaN	NaN	NaN	NaN	NaN
755.6916391000004	0.0336	sub-02	1	sequence	interval	dot	NaN	NaN	NaN	NaN	NaN	NaN	NaN	NaN	NaN	NaN	NaN	NaN
755.7252040000003	8.5219	sub-02	1	sequence	delay	dot	NaN	NaN	NaN	NaN	NaN	NaN	NaN	NaN	NaN	NaN	NaN	NaN
764.2349470999998	0.8315	sub-02	1	sequence	choice	choice	right	NaN	NaN	-7.9979827999995905	True	NaN	NaN	right	True	5.0	4.0	4.0
765.0667579999999	0.4997	sub-02	1	sequence	feedback	NaN	NaN	NaN	NaN	NaN	NaN	NaN	NaN	NaN	NaN	NaN	NaN	NaN
765.5666696999997	1.0004	sub-02	1	sequence	cue	Haus	NaN	NaN	NaN	NaN	NaN	NaN	NaN	NaN	NaN	NaN	NaN	NaN
766.5670490000002	2.0018	sub-02	1	sequence	blank	blank	NaN	NaN	NaN	NaN	NaN	NaN	NaN	NaN	NaN	NaN	NaN	NaN
768.5688216999997	0.3	sub-02	1	sequence	fixation	dot	NaN	NaN	NaN	NaN	NaN	NaN	NaN	NaN	NaN	NaN	NaN	NaN
768.8872561999997	0.1151	sub-02	1	sequence	stimulus	Stuhl	NaN	NaN	32.0	NaN	NaN	5.0	1.0	NaN	NaN	NaN	NaN	NaN
769.0023330000004	0.0335	sub-02	1	sequence	interval	dot	NaN	NaN	NaN	NaN	NaN	NaN	NaN	NaN	NaN	NaN	NaN	NaN
769.0358668999997	0.0999	sub-02	1	sequence	stimulus	Gesicht	NaN	NaN	32.0	NaN	NaN	1.0	2.0	NaN	NaN	NaN	NaN	NaN
769.1357699999999	0.0335	sub-02	1	sequence	interval	dot	NaN	NaN	NaN	NaN	NaN	NaN	NaN	NaN	NaN	NaN	NaN	NaN
769.1692453000005	0.1002	sub-02	1	sequence	stimulus	Katze	NaN	NaN	32.0	NaN	NaN	3.0	3.0	NaN	NaN	NaN	NaN	NaN
769.2694305000005	0.0337	sub-02	1	sequence	interval	dot	NaN	NaN	NaN	NaN	NaN	NaN	NaN	NaN	NaN	NaN	NaN	NaN
769.3030917000006	0.0997	sub-02	1	sequence	stimulus	Schuh	NaN	NaN	32.0	NaN	NaN	4.0	4.0	NaN	NaN	NaN	NaN	NaN
769.4027861000004	0.0335	sub-02	1	sequence	interval	dot	NaN	NaN	NaN	NaN	NaN	NaN	NaN	NaN	NaN	NaN	NaN	NaN
769.4363091000005	0.0999	sub-02	1	sequence	stimulus	Haus	NaN	NaN	32.0	NaN	NaN	2.0	5.0	NaN	NaN	NaN	NaN	NaN
769.5362436000005	0.0333	sub-02	1	sequence	interval	dot	NaN	NaN	NaN	NaN	NaN	NaN	NaN	NaN	NaN	NaN	NaN	NaN
769.5695278000003	8.522	sub-02	1	sequence	delay	dot	NaN	NaN	NaN	NaN	NaN	NaN	NaN	NaN	NaN	NaN	NaN	NaN
778.0666201000004	0.6777	sub-02	1	sequence	choice	choice	left	NaN	NaN	-8.163086799999292	True	NaN	NaN	left	True	5.0	2.0	5.0
778.7445681999998	0.4998	sub-02	1	sequence	feedback	NaN	NaN	NaN	NaN	NaN	NaN	NaN	NaN	NaN	NaN	NaN	NaN	NaN
779.2445607999998	1.0006	sub-02	1	sequence	cue	Schuh	NaN	NaN	NaN	NaN	NaN	NaN	NaN	NaN	NaN	NaN	NaN	NaN
780.2451471000004	2.0012	sub-02	1	sequence	blank	blank	NaN	NaN	NaN	NaN	NaN	NaN	NaN	NaN	NaN	NaN	NaN	NaN
782.2463307999997	0.3003	sub-02	1	sequence	fixation	dot	NaN	NaN	NaN	NaN	NaN	NaN	NaN	NaN	NaN	NaN	NaN	NaN
782.5649957000005	0.115	sub-02	1	sequence	stimulus	Katze	NaN	NaN	128.0	NaN	NaN	3.0	1.0	NaN	NaN	NaN	NaN	NaN
782.6800427999997	0.1337	sub-02	1	sequence	interval	dot	NaN	NaN	NaN	NaN	NaN	NaN	NaN	NaN	NaN	NaN	NaN	NaN
782.8137059999999	0.0999	sub-02	1	sequence	stimulus	Haus	NaN	NaN	128.0	NaN	NaN	2.0	2.0	NaN	NaN	NaN	NaN	NaN
782.9136323000002	0.1337	sub-02	1	sequence	interval	dot	NaN	NaN	NaN	NaN	NaN	NaN	NaN	NaN	NaN	NaN	NaN	NaN
783.0473198	0.0999	sub-02	1	sequence	stimulus	Stuhl	NaN	NaN	128.0	NaN	NaN	5.0	3.0	NaN	NaN	NaN	NaN	NaN
783.1471786000002	0.1336	sub-02	1	sequence	interval	dot	NaN	NaN	NaN	NaN	NaN	NaN	NaN	NaN	NaN	NaN	NaN	NaN
783.2807788	0.0999	sub-02	1	sequence	stimulus	Schuh	NaN	NaN	128.0	NaN	NaN	4.0	4.0	NaN	NaN	NaN	NaN	NaN
783.3806390999998	0.1352	sub-02	1	sequence	interval	dot	NaN	NaN	NaN	NaN	NaN	NaN	NaN	NaN	NaN	NaN	NaN	NaN
783.5158435000003	0.115	sub-02	1	sequence	stimulus	Gesicht	NaN	NaN	128.0	NaN	NaN	1.0	5.0	NaN	NaN	NaN	NaN	NaN
783.630889	0.1335	sub-02	1	sequence	interval	dot	NaN	NaN	NaN	NaN	NaN	NaN	NaN	NaN	NaN	NaN	NaN	NaN
783.7643833000002	8.0715	sub-02	1	sequence	delay	dot	NaN	NaN	NaN	NaN	NaN	NaN	NaN	NaN	NaN	NaN	NaN	NaN
791.8203401000001	0.7349	sub-02	1	sequence	choice	choice	left	NaN	NaN	-8.106605899999522	True	NaN	NaN	left	True	4.0	3.0	4.0
792.5555205999999	0.4998	sub-02	1	sequence	feedback	NaN	NaN	NaN	NaN	NaN	NaN	NaN	NaN	NaN	NaN	NaN	NaN	NaN
793.0556016999999	1.0005	sub-02	1	sequence	cue	Haus	NaN	NaN	NaN	NaN	NaN	NaN	NaN	NaN	NaN	NaN	NaN	NaN
794.0561592000004	2.0015	sub-02	1	sequence	blank	blank	NaN	NaN	NaN	NaN	NaN	NaN	NaN	NaN	NaN	NaN	NaN	NaN
796.0576350000001	0.3003	sub-02	1	sequence	fixation	dot	NaN	NaN	NaN	NaN	NaN	NaN	NaN	NaN	NaN	NaN	NaN	NaN
796.3757604000002	0.1157	sub-02	1	sequence	stimulus	Katze	NaN	NaN	64.0	NaN	NaN	3.0	1.0	NaN	NaN	NaN	NaN	NaN
796.4914429	0.0668	sub-02	1	sequence	interval	dot	NaN	NaN	NaN	NaN	NaN	NaN	NaN	NaN	NaN	NaN	NaN	NaN
796.5582114999997	0.0999	sub-02	1	sequence	stimulus	Gesicht	NaN	NaN	64.0	NaN	NaN	1.0	2.0	NaN	NaN	NaN	NaN	NaN
796.6581584000005	0.067	sub-02	1	sequence	interval	dot	NaN	NaN	NaN	NaN	NaN	NaN	NaN	NaN	NaN	NaN	NaN	NaN
796.7251563999998	0.0999	sub-02	1	sequence	stimulus	Haus	NaN	NaN	64.0	NaN	NaN	2.0	3.0	NaN	NaN	NaN	NaN	NaN
796.8250071000002	0.0668	sub-02	1	sequence	interval	dot	NaN	NaN	NaN	NaN	NaN	NaN	NaN	NaN	NaN	NaN	NaN	NaN
796.8918172000003	0.0999	sub-02	1	sequence	stimulus	Schuh	NaN	NaN	64.0	NaN	NaN	4.0	4.0	NaN	NaN	NaN	NaN	NaN
796.9917458999998	0.0669	sub-02	1	sequence	interval	dot	NaN	NaN	NaN	NaN	NaN	NaN	NaN	NaN	NaN	NaN	NaN	NaN
797.0586148000002	0.0998	sub-02	1	sequence	stimulus	Stuhl	NaN	NaN	64.0	NaN	NaN	5.0	5.0	NaN	NaN	NaN	NaN	NaN
797.1584518999998	0.0667	sub-02	1	sequence	interval	dot	NaN	NaN	NaN	NaN	NaN	NaN	NaN	NaN	NaN	NaN	NaN	NaN
797.2251600999998	8.3885	sub-02	1	sequence	delay	dot	NaN	NaN	NaN	NaN	NaN	NaN	NaN	NaN	NaN	NaN	NaN	NaN
805.5999601000003	0.9835	sub-02	1	sequence	choice	choice	left	NaN	NaN	-7.844264599999406	True	NaN	NaN	left	True	3.0	5.0	3.0
806.5837268000005	0.4997	sub-02	1	sequence	feedback	NaN	NaN	NaN	NaN	NaN	NaN	NaN	NaN	NaN	NaN	NaN	NaN	NaN
807.0836804999999	1.0003	sub-02	1	sequence	cue	Schuh	NaN	NaN	NaN	NaN	NaN	NaN	NaN	NaN	NaN	NaN	NaN	NaN
808.0839991000003	2.0015	sub-02	1	sequence	blank	blank	NaN	NaN	NaN	NaN	NaN	NaN	NaN	NaN	NaN	NaN	NaN	NaN
810.0855066000004	0.3003	sub-02	1	sequence	fixation	dot	NaN	NaN	NaN	NaN	NaN	NaN	NaN	NaN	NaN	NaN	NaN	NaN
810.4041471999999	0.115	sub-02	1	sequence	stimulus	Stuhl	NaN	NaN	128.0	NaN	NaN	5.0	1.0	NaN	NaN	NaN	NaN	NaN
810.5191947000003	0.1335	sub-02	1	sequence	interval	dot	NaN	NaN	NaN	NaN	NaN	NaN	NaN	NaN	NaN	NaN	NaN	NaN
810.6527369000005	0.1	sub-02	1	sequence	stimulus	Schuh	NaN	NaN	128.0	NaN	NaN	4.0	2.0	NaN	NaN	NaN	NaN	NaN
810.7527749999999	0.1336	sub-02	1	sequence	interval	dot	NaN	NaN	NaN	NaN	NaN	NaN	NaN	NaN	NaN	NaN	NaN	NaN
810.8864049000003	0.0999	sub-02	1	sequence	stimulus	Gesicht	NaN	NaN	128.0	NaN	NaN	1.0	3.0	NaN	NaN	NaN	NaN	NaN
810.9863034	0.1335	sub-02	1	sequence	interval	dot	NaN	NaN	NaN	NaN	NaN	NaN	NaN	NaN	NaN	NaN	NaN	NaN
811.1198443000003	0.1	sub-02	1	sequence	stimulus	Katze	NaN	NaN	128.0	NaN	NaN	3.0	4.0	NaN	NaN	NaN	NaN	NaN
811.2198076000004	0.1336	sub-02	1	sequence	interval	dot	NaN	NaN	NaN	NaN	NaN	NaN	NaN	NaN	NaN	NaN	NaN	NaN
811.3534314999997	0.1	sub-02	1	sequence	stimulus	Haus	NaN	NaN	128.0	NaN	NaN	2.0	5.0	NaN	NaN	NaN	NaN	NaN
811.4534193999998	0.1334	sub-02	1	sequence	interval	dot	NaN	NaN	NaN	NaN	NaN	NaN	NaN	NaN	NaN	NaN	NaN	NaN
811.5867782000005	8.0718	sub-02	1	sequence	delay	dot	NaN	NaN	NaN	NaN	NaN	NaN	NaN	NaN	NaN	NaN	NaN	NaN
819.6397508999999	0.688	sub-02	1	sequence	choice	choice	right	NaN	NaN	-8.145721599999888	True	NaN	NaN	right	True	5.0	2.0	2.0
820.3279042000004	0.5	sub-02	1	sequence	feedback	NaN	NaN	NaN	NaN	NaN	NaN	NaN	NaN	NaN	NaN	NaN	NaN	NaN
820.8281721000003	1.0002	sub-02	1	sequence	cue	Katze	NaN	NaN	NaN	NaN	NaN	NaN	NaN	NaN	NaN	NaN	NaN	NaN
821.8284125999999	2.0015	sub-02	1	sequence	blank	blank	NaN	NaN	NaN	NaN	NaN	NaN	NaN	NaN	NaN	NaN	NaN	NaN
823.8299653000004	0.3002	sub-02	1	sequence	fixation	dot	NaN	NaN	NaN	NaN	NaN	NaN	NaN	NaN	NaN	NaN	NaN	NaN
824.1486599	0.1149	sub-02	1	sequence	stimulus	Stuhl	NaN	NaN	512.0	NaN	NaN	5.0	1.0	NaN	NaN	NaN	NaN	NaN
824.2635605000005	0.5173	sub-02	1	sequence	interval	dot	NaN	NaN	NaN	NaN	NaN	NaN	NaN	NaN	NaN	NaN	NaN	NaN
824.7808771999998	0.0999	sub-02	1	sequence	stimulus	Schuh	NaN	NaN	512.0	NaN	NaN	4.0	2.0	NaN	NaN	NaN	NaN	NaN
824.8808238000001	0.5172	sub-02	1	sequence	interval	dot	NaN	NaN	NaN	NaN	NaN	NaN	NaN	NaN	NaN	NaN	NaN	NaN
825.3980393000002	0.1001	sub-02	1	sequence	stimulus	Gesicht	NaN	NaN	512.0	NaN	NaN	1.0	3.0	NaN	NaN	NaN	NaN	NaN
825.4981342000001	0.5171	sub-02	1	sequence	interval	dot	NaN	NaN	NaN	NaN	NaN	NaN	NaN	NaN	NaN	NaN	NaN	NaN
826.0152810999998	0.0999	sub-02	1	sequence	stimulus	Haus	NaN	NaN	512.0	NaN	NaN	2.0	4.0	NaN	NaN	NaN	NaN	NaN
826.1151694999999	0.5172	sub-02	1	sequence	interval	dot	NaN	NaN	NaN	NaN	NaN	NaN	NaN	NaN	NaN	NaN	NaN	NaN
826.6323976000003	0.1	sub-02	1	sequence	stimulus	Katze	NaN	NaN	512.0	NaN	NaN	3.0	5.0	NaN	NaN	NaN	NaN	NaN
826.7323561000003	0.517	sub-02	1	sequence	interval	dot	NaN	NaN	NaN	NaN	NaN	NaN	NaN	NaN	NaN	NaN	NaN	NaN
827.2493894999998	6.1367	sub-02	1	sequence	delay	dot	NaN	NaN	NaN	NaN	NaN	NaN	NaN	NaN	NaN	NaN	NaN	NaN
833.3673559999997	1.2053	sub-02	1	sequence	choice	choice	right	NaN	NaN	-7.633197999999538	True	NaN	NaN	right	True	4.0	5.0	5.0
834.5729210999998	0.4997	sub-02	1	sequence	feedback	NaN	NaN	NaN	NaN	NaN	NaN	NaN	NaN	NaN	NaN	NaN	NaN	NaN
835.0728570000001	1.0005	sub-02	1	sequence	cue	Gesicht	NaN	NaN	NaN	NaN	NaN	NaN	NaN	NaN	NaN	NaN	NaN	NaN
836.0733246	2.0018	sub-02	1	sequence	blank	blank	NaN	NaN	NaN	NaN	NaN	NaN	NaN	NaN	NaN	NaN	NaN	NaN
838.0751035000003	0.3004	sub-02	1	sequence	fixation	dot	NaN	NaN	NaN	NaN	NaN	NaN	NaN	NaN	NaN	NaN	NaN	NaN
838.3928894000001	0.0992	sub-02	1	sequence	stimulus	Schuh	NaN	NaN	64.0	NaN	NaN	4.0	1.0	NaN	NaN	NaN	NaN	NaN
838.4921276000005	0.0668	sub-02	1	sequence	interval	dot	NaN	NaN	NaN	NaN	NaN	NaN	NaN	NaN	NaN	NaN	NaN	NaN
838.5589362999999	0.1	sub-02	1	sequence	stimulus	Stuhl	NaN	NaN	64.0	NaN	NaN	5.0	2.0	NaN	NaN	NaN	NaN	NaN
838.6589468000002	0.067	sub-02	1	sequence	interval	dot	NaN	NaN	NaN	NaN	NaN	NaN	NaN	NaN	NaN	NaN	NaN	NaN
838.7259141000004	0.0999	sub-02	1	sequence	stimulus	Gesicht	NaN	NaN	64.0	NaN	NaN	1.0	3.0	NaN	NaN	NaN	NaN	NaN
838.8257963000005	0.0669	sub-02	1	sequence	interval	dot	NaN	NaN	NaN	NaN	NaN	NaN	NaN	NaN	NaN	NaN	NaN	NaN
838.8926646	0.0997	sub-02	1	sequence	stimulus	Haus	NaN	NaN	64.0	NaN	NaN	2.0	4.0	NaN	NaN	NaN	NaN	NaN
838.9924111	0.0668	sub-02	1	sequence	interval	dot	NaN	NaN	NaN	NaN	NaN	NaN	NaN	NaN	NaN	NaN	NaN	NaN
839.0592529000005	0.0999	sub-02	1	sequence	stimulus	Katze	NaN	NaN	64.0	NaN	NaN	3.0	5.0	NaN	NaN	NaN	NaN	NaN
839.1591742999999	0.0667	sub-02	1	sequence	interval	dot	NaN	NaN	NaN	NaN	NaN	NaN	NaN	NaN	NaN	NaN	NaN	NaN
839.2258753000006	8.3885	sub-02	1	sequence	delay	dot	NaN	NaN	NaN	NaN	NaN	NaN	NaN	NaN	NaN	NaN	NaN	NaN
847.5890950000003	0.8781	sub-02	1	sequence	choice	choice	right	NaN	NaN	-7.973551199999747	True	NaN	NaN	right	True	4.0	3.0	3.0
848.4674458	0.4996	sub-02	1	sequence	feedback	NaN	NaN	NaN	NaN	NaN	NaN	NaN	NaN	NaN	NaN	NaN	NaN	NaN
848.9675059000001	8.9574	sub-02	1	other	break	break	NaN	NaN	NaN	NaN	NaN	NaN	NaN	NaN	NaN	NaN	NaN	NaN
861.7616047000001	0.4994	sub-02	1	localizer	stimulus	Stuhl	NaN	0	2.6686402999994243	NaN	True	NaN	NaN	NaN	NaN	NaN	NaN	NaN
862.2445296000005	2.6686	sub-02	1	localizer	blank	interval	NaN	NaN	NaN	NaN	NaN	NaN	NaN	NaN	NaN	NaN	NaN	NaN
865.2142484000005	0.4994	sub-02	1	localizer	stimulus	Gesicht	NaN	0	1.851459900000009	NaN	True	NaN	NaN	NaN	NaN	NaN	NaN	NaN
865.6971764999998	1.8515	sub-02	1	localizer	blank	interval	NaN	NaN	NaN	NaN	NaN	NaN	NaN	NaN	NaN	NaN	NaN	NaN
867.8497131000004	0.4995	sub-02	1	localizer	stimulus	Schuh	NaN	0	2.5352647999998226	NaN	True	NaN	NaN	NaN	NaN	NaN	NaN	NaN
868.3327119000005	2.5353	sub-02	1	localizer	blank	interval	NaN	NaN	NaN	NaN	NaN	NaN	NaN	NaN	NaN	NaN	NaN	NaN
871.1690813000005	0.4996	sub-02	1	localizer	stimulus	Schuh	NaN	0	2.368433599999662	NaN	True	NaN	NaN	NaN	NaN	NaN	NaN	NaN
871.6519950000002	2.3684	sub-02	1	localizer	blank	interval	NaN	NaN	NaN	NaN	NaN	NaN	NaN	NaN	NaN	NaN	NaN	NaN
874.3215872999999	0.4995	sub-02	1	localizer	stimulus	Katze	NaN	0	2.7187307000003784	NaN	True	NaN	NaN	NaN	NaN	NaN	NaN	NaN
874.8046538999997	2.7187	sub-02	1	localizer	blank	interval	NaN	NaN	NaN	NaN	NaN	NaN	NaN	NaN	NaN	NaN	NaN	NaN
877.8247418000001	0.4995	sub-02	1	localizer	stimulus	Haus	NaN	0	2.168369199999688	NaN	True	NaN	NaN	NaN	NaN	NaN	NaN	NaN
878.3077183000005	2.1684	sub-02	1	localizer	blank	interval	NaN	NaN	NaN	NaN	NaN	NaN	NaN	NaN	NaN	NaN	NaN	NaN
880.7771434000006	0.4995	sub-02	1	localizer	stimulus	Schuh	NaN	180	2.2849669999995967	-8.175973100000192	True	NaN	NaN	NaN	NaN	NaN	NaN	NaN
881.2599742000002	2.285	sub-02	1	localizer	blank	interval	NaN	NaN	NaN	NaN	NaN	NaN	NaN	NaN	NaN	NaN	NaN	NaN
883.8459547000002	0.4996	sub-02	1	localizer	stimulus	Gesicht	NaN	0	2.9855196999997133	NaN	True	NaN	NaN	NaN	NaN	NaN	NaN	NaN
884.3289894	2.9855	sub-02	1	localizer	blank	interval	NaN	NaN	NaN	NaN	NaN	NaN	NaN	NaN	NaN	NaN	NaN	NaN
887.6158095000001	0.4993	sub-02	1	localizer	stimulus	Gesicht	NaN	180	2.5687069000005067	-8.310919300000023	True	NaN	NaN	NaN	NaN	NaN	NaN	NaN
888.0985573999997	2.5687	sub-02	1	localizer	blank	interval	NaN	NaN	NaN	NaN	NaN	NaN	NaN	NaN	NaN	NaN	NaN	NaN
890.9683366999998	0.4995	sub-02	1	localizer	stimulus	Stuhl	NaN	0	1.6010783000001538	NaN	True	NaN	NaN	NaN	NaN	NaN	NaN	NaN
891.4513877999998	1.6011	sub-02	1	localizer	blank	interval	NaN	NaN	NaN	NaN	NaN	NaN	NaN	NaN	NaN	NaN	NaN	NaN
893.3536264000004	0.4996	sub-02	1	localizer	stimulus	Stuhl	NaN	0	2.685352899999998	NaN	True	NaN	NaN	NaN	NaN	NaN	NaN	NaN
893.8366452999999	2.6854	sub-02	1	localizer	blank	interval	NaN	NaN	NaN	NaN	NaN	NaN	NaN	NaN	NaN	NaN	NaN	NaN
896.8231378999999	0.4994	sub-02	1	localizer	stimulus	Schuh	NaN	0	3.0023902000002636	NaN	True	NaN	NaN	NaN	NaN	NaN	NaN	NaN
897.3061292000002	3.0024	sub-02	1	localizer	blank	interval	NaN	NaN	NaN	NaN	NaN	NaN	NaN	NaN	NaN	NaN	NaN	NaN
900.6097521000002	0.4997	sub-02	1	localizer	stimulus	Haus	NaN	180	2.1845471000006	-8.177057900000364	True	NaN	NaN	NaN	NaN	NaN	NaN	NaN
901.0928285999998	2.1845	sub-02	1	localizer	blank	interval	NaN	NaN	NaN	NaN	NaN	NaN	NaN	NaN	NaN	NaN	NaN	NaN
903.5786012999996	0.4994	sub-02	1	localizer	stimulus	Gesicht	NaN	0	2.3349996000006286	NaN	True	NaN	NaN	NaN	NaN	NaN	NaN	NaN
904.0615945999998	2.335	sub-02	1	localizer	blank	interval	NaN	NaN	NaN	NaN	NaN	NaN	NaN	NaN	NaN	NaN	NaN	NaN
906.6978602	0.4994	sub-02	1	localizer	stimulus	Katze	NaN	180	1.9013508999995565	-8.281626399999368	True	NaN	NaN	NaN	NaN	NaN	NaN	NaN
907.180687	1.9014	sub-02	1	localizer	blank	interval	NaN	NaN	NaN	NaN	NaN	NaN	NaN	NaN	NaN	NaN	NaN	NaN
909.383245	0.4996	sub-02	1	localizer	stimulus	Katze	NaN	0	3.2358444000002464	NaN	True	NaN	NaN	NaN	NaN	NaN	NaN	NaN
909.8661639000002	3.2358	sub-02	1	localizer	blank	interval	NaN	NaN	NaN	NaN	NaN	NaN	NaN	NaN	NaN	NaN	NaN	NaN
913.4031629	0.4996	sub-02	1	localizer	stimulus	Stuhl	NaN	180	2.2516548000004377	-8.338426099999197	True	NaN	NaN	NaN	NaN	NaN	NaN	NaN
913.8861372	2.2517	sub-02	1	localizer	blank	interval	NaN	NaN	NaN	NaN	NaN	NaN	NaN	NaN	NaN	NaN	NaN	NaN
916.4390211	0.4994	sub-02	1	localizer	stimulus	Haus	NaN	0	2.83587019999959	NaN	True	NaN	NaN	NaN	NaN	NaN	NaN	NaN
916.9219300000004	2.8359	sub-02	1	localizer	blank	interval	NaN	NaN	NaN	NaN	NaN	NaN	NaN	NaN	NaN	NaN	NaN	NaN
920.0585601000002	0.4997	sub-02	1	localizer	stimulus	Stuhl	NaN	0	2.535077900000033	NaN	True	NaN	NaN	NaN	NaN	NaN	NaN	NaN
920.5417082000004	2.5351	sub-02	1	localizer	blank	interval	NaN	NaN	NaN	NaN	NaN	NaN	NaN	NaN	NaN	NaN	NaN	NaN
923.3779593999998	0.4994	sub-02	1	localizer	stimulus	Katze	NaN	0	3.5026284999996733	NaN	True	NaN	NaN	NaN	NaN	NaN	NaN	NaN
923.8608411000004	3.5026	sub-02	1	localizer	blank	interval	NaN	NaN	NaN	NaN	NaN	NaN	NaN	NaN	NaN	NaN	NaN	NaN
927.6646513000004	0.4995	sub-02	1	localizer	stimulus	Gesicht	NaN	0	3.2858636000000843	NaN	True	NaN	NaN	NaN	NaN	NaN	NaN	NaN
928.1475947999998	3.2859	sub-02	1	localizer	blank	interval	NaN	NaN	NaN	NaN	NaN	NaN	NaN	NaN	NaN	NaN	NaN	NaN
931.7346290000004	0.4995	sub-02	1	localizer	stimulus	Haus	NaN	0	2.4684682000006433	NaN	True	NaN	NaN	NaN	NaN	NaN	NaN	NaN
932.2176031999998	2.4685	sub-02	1	localizer	blank	interval	NaN	NaN	NaN	NaN	NaN	NaN	NaN	NaN	NaN	NaN	NaN	NaN
934.9873003000002	0.4994	sub-02	1	localizer	stimulus	Haus	NaN	0	2.635331899999983	NaN	True	NaN	NaN	NaN	NaN	NaN	NaN	NaN
935.4701474000004	2.6353	sub-02	1	localizer	blank	interval	NaN	NaN	NaN	NaN	NaN	NaN	NaN	NaN	NaN	NaN	NaN	NaN
938.4068717	0.4993	sub-02	1	localizer	stimulus	Katze	NaN	0	1.9349806999997554	NaN	True	NaN	NaN	NaN	NaN	NaN	NaN	NaN
938.8897207999998	1.935	sub-02	1	localizer	blank	interval	NaN	NaN	NaN	NaN	NaN	NaN	NaN	NaN	NaN	NaN	NaN	NaN
941.1256703999998	0.4997	sub-02	1	localizer	stimulus	Schuh	NaN	0	2.5182879000003595	NaN	True	NaN	NaN	NaN	NaN	NaN	NaN	NaN
941.6088056999996	2.5183	sub-02	1	localizer	blank	interval	NaN	NaN	NaN	NaN	NaN	NaN	NaN	NaN	NaN	NaN	NaN	NaN
947.6136396000002	1.0006	sub-02	1	sequence	cue	Stuhl	NaN	NaN	NaN	NaN	NaN	NaN	NaN	NaN	NaN	NaN	NaN	NaN
948.6142092	2.0014	sub-02	1	sequence	blank	blank	NaN	NaN	NaN	NaN	NaN	NaN	NaN	NaN	NaN	NaN	NaN	NaN
950.6156289	0.3003	sub-02	1	sequence	fixation	dot	NaN	NaN	NaN	NaN	NaN	NaN	NaN	NaN	NaN	NaN	NaN	NaN
950.9334111999996	0.0992	sub-02	1	sequence	stimulus	Katze	NaN	NaN	64.0	NaN	NaN	3.0	1.0	NaN	NaN	NaN	NaN	NaN
951.0326371	0.0668	sub-02	1	sequence	interval	dot	NaN	NaN	NaN	NaN	NaN	NaN	NaN	NaN	NaN	NaN	NaN	NaN
951.0994452000004	0.0999	sub-02	1	sequence	stimulus	Gesicht	NaN	NaN	64.0	NaN	NaN	1.0	2.0	NaN	NaN	NaN	NaN	NaN
951.1993902000004	0.0669	sub-02	1	sequence	interval	dot	NaN	NaN	NaN	NaN	NaN	NaN	NaN	NaN	NaN	NaN	NaN	NaN
951.2662939000002	0.1025	sub-02	1	sequence	stimulus	Haus	NaN	NaN	64.0	NaN	NaN	2.0	3.0	NaN	NaN	NaN	NaN	NaN
951.3687827000005	0.0644	sub-02	1	sequence	interval	dot	NaN	NaN	NaN	NaN	NaN	NaN	NaN	NaN	NaN	NaN	NaN	NaN
951.4332295000004	0.0999	sub-02	1	sequence	stimulus	Schuh	NaN	NaN	64.0	NaN	NaN	4.0	4.0	NaN	NaN	NaN	NaN	NaN
951.533128	0.0669	sub-02	1	sequence	interval	dot	NaN	NaN	NaN	NaN	NaN	NaN	NaN	NaN	NaN	NaN	NaN	NaN
951.6000640000002	0.0999	sub-02	1	sequence	stimulus	Stuhl	NaN	NaN	64.0	NaN	NaN	5.0	5.0	NaN	NaN	NaN	NaN	NaN
951.6999437000004	0.0667	sub-02	1	sequence	interval	dot	NaN	NaN	NaN	NaN	NaN	NaN	NaN	NaN	NaN	NaN	NaN	NaN
951.7666478	8.3885	sub-02	1	sequence	delay	dot	NaN	NaN	NaN	NaN	NaN	NaN	NaN	NaN	NaN	NaN	NaN	NaN
960.1405039	0.801	sub-02	1	sequence	choice	choice	right	NaN	NaN	-8.042924599999424	True	NaN	NaN	right	True	2.0	5.0	5.0
960.9418799000003	0.4998	sub-02	1	sequence	feedback	NaN	NaN	NaN	NaN	NaN	NaN	NaN	NaN	NaN	NaN	NaN	NaN	NaN
961.4419024999996	1.0002	sub-02	1	sequence	cue	Gesicht	NaN	NaN	NaN	NaN	NaN	NaN	NaN	NaN	NaN	NaN	NaN	NaN
962.4421116000004	2.0016	sub-02	1	sequence	blank	blank	NaN	NaN	NaN	NaN	NaN	NaN	NaN	NaN	NaN	NaN	NaN	NaN
964.4436961	0.3001	sub-02	1	sequence	fixation	dot	NaN	NaN	NaN	NaN	NaN	NaN	NaN	NaN	NaN	NaN	NaN	NaN
964.7615602000004	0.099	sub-02	1	sequence	stimulus	Schuh	NaN	NaN	32.0	NaN	NaN	4.0	1.0	NaN	NaN	NaN	NaN	NaN
964.8605552	0.035	sub-02	1	sequence	interval	dot	NaN	NaN	NaN	NaN	NaN	NaN	NaN	NaN	NaN	NaN	NaN	NaN
964.8955099000004	0.1152	sub-02	1	sequence	stimulus	Stuhl	NaN	NaN	32.0	NaN	NaN	5.0	2.0	NaN	NaN	NaN	NaN	NaN
965.0107509999998	0.0333	sub-02	1	sequence	interval	dot	NaN	NaN	NaN	NaN	NaN	NaN	NaN	NaN	NaN	NaN	NaN	NaN
965.0440863000003	0.1001	sub-02	1	sequence	stimulus	Katze	NaN	NaN	32.0	NaN	NaN	3.0	3.0	NaN	NaN	NaN	NaN	NaN
965.1441458	0.0335	sub-02	1	sequence	interval	dot	NaN	NaN	NaN	NaN	NaN	NaN	NaN	NaN	NaN	NaN	NaN	NaN
965.1776427000004	0.0999	sub-02	1	sequence	stimulus	Gesicht	NaN	NaN	32.0	NaN	NaN	1.0	4.0	NaN	NaN	NaN	NaN	NaN
965.2775696999996	0.0335	sub-02	1	sequence	interval	dot	NaN	NaN	NaN	NaN	NaN	NaN	NaN	NaN	NaN	NaN	NaN	NaN
965.3110889	0.0999	sub-02	1	sequence	stimulus	Haus	NaN	NaN	32.0	NaN	NaN	2.0	5.0	NaN	NaN	NaN	NaN	NaN
965.4110274000004	0.0334	sub-02	1	sequence	interval	dot	NaN	NaN	NaN	NaN	NaN	NaN	NaN	NaN	NaN	NaN	NaN	NaN
965.4444018000004	8.5219	sub-02	1	sequence	delay	dot	NaN	NaN	NaN	NaN	NaN	NaN	NaN	NaN	NaN	NaN	NaN	NaN
973.9461888000004	0.7729	sub-02	1	sequence	choice	choice	left	NaN	NaN	-8.07019769999988	True	NaN	NaN	left	True	4.0	5.0	4.0
974.7193679000002	0.4997	sub-02	1	sequence	feedback	NaN	NaN	NaN	NaN	NaN	NaN	NaN	NaN	NaN	NaN	NaN	NaN	NaN
975.2192793000004	1.0004	sub-02	1	sequence	cue	Stuhl	NaN	NaN	NaN	NaN	NaN	NaN	NaN	NaN	NaN	NaN	NaN	NaN
976.2196910000002	2.0016	sub-02	1	sequence	blank	blank	NaN	NaN	NaN	NaN	NaN	NaN	NaN	NaN	NaN	NaN	NaN	NaN
978.2213444	0.3002	sub-02	1	sequence	fixation	dot	NaN	NaN	NaN	NaN	NaN	NaN	NaN	NaN	NaN	NaN	NaN	NaN
978.5398237999998	0.1152	sub-02	1	sequence	stimulus	Gesicht	NaN	NaN	512.0	NaN	NaN	1.0	1.0	NaN	NaN	NaN	NaN	NaN
978.6549924	0.5172	sub-02	1	sequence	interval	dot	NaN	NaN	NaN	NaN	NaN	NaN	NaN	NaN	NaN	NaN	NaN	NaN
979.1721698	0.1	sub-02	1	sequence	stimulus	Schuh	NaN	NaN	512.0	NaN	NaN	4.0	2.0	NaN	NaN	NaN	NaN	NaN
979.2721462	0.5173	sub-02	1	sequence	interval	dot	NaN	NaN	NaN	NaN	NaN	NaN	NaN	NaN	NaN	NaN	NaN	NaN
979.7894912000002	0.0999	sub-02	1	sequence	stimulus	Katze	NaN	NaN	512.0	NaN	NaN	3.0	3.0	NaN	NaN	NaN	NaN	NaN
979.889419	0.5173	sub-02	1	sequence	interval	dot	NaN	NaN	NaN	NaN	NaN	NaN	NaN	NaN	NaN	NaN	NaN	NaN
980.4067032000004	0.0999	sub-02	1	sequence	stimulus	Stuhl	NaN	NaN	512.0	NaN	NaN	5.0	4.0	NaN	NaN	NaN	NaN	NaN
980.5066382000005	0.5172	sub-02	1	sequence	interval	dot	NaN	NaN	NaN	NaN	NaN	NaN	NaN	NaN	NaN	NaN	NaN	NaN
981.0238092	0.0999	sub-02	1	sequence	stimulus	Haus	NaN	NaN	512.0	NaN	NaN	2.0	5.0	NaN	NaN	NaN	NaN	NaN
981.1237152000004	0.5171	sub-02	1	sequence	interval	dot	NaN	NaN	NaN	NaN	NaN	NaN	NaN	NaN	NaN	NaN	NaN	NaN
981.6408137999996	6.1533	sub-02	1	sequence	delay	dot	NaN	NaN	NaN	NaN	NaN	NaN	NaN	NaN	NaN	NaN	NaN	NaN
987.7778827000002	0.6522	sub-02	1	sequence	choice	choice	left	NaN	NaN	-8.19358209999973	True	NaN	NaN	left	True	4.0	3.0	4.0
988.4303844000004	0.4997	sub-02	1	sequence	feedback	NaN	NaN	NaN	NaN	NaN	NaN	NaN	NaN	NaN	NaN	NaN	NaN	NaN
988.9302138000004	1.0005	sub-02	1	sequence	cue	Katze	NaN	NaN	NaN	NaN	NaN	NaN	NaN	NaN	NaN	NaN	NaN	NaN
989.9307052000004	2.0017	sub-02	1	sequence	blank	blank	NaN	NaN	NaN	NaN	NaN	NaN	NaN	NaN	NaN	NaN	NaN	NaN
991.9324324	0.3001	sub-02	1	sequence	fixation	dot	NaN	NaN	NaN	NaN	NaN	NaN	NaN	NaN	NaN	NaN	NaN	NaN
992.2501561	0.0993	sub-02	1	sequence	stimulus	Stuhl	NaN	NaN	512.0	NaN	NaN	5.0	1.0	NaN	NaN	NaN	NaN	NaN
992.3494213000004	0.5171	sub-02	1	sequence	interval	dot	NaN	NaN	NaN	NaN	NaN	NaN	NaN	NaN	NaN	NaN	NaN	NaN
992.8665485	0.0999	sub-02	1	sequence	stimulus	Schuh	NaN	NaN	512.0	NaN	NaN	4.0	2.0	NaN	NaN	NaN	NaN	NaN
992.9664961999996	0.5172	sub-02	1	sequence	interval	dot	NaN	NaN	NaN	NaN	NaN	NaN	NaN	NaN	NaN	NaN	NaN	NaN
993.4836539999995	0.1001	sub-02	1	sequence	stimulus	Gesicht	NaN	NaN	512.0	NaN	NaN	1.0	3.0	NaN	NaN	NaN	NaN	NaN
993.5837389999996	0.5172	sub-02	1	sequence	interval	dot	NaN	NaN	NaN	NaN	NaN	NaN	NaN	NaN	NaN	NaN	NaN	NaN
994.1009350000004	0.0999	sub-02	1	sequence	stimulus	Haus	NaN	NaN	512.0	NaN	NaN	2.0	4.0	NaN	NaN	NaN	NaN	NaN
994.2008093000004	0.5172	sub-02	1	sequence	interval	dot	NaN	NaN	NaN	NaN	NaN	NaN	NaN	NaN	NaN	NaN	NaN	NaN
994.7180464000004	0.1	sub-02	1	sequence	stimulus	Katze	NaN	NaN	512.0	NaN	NaN	3.0	5.0	NaN	NaN	NaN	NaN	NaN
994.8180244000004	0.517	sub-02	1	sequence	interval	dot	NaN	NaN	NaN	NaN	NaN	NaN	NaN	NaN	NaN	NaN	NaN	NaN
995.3350560999996	6.1701	sub-02	1	sequence	delay	dot	NaN	NaN	NaN	NaN	NaN	NaN	NaN	NaN	NaN	NaN	NaN	NaN
1001.4795288000004	0.6785	sub-02	1	sequence	choice	choice	right	NaN	NaN	-8.17682849999892	True	NaN	NaN	right	True	3.0	5.0	5.0
1002.1583075	0.4997	sub-02	1	sequence	feedback	NaN	NaN	NaN	NaN	NaN	NaN	NaN	NaN	NaN	NaN	NaN	NaN	NaN
1002.6582786	1.0004	sub-02	1	sequence	cue	Katze	NaN	NaN	NaN	NaN	NaN	NaN	NaN	NaN	NaN	NaN	NaN	NaN
1003.6586462000004	2.0016	sub-02	1	sequence	blank	blank	NaN	NaN	NaN	NaN	NaN	NaN	NaN	NaN	NaN	NaN	NaN	NaN
1005.6602772000006	0.3004	sub-02	1	sequence	fixation	dot	NaN	NaN	NaN	NaN	NaN	NaN	NaN	NaN	NaN	NaN	NaN	NaN
1005.9789822000002	0.1149	sub-02	1	sequence	stimulus	Stuhl	NaN	NaN	32.0	NaN	NaN	5.0	1.0	NaN	NaN	NaN	NaN	NaN
1006.0939239999998	0.0335	sub-02	1	sequence	interval	dot	NaN	NaN	NaN	NaN	NaN	NaN	NaN	NaN	NaN	NaN	NaN	NaN
1006.1273969000003	0.0999	sub-02	1	sequence	stimulus	Gesicht	NaN	NaN	32.0	NaN	NaN	1.0	2.0	NaN	NaN	NaN	NaN	NaN
1006.2273421999998	0.0335	sub-02	1	sequence	interval	dot	NaN	NaN	NaN	NaN	NaN	NaN	NaN	NaN	NaN	NaN	NaN	NaN
1006.2608384000004	0.0999	sub-02	1	sequence	stimulus	Katze	NaN	NaN	32.0	NaN	NaN	3.0	3.0	NaN	NaN	NaN	NaN	NaN
1006.3607583000004	0.0335	sub-02	1	sequence	interval	dot	NaN	NaN	NaN	NaN	NaN	NaN	NaN	NaN	NaN	NaN	NaN	NaN
1006.3942797	0.0999	sub-02	1	sequence	stimulus	Schuh	NaN	NaN	32.0	NaN	NaN	4.0	4.0	NaN	NaN	NaN	NaN	NaN
1006.4941817	0.0335	sub-02	1	sequence	interval	dot	NaN	NaN	NaN	NaN	NaN	NaN	NaN	NaN	NaN	NaN	NaN	NaN
1006.5276946000004	0.1	sub-02	1	sequence	stimulus	Haus	NaN	NaN	32.0	NaN	NaN	2.0	5.0	NaN	NaN	NaN	NaN	NaN
1006.6276568000004	0.0333	sub-02	1	sequence	interval	dot	NaN	NaN	NaN	NaN	NaN	NaN	NaN	NaN	NaN	NaN	NaN	NaN
1006.6609718	8.5386	sub-02	1	sequence	delay	dot	NaN	NaN	NaN	NaN	NaN	NaN	NaN	NaN	NaN	NaN	NaN	NaN
1015.1812869000004	0.6875	sub-02	1	sequence	choice	choice	right	NaN	NaN	-8.159257600000274	True	NaN	NaN	right	True	4.0	3.0	3.0
1015.8690658000004	0.5	sub-02	1	sequence	feedback	NaN	NaN	NaN	NaN	NaN	NaN	NaN	NaN	NaN	NaN	NaN	NaN	NaN
1016.3692928	1.0002	sub-02	1	sequence	cue	Haus	NaN	NaN	NaN	NaN	NaN	NaN	NaN	NaN	NaN	NaN	NaN	NaN
1017.3695183	2.0017	sub-02	1	sequence	blank	blank	NaN	NaN	NaN	NaN	NaN	NaN	NaN	NaN	NaN	NaN	NaN	NaN
1019.3712492000004	0.3002	sub-02	1	sequence	fixation	dot	NaN	NaN	NaN	NaN	NaN	NaN	NaN	NaN	NaN	NaN	NaN	NaN
1019.6897172	0.1154	sub-02	1	sequence	stimulus	Schuh	NaN	NaN	64.0	NaN	NaN	4.0	1.0	NaN	NaN	NaN	NaN	NaN
1019.8050988000005	0.0667	sub-02	1	sequence	interval	dot	NaN	NaN	NaN	NaN	NaN	NaN	NaN	NaN	NaN	NaN	NaN	NaN
1019.8717967000002	0.0999	sub-02	1	sequence	stimulus	Stuhl	NaN	NaN	64.0	NaN	NaN	5.0	2.0	NaN	NaN	NaN	NaN	NaN
1019.9717020999996	0.0669	sub-02	1	sequence	interval	dot	NaN	NaN	NaN	NaN	NaN	NaN	NaN	NaN	NaN	NaN	NaN	NaN
1020.0385563999998	0.1	sub-02	1	sequence	stimulus	Gesicht	NaN	NaN	64.0	NaN	NaN	1.0	3.0	NaN	NaN	NaN	NaN	NaN
1020.1385547	0.0669	sub-02	1	sequence	interval	dot	NaN	NaN	NaN	NaN	NaN	NaN	NaN	NaN	NaN	NaN	NaN	NaN
1020.2054905000005	0.0999	sub-02	1	sequence	stimulus	Haus	NaN	NaN	64.0	NaN	NaN	2.0	4.0	NaN	NaN	NaN	NaN	NaN
1020.3053877000002	0.0669	sub-02	1	sequence	interval	dot	NaN	NaN	NaN	NaN	NaN	NaN	NaN	NaN	NaN	NaN	NaN	NaN
1020.3722844000004	0.0999	sub-02	1	sequence	stimulus	Katze	NaN	NaN	64.0	NaN	NaN	3.0	5.0	NaN	NaN	NaN	NaN	NaN
1020.4721957000002	0.0667	sub-02	1	sequence	interval	dot	NaN	NaN	NaN	NaN	NaN	NaN	NaN	NaN	NaN	NaN	NaN	NaN
1020.5388707000002	8.3885	sub-02	1	sequence	delay	dot	NaN	NaN	NaN	NaN	NaN	NaN	NaN	NaN	NaN	NaN	NaN	NaN
1028.9089286	0.8211	sub-02	1	sequence	choice	choice	left	NaN	NaN	-8.022372200000063	True	NaN	NaN	left	True	4.0	5.0	4.0
1029.7302651999998	0.5	sub-02	1	sequence	feedback	NaN	NaN	NaN	NaN	NaN	NaN	NaN	NaN	NaN	NaN	NaN	NaN	NaN
1030.2305022	1.0004	sub-02	1	sequence	cue	Schuh	NaN	NaN	NaN	NaN	NaN	NaN	NaN	NaN	NaN	NaN	NaN	NaN
1031.2308881999998	2.0014	sub-02	1	sequence	blank	blank	NaN	NaN	NaN	NaN	NaN	NaN	NaN	NaN	NaN	NaN	NaN	NaN
1033.2323158	0.3003	sub-02	1	sequence	fixation	dot	NaN	NaN	NaN	NaN	NaN	NaN	NaN	NaN	NaN	NaN	NaN	NaN
1033.5501308000005	0.0991	sub-02	1	sequence	stimulus	Katze	NaN	NaN	128.0	NaN	NaN	3.0	1.0	NaN	NaN	NaN	NaN	NaN
1033.6492780999995	0.1337	sub-02	1	sequence	interval	dot	NaN	NaN	NaN	NaN	NaN	NaN	NaN	NaN	NaN	NaN	NaN	NaN
1033.7829678999997	0.1	sub-02	1	sequence	stimulus	Haus	NaN	NaN	128.0	NaN	NaN	2.0	2.0	NaN	NaN	NaN	NaN	NaN
1033.8829989000003	0.1334	sub-02	1	sequence	interval	dot	NaN	NaN	NaN	NaN	NaN	NaN	NaN	NaN	NaN	NaN	NaN	NaN
1034.0164270000005	0.1	sub-02	1	sequence	stimulus	Stuhl	NaN	NaN	128.0	NaN	NaN	5.0	3.0	NaN	NaN	NaN	NaN	NaN
1034.1163895	0.1335	sub-02	1	sequence	interval	dot	NaN	NaN	NaN	NaN	NaN	NaN	NaN	NaN	NaN	NaN	NaN	NaN
1034.2499370000005	0.1	sub-02	1	sequence	stimulus	Schuh	NaN	NaN	128.0	NaN	NaN	4.0	4.0	NaN	NaN	NaN	NaN	NaN
1034.3499263000003	0.1335	sub-02	1	sequence	interval	dot	NaN	NaN	NaN	NaN	NaN	NaN	NaN	NaN	NaN	NaN	NaN	NaN
1034.4834656000005	0.1	sub-02	1	sequence	stimulus	Gesicht	NaN	NaN	128.0	NaN	NaN	1.0	5.0	NaN	NaN	NaN	NaN	NaN
1034.5834727	0.1335	sub-02	1	sequence	interval	dot	NaN	NaN	NaN	NaN	NaN	NaN	NaN	NaN	NaN	NaN	NaN	NaN
1034.7169321	8.0717	sub-02	1	sequence	delay	dot	NaN	NaN	NaN	NaN	NaN	NaN	NaN	NaN	NaN	NaN	NaN	NaN
1042.7666819000003	0.8912	sub-02	1	sequence	choice	choice	right	NaN	NaN	-7.948040599999331	False	NaN	NaN	left	True	4.0	3.0	4.0
1043.6582083000003	0.4998	sub-02	1	sequence	feedback	NaN	NaN	NaN	NaN	NaN	NaN	NaN	NaN	NaN	NaN	NaN	NaN	NaN
1044.1581444000003	1.0005	sub-02	1	sequence	cue	Haus	NaN	NaN	NaN	NaN	NaN	NaN	NaN	NaN	NaN	NaN	NaN	NaN
1045.1586877999998	2.0016	sub-02	1	sequence	blank	blank	NaN	NaN	NaN	NaN	NaN	NaN	NaN	NaN	NaN	NaN	NaN	NaN
1047.1603068000004	0.3003	sub-02	1	sequence	fixation	dot	NaN	NaN	NaN	NaN	NaN	NaN	NaN	NaN	NaN	NaN	NaN	NaN
1047.4790156999998	0.115	sub-02	1	sequence	stimulus	Stuhl	NaN	NaN	128.0	NaN	NaN	5.0	1.0	NaN	NaN	NaN	NaN	NaN
1047.5939884	0.1336	sub-02	1	sequence	interval	dot	NaN	NaN	NaN	NaN	NaN	NaN	NaN	NaN	NaN	NaN	NaN	NaN
1047.7275944000005	0.1	sub-02	1	sequence	stimulus	Schuh	NaN	NaN	128.0	NaN	NaN	4.0	2.0	NaN	NaN	NaN	NaN	NaN
1047.8275851999997	0.1336	sub-02	1	sequence	interval	dot	NaN	NaN	NaN	NaN	NaN	NaN	NaN	NaN	NaN	NaN	NaN	NaN
1047.9611519	0.0999	sub-02	1	sequence	stimulus	Gesicht	NaN	NaN	128.0	NaN	NaN	1.0	3.0	NaN	NaN	NaN	NaN	NaN
1048.0610783000002	0.1335	sub-02	1	sequence	interval	dot	NaN	NaN	NaN	NaN	NaN	NaN	NaN	NaN	NaN	NaN	NaN	NaN
1048.1946212000005	0.1	sub-02	1	sequence	stimulus	Katze	NaN	NaN	128.0	NaN	NaN	3.0	4.0	NaN	NaN	NaN	NaN	NaN
1048.2945996	0.1336	sub-02	1	sequence	interval	dot	NaN	NaN	NaN	NaN	NaN	NaN	NaN	NaN	NaN	NaN	NaN	NaN
1048.4281958	0.0999	sub-02	1	sequence	stimulus	Haus	NaN	NaN	128.0	NaN	NaN	2.0	5.0	NaN	NaN	NaN	NaN	NaN
1048.5280680000003	0.1334	sub-02	1	sequence	interval	dot	NaN	NaN	NaN	NaN	NaN	NaN	NaN	NaN	NaN	NaN	NaN	NaN
1048.6614367000002	8.0549	sub-02	1	sequence	delay	dot	NaN	NaN	NaN	NaN	NaN	NaN	NaN	NaN	NaN	NaN	NaN	NaN
1056.7022968	0.7001	sub-02	1	sequence	choice	choice	right	NaN	NaN	-8.13166579999961	True	NaN	NaN	right	True	1.0	5.0	5.0
1057.4026075000002	0.4998	sub-02	1	sequence	feedback	NaN	NaN	NaN	NaN	NaN	NaN	NaN	NaN	NaN	NaN	NaN	NaN	NaN
1061.7228774000005	0.4995	sub-02	1	localizer	stimulus	Haus	NaN	0	1.9846891000006508	NaN	True	NaN	NaN	NaN	NaN	NaN	NaN	NaN
1062.2059012999998	1.9847	sub-02	1	localizer	blank	interval	NaN	NaN	NaN	NaN	NaN	NaN	NaN	NaN	NaN	NaN	NaN	NaN
1064.4917468000003	0.4996	sub-02	1	localizer	stimulus	Schuh	NaN	0	2.1683744000001752	NaN	True	NaN	NaN	NaN	NaN	NaN	NaN	NaN
1064.9747199000003	2.1684	sub-02	1	localizer	blank	interval	NaN	NaN	NaN	NaN	NaN	NaN	NaN	NaN	NaN	NaN	NaN	NaN
1067.4441335	0.4996	sub-02	1	localizer	stimulus	Katze	NaN	0	3.7528456000000006	NaN	True	NaN	NaN	NaN	NaN	NaN	NaN	NaN
1067.9271502	3.7528	sub-02	1	localizer	blank	interval	NaN	NaN	NaN	NaN	NaN	NaN	NaN	NaN	NaN	NaN	NaN	NaN
1071.9811743	0.4994	sub-02	1	localizer	stimulus	Haus	NaN	0	3.4526159000008647	NaN	True	NaN	NaN	NaN	NaN	NaN	NaN	NaN
1072.4640707999995	3.4526	sub-02	1	localizer	blank	interval	NaN	NaN	NaN	NaN	NaN	NaN	NaN	NaN	NaN	NaN	NaN	NaN
1076.2178451999998	0.4995	sub-02	1	localizer	stimulus	Stuhl	NaN	0	2.7354278000002523	NaN	True	NaN	NaN	NaN	NaN	NaN	NaN	NaN
1076.7008913999998	2.7354	sub-02	1	localizer	blank	interval	NaN	NaN	NaN	NaN	NaN	NaN	NaN	NaN	NaN	NaN	NaN	NaN
1079.7376178000004	0.4994	sub-02	1	localizer	stimulus	Katze	NaN	180	2.0849521999998615	-8.2168972999998	True	NaN	NaN	NaN	NaN	NaN	NaN	NaN
1080.2204319000002	2.085	sub-02	1	localizer	blank	interval	NaN	NaN	NaN	NaN	NaN	NaN	NaN	NaN	NaN	NaN	NaN	NaN
1082.6065052000004	0.4996	sub-02	1	localizer	stimulus	Stuhl	NaN	0	3.302340600000207	NaN	True	NaN	NaN	NaN	NaN	NaN	NaN	NaN
1083.0896578000002	3.3023	sub-02	1	localizer	blank	interval	NaN	NaN	NaN	NaN	NaN	NaN	NaN	NaN	NaN	NaN	NaN	NaN
1086.6932238999998	0.4995	sub-02	1	localizer	stimulus	Stuhl	NaN	180	1.4510296999994807	-8.164657299999817	True	NaN	NaN	NaN	NaN	NaN	NaN	NaN
1087.1761354	1.451	sub-02	1	localizer	blank	interval	NaN	NaN	NaN	NaN	NaN	NaN	NaN	NaN	NaN	NaN	NaN	NaN
1088.9282831	0.4996	sub-02	1	localizer	stimulus	Haus	NaN	0	1.167376399999739	NaN	True	NaN	NaN	NaN	NaN	NaN	NaN	NaN
1089.411301	1.1674	sub-02	1	localizer	blank	interval	NaN	NaN	NaN	NaN	NaN	NaN	NaN	NaN	NaN	NaN	NaN	NaN
1090.8797445	0.4994	sub-02	1	localizer	stimulus	Haus	NaN	0	2.318421400000261	NaN	True	NaN	NaN	NaN	NaN	NaN	NaN	NaN
1091.3626517000002	2.3184	sub-02	1	localizer	blank	interval	NaN	NaN	NaN	NaN	NaN	NaN	NaN	NaN	NaN	NaN	NaN	NaN
1093.9822493	0.4996	sub-02	1	localizer	stimulus	Gesicht	NaN	180	2.6854444000000512	-8.286062799998945	True	NaN	NaN	NaN	NaN	NaN	NaN	NaN
1094.465233	2.6854	sub-02	1	localizer	blank	interval	NaN	NaN	NaN	NaN	NaN	NaN	NaN	NaN	NaN	NaN	NaN	NaN
1097.4517320000004	0.4996	sub-02	1	localizer	stimulus	Stuhl	NaN	0	2.018254199999319	NaN	True	NaN	NaN	NaN	NaN	NaN	NaN	NaN
1097.9347032000005	2.0183	sub-02	1	localizer	blank	interval	NaN	NaN	NaN	NaN	NaN	NaN	NaN	NaN	NaN	NaN	NaN	NaN
1100.2541490000003	0.4995	sub-02	1	localizer	stimulus	Gesicht	NaN	0	3.5027319999999236	-8.278113299999859	False	NaN	NaN	NaN	NaN	NaN	NaN	NaN
1100.7370081999998	3.5027	sub-02	1	localizer	blank	interval	NaN	NaN	NaN	NaN	NaN	NaN	NaN	NaN	NaN	NaN	NaN	NaN
1104.5407685	0.4995	sub-02	1	localizer	stimulus	Katze	NaN	0	3.0357848000003287	NaN	True	NaN	NaN	NaN	NaN	NaN	NaN	NaN
1105.0236623	3.0358	sub-02	1	localizer	blank	interval	NaN	NaN	NaN	NaN	NaN	NaN	NaN	NaN	NaN	NaN	NaN	NaN
