onset	duration	subject	session	condition	trial_type	stim_label	key_down	orientation	interval_time	response_time	accuracy	stim_index	serial_position	key_expected	key_pressed	choice_left	choice_right	choice_correct
1.261294399999315	1.9843	sub-05	1	instruction	instruction	language_selection	german	NaN	NaN	NaN	NaN	NaN	NaN	NaN	NaN	NaN	NaN	NaN
34.83848379999927	0.4993	sub-05	1	localizer	stimulus	Gesicht	NaN	0	2.351905099999378	NaN	1.0	NaN	NaN	NaN	NaN	NaN	NaN	NaN
35.3212666999998	2.3519	sub-05	1	localizer	blank	interval	NaN	NaN	NaN	NaN	NaN	NaN	NaN	NaN	NaN	NaN	NaN	NaN
37.97426689999975	0.4995	sub-05	1	localizer	stimulus	Schuh	NaN	180	3.352509600000296	-88.69723840000006	True	NaN	NaN	NaN	NaN	NaN	NaN	NaN
38.4572862999994	3.3525	sub-05	1	localizer	blank	interval	NaN	NaN	NaN	NaN	NaN	NaN	NaN	NaN	NaN	NaN	NaN	NaN
42.11095389999991	0.4994	sub-05	1	localizer	stimulus	Haus	NaN	0	2.6019623000001957	NaN	True	NaN	NaN	NaN	NaN	NaN	NaN	NaN
42.593891799999255	2.602	sub-05	1	localizer	blank	interval	NaN	NaN	NaN	NaN	NaN	NaN	NaN	NaN	NaN	NaN	NaN	NaN
45.49690310000005	0.4995	sub-05	1	localizer	stimulus	Stuhl	NaN	0	2.752056499999526	NaN	True	NaN	NaN	NaN	NaN	NaN	NaN	NaN
45.979892800000016	2.7521	sub-05	1	localizer	blank	interval	NaN	NaN	NaN	NaN	NaN	NaN	NaN	NaN	NaN	NaN	NaN	NaN
49.03308029999971	0.4995	sub-05	1	localizer	stimulus	Stuhl	NaN	0	3.686276000000362	NaN	True	NaN	NaN	NaN	NaN	NaN	NaN	NaN
49.51607769999919	3.6863	sub-05	1	localizer	blank	interval	NaN	NaN	NaN	NaN	NaN	NaN	NaN	NaN	NaN	NaN	NaN	NaN
53.5034126999999	0.4995	sub-05	1	localizer	stimulus	Schuh	NaN	0	1.8012397000002238	NaN	True	NaN	NaN	NaN	NaN	NaN	NaN	NaN
53.98641619999944	1.8012	sub-05	1	localizer	blank	interval	NaN	NaN	NaN	NaN	NaN	NaN	NaN	NaN	NaN	NaN	NaN	NaN
56.08879119999983	0.4995	sub-05	1	localizer	stimulus	Stuhl	NaN	0	3.085808900000302	NaN	True	NaN	NaN	NaN	NaN	NaN	NaN	NaN
56.571734499999366	3.0858	sub-05	1	localizer	blank	interval	NaN	NaN	NaN	NaN	NaN	NaN	NaN	NaN	NaN	NaN	NaN	NaN
59.95867139999973	0.4996	sub-05	1	localizer	stimulus	Haus	NaN	0	2.2182400000001508	NaN	True	NaN	NaN	NaN	NaN	NaN	NaN	NaN
60.44169149999925	2.2182	sub-05	1	localizer	blank	interval	NaN	NaN	NaN	NaN	NaN	NaN	NaN	NaN	NaN	NaN	NaN	NaN
62.9610518999998	0.4994	sub-05	1	localizer	stimulus	Haus	NaN	0	2.051517099999728	NaN	True	NaN	NaN	NaN	NaN	NaN	NaN	NaN
63.44397889999982	2.0515	sub-05	1	localizer	blank	interval	NaN	NaN	NaN	NaN	NaN	NaN	NaN	NaN	NaN	NaN	NaN	NaN
65.79664749999938	0.5	sub-05	1	localizer	stimulus	Gesicht	NaN	180	1.7012668999996094	-88.79932510000071	True	NaN	NaN	NaN	NaN	NaN	NaN	NaN
66.27957530000003	1.7013	sub-05	1	localizer	blank	interval	NaN	NaN	NaN	NaN	NaN	NaN	NaN	NaN	NaN	NaN	NaN	NaN
68.28202639999927	0.4995	sub-05	1	localizer	stimulus	Gesicht	NaN	0	1.9014154999995299	NaN	True	NaN	NaN	NaN	NaN	NaN	NaN	NaN
68.76489539999966	1.9014	sub-05	1	localizer	blank	interval	NaN	NaN	NaN	NaN	NaN	NaN	NaN	NaN	NaN	NaN	NaN	NaN
70.96755069999926	0.4994	sub-05	1	localizer	stimulus	Stuhl	NaN	0	3.5861621999993076	NaN	True	NaN	NaN	NaN	NaN	NaN	NaN	NaN
71.45049199999994	3.5862	sub-05	1	localizer	blank	interval	NaN	NaN	NaN	NaN	NaN	NaN	NaN	NaN	NaN	NaN	NaN	NaN
75.33780879999995	0.4994	sub-05	1	localizer	stimulus	Gesicht	NaN	0	2.45184430000063	NaN	True	NaN	NaN	NaN	NaN	NaN	NaN	NaN
75.82068159999926	2.4518	sub-05	1	localizer	blank	interval	NaN	NaN	NaN	NaN	NaN	NaN	NaN	NaN	NaN	NaN	NaN	NaN
78.57400989999951	0.4993	sub-05	1	localizer	stimulus	Katze	NaN	0	2.4185861999994813	NaN	True	NaN	NaN	NaN	NaN	NaN	NaN	NaN
79.05668839999998	2.4186	sub-05	1	localizer	blank	interval	NaN	NaN	NaN	NaN	NaN	NaN	NaN	NaN	NaN	NaN	NaN	NaN
81.77658659999997	0.4995	sub-05	1	localizer	stimulus	Schuh	NaN	0	1.7342520000001969	NaN	True	NaN	NaN	NaN	NaN	NaN	NaN	NaN
82.25952459999917	1.7343	sub-05	1	localizer	blank	interval	NaN	NaN	NaN	NaN	NaN	NaN	NaN	NaN	NaN	NaN	NaN	NaN
84.2950151999994	0.4994	sub-05	1	localizer	stimulus	Katze	NaN	180	2.685297700000774	-88.7616652000006	True	NaN	NaN	NaN	NaN	NaN	NaN	NaN
84.77790729999924	2.6853	sub-05	1	localizer	blank	interval	NaN	NaN	NaN	NaN	NaN	NaN	NaN	NaN	NaN	NaN	NaN	NaN
87.76439689999916	0.4995	sub-05	1	localizer	stimulus	Katze	NaN	0	2.9189077000000907	NaN	True	NaN	NaN	NaN	NaN	NaN	NaN	NaN
88.24735629999941	2.9189	sub-05	1	localizer	blank	interval	NaN	NaN	NaN	NaN	NaN	NaN	NaN	NaN	NaN	NaN	NaN	NaN
91.4675897999996	0.4993	sub-05	1	localizer	stimulus	Haus	NaN	0	2.201731000000123	NaN	True	NaN	NaN	NaN	NaN	NaN	NaN	NaN
91.95035589999952	2.2017	sub-05	1	localizer	blank	interval	NaN	NaN	NaN	NaN	NaN	NaN	NaN	NaN	NaN	NaN	NaN	NaN
94.4532909999998	0.4996	sub-05	1	localizer	stimulus	Schuh	NaN	0	1.9679960000002978	NaN	True	NaN	NaN	NaN	NaN	NaN	NaN	NaN
94.9363612999996	1.968	sub-05	1	localizer	blank	interval	NaN	NaN	NaN	NaN	NaN	NaN	NaN	NaN	NaN	NaN	NaN	NaN
97.20540059999983	0.4996	sub-05	1	localizer	stimulus	Schuh	NaN	0	2.0347451000006913	NaN	True	NaN	NaN	NaN	NaN	NaN	NaN	NaN
97.68843979999929	2.0347	sub-05	1	localizer	blank	interval	NaN	NaN	NaN	NaN	NaN	NaN	NaN	NaN	NaN	NaN	NaN	NaN
100.0246092999996	0.4992	sub-05	1	localizer	stimulus	Gesicht	NaN	0	2.6854022000006808	NaN	True	NaN	NaN	NaN	NaN	NaN	NaN	NaN
100.5075113999992	2.6854	sub-05	1	localizer	blank	interval	NaN	NaN	NaN	NaN	NaN	NaN	NaN	NaN	NaN	NaN	NaN	NaN
103.4939715999999	0.4993	sub-05	1	localizer	stimulus	Haus	NaN	180	2.0349144000001615	-88.77641010000025	True	NaN	NaN	NaN	NaN	NaN	NaN	NaN
103.9767540999992	2.0349	sub-05	1	localizer	blank	interval	NaN	NaN	NaN	NaN	NaN	NaN	NaN	NaN	NaN	NaN	NaN	NaN
106.3127947999992	0.4995	sub-05	1	localizer	stimulus	Katze	NaN	0	2.802006200000477	NaN	True	NaN	NaN	NaN	NaN	NaN	NaN	NaN
106.7957990999994	2.802	sub-05	1	localizer	blank	interval	NaN	NaN	NaN	NaN	NaN	NaN	NaN	NaN	NaN	NaN	NaN	NaN
109.8989499999998	0.4996	sub-05	1	localizer	stimulus	Stuhl	NaN	180	2.1516908999992523	-88.73418230000061	True	NaN	NaN	NaN	NaN	NaN	NaN	NaN
110.38197209999998	2.1517	sub-05	1	localizer	blank	interval	NaN	NaN	NaN	NaN	NaN	NaN	NaN	NaN	NaN	NaN	NaN	NaN
112.83477649999986	0.4995	sub-05	1	localizer	stimulus	Katze	NaN	0	2.801923699999847	NaN	True	NaN	NaN	NaN	NaN	NaN	NaN	NaN
113.3178485999997	2.8019	sub-05	1	localizer	blank	interval	NaN	NaN	NaN	NaN	NaN	NaN	NaN	NaN	NaN	NaN	NaN	NaN
119.60633280000002	1.0004	sub-05	1	sequence	cue	Gesicht	NaN	NaN	NaN	NaN	NaN	NaN	NaN	NaN	NaN	NaN	NaN	NaN
120.60672609999985	2.0017	sub-05	1	sequence	blank	blank	NaN	NaN	NaN	NaN	NaN	NaN	NaN	NaN	NaN	NaN	NaN	NaN
122.60848019999958	0.3002	sub-05	1	sequence	fixation	dot	NaN	NaN	NaN	NaN	NaN	NaN	NaN	NaN	NaN	NaN	NaN	NaN
122.97397969999928	0.1015	sub-05	1	sequence	stimulus	Katze	NaN	NaN	128.0	NaN	NaN	3.0	1.0	NaN	NaN	NaN	NaN	NaN
123.0755208999999	0.1337	sub-05	1	sequence	interval	dot	NaN	NaN	NaN	NaN	NaN	NaN	NaN	NaN	NaN	NaN	NaN	NaN
123.20920139999998	0.1	sub-05	1	sequence	stimulus	Stuhl	NaN	NaN	128.0	NaN	NaN	5.0	2.0	NaN	NaN	NaN	NaN	NaN
123.3091958999994	0.1336	sub-05	1	sequence	interval	dot	NaN	NaN	NaN	NaN	NaN	NaN	NaN	NaN	NaN	NaN	NaN	NaN
123.44282699999984	0.1	sub-05	1	sequence	stimulus	Haus	NaN	NaN	128.0	NaN	NaN	2.0	3.0	NaN	NaN	NaN	NaN	NaN
123.54277709999953	0.1336	sub-05	1	sequence	interval	dot	NaN	NaN	NaN	NaN	NaN	NaN	NaN	NaN	NaN	NaN	NaN	NaN
123.67635919999977	0.0999	sub-05	1	sequence	stimulus	Gesicht	NaN	NaN	128.0	NaN	NaN	1.0	4.0	NaN	NaN	NaN	NaN	NaN
123.77629009999964	0.1336	sub-05	1	sequence	interval	dot	NaN	NaN	NaN	NaN	NaN	NaN	NaN	NaN	NaN	NaN	NaN	NaN
123.90989159999936	0.0999	sub-05	1	sequence	stimulus	Schuh	NaN	NaN	128.0	NaN	NaN	4.0	5.0	NaN	NaN	NaN	NaN	NaN
124.00977590000002	0.1334	sub-05	1	sequence	interval	dot	NaN	NaN	NaN	NaN	NaN	NaN	NaN	NaN	NaN	NaN	NaN	NaN
124.14319350000004	8.0712	sub-05	1	sequence	delay	dot	NaN	NaN	NaN	NaN	NaN	NaN	NaN	NaN	NaN	NaN	NaN	NaN
132.1911268999993	0.8097	sub-05	1	sequence	choice	choice	left	NaN	NaN	-88.5613024000013	True	NaN	NaN	left	1.0	4.0	3.0	4.0
133.00122079999983	0.4998	sub-05	1	sequence	feedback	NaN	NaN	NaN	NaN	NaN	NaN	NaN	NaN	NaN	NaN	NaN	NaN	NaN
133.5012818999994	1.0003	sub-05	1	sequence	cue	Stuhl	NaN	NaN	NaN	NaN	NaN	NaN	NaN	NaN	NaN	NaN	NaN	NaN
134.50154979999934	2.0015	sub-05	1	sequence	blank	blank	NaN	NaN	NaN	NaN	NaN	NaN	NaN	NaN	NaN	NaN	NaN	NaN
136.50307129999965	0.3001	sub-05	1	sequence	fixation	dot	NaN	NaN	NaN	NaN	NaN	NaN	NaN	NaN	NaN	NaN	NaN	NaN
136.8216494999997	0.1149	sub-05	1	sequence	stimulus	Gesicht	NaN	NaN	32.0	NaN	NaN	1.0	1.0	NaN	NaN	NaN	NaN	NaN
136.9365656	0.0336	sub-05	1	sequence	interval	dot	NaN	NaN	NaN	NaN	NaN	NaN	NaN	NaN	NaN	NaN	NaN	NaN
136.97015179999926	0.1	sub-05	1	sequence	stimulus	Katze	NaN	NaN	32.0	NaN	NaN	3.0	2.0	NaN	NaN	NaN	NaN	NaN
137.070154	0.0334	sub-05	1	sequence	interval	dot	NaN	NaN	NaN	NaN	NaN	NaN	NaN	NaN	NaN	NaN	NaN	NaN
137.1035297999997	0.0999	sub-05	1	sequence	stimulus	Haus	NaN	NaN	32.0	NaN	NaN	2.0	3.0	NaN	NaN	NaN	NaN	NaN
137.20345499999985	0.0335	sub-05	1	sequence	interval	dot	NaN	NaN	NaN	NaN	NaN	NaN	NaN	NaN	NaN	NaN	NaN	NaN
137.23691139999937	0.1	sub-05	1	sequence	stimulus	Schuh	NaN	NaN	32.0	NaN	NaN	4.0	4.0	NaN	NaN	NaN	NaN	NaN
137.33688209999946	0.0336	sub-05	1	sequence	interval	dot	NaN	NaN	NaN	NaN	NaN	NaN	NaN	NaN	NaN	NaN	NaN	NaN
137.3704788999994	0.0999	sub-05	1	sequence	stimulus	Stuhl	NaN	NaN	32.0	NaN	NaN	5.0	5.0	NaN	NaN	NaN	NaN	NaN
137.47039329999916	0.0334	sub-05	1	sequence	interval	dot	NaN	NaN	NaN	NaN	NaN	NaN	NaN	NaN	NaN	NaN	NaN	NaN
137.50377779999965	8.5385	sub-05	1	sequence	delay	dot	NaN	NaN	NaN	NaN	NaN	NaN	NaN	NaN	NaN	NaN	NaN	NaN
146.02284399999917	0.9392	sub-05	1	sequence	choice	choice	left	NaN	NaN	-88.4290329000005	True	NaN	NaN	left	True	5.0	3.0	5.0
146.962356	0.4999	sub-05	1	sequence	feedback	NaN	NaN	NaN	NaN	NaN	NaN	NaN	NaN	NaN	NaN	NaN	NaN	NaN
147.46246529999917	1.0003	sub-05	1	sequence	cue	Stuhl	NaN	NaN	NaN	NaN	NaN	NaN	NaN	NaN	NaN	NaN	NaN	NaN
148.46274619999986	2.0015	sub-05	1	sequence	blank	blank	NaN	NaN	NaN	NaN	NaN	NaN	NaN	NaN	NaN	NaN	NaN	NaN
150.46420429999944	0.3004	sub-05	1	sequence	fixation	dot	NaN	NaN	NaN	NaN	NaN	NaN	NaN	NaN	NaN	NaN	NaN	NaN
150.78211239999928	0.099	sub-05	1	sequence	stimulus	Haus	NaN	NaN	64.0	NaN	NaN	2.0	1.0	NaN	NaN	NaN	NaN	NaN
150.8811438999992	0.067	sub-05	1	sequence	interval	dot	NaN	NaN	NaN	NaN	NaN	NaN	NaN	NaN	NaN	NaN	NaN	NaN
150.94812479999928	0.0999	sub-05	1	sequence	stimulus	Gesicht	NaN	NaN	64.0	NaN	NaN	1.0	2.0	NaN	NaN	NaN	NaN	NaN
151.0480235999994	0.0668	sub-05	1	sequence	interval	dot	NaN	NaN	NaN	NaN	NaN	NaN	NaN	NaN	NaN	NaN	NaN	NaN
151.11484519999976	0.1016	sub-05	1	sequence	stimulus	Katze	NaN	NaN	64.0	NaN	NaN	3.0	3.0	NaN	NaN	NaN	NaN	NaN
151.21643999999924	0.0652	sub-05	1	sequence	interval	dot	NaN	NaN	NaN	NaN	NaN	NaN	NaN	NaN	NaN	NaN	NaN	NaN
151.2816217999998	0.0999	sub-05	1	sequence	stimulus	Schuh	NaN	NaN	64.0	NaN	NaN	4.0	4.0	NaN	NaN	NaN	NaN	NaN
151.3815442999994	0.0669	sub-05	1	sequence	interval	dot	NaN	NaN	NaN	NaN	NaN	NaN	NaN	NaN	NaN	NaN	NaN	NaN
151.4484923	0.1	sub-05	1	sequence	stimulus	Stuhl	NaN	NaN	64.0	NaN	NaN	5.0	5.0	NaN	NaN	NaN	NaN	NaN
151.54845039999964	0.0667	sub-05	1	sequence	interval	dot	NaN	NaN	NaN	NaN	NaN	NaN	NaN	NaN	NaN	NaN	NaN	NaN
151.61515340000005	8.3886	sub-05	1	sequence	delay	dot	NaN	NaN	NaN	NaN	NaN	NaN	NaN	NaN	NaN	NaN	NaN	NaN
159.98458069999924	1.1054	sub-05	1	sequence	choice	choice	right	NaN	NaN	-88.27047210000092	True	NaN	NaN	right	True	4.0	5.0	5.0
161.0902612	0.5005	sub-05	1	sequence	feedback	NaN	NaN	NaN	NaN	NaN	NaN	NaN	NaN	NaN	NaN	NaN	NaN	NaN
161.59096789999967	1.0005	sub-05	1	sequence	cue	Schuh	NaN	NaN	NaN	NaN	NaN	NaN	NaN	NaN	NaN	NaN	NaN	NaN
162.59146989999954	2.0011	sub-05	1	sequence	blank	blank	NaN	NaN	NaN	NaN	NaN	NaN	NaN	NaN	NaN	NaN	NaN	NaN
164.59255229999962	0.3002	sub-05	1	sequence	fixation	dot	NaN	NaN	NaN	NaN	NaN	NaN	NaN	NaN	NaN	NaN	NaN	NaN
164.91100079999978	0.1151	sub-05	1	sequence	stimulus	Stuhl	NaN	NaN	128.0	NaN	NaN	5.0	1.0	NaN	NaN	NaN	NaN	NaN
165.0260535999996	0.1336	sub-05	1	sequence	interval	dot	NaN	NaN	NaN	NaN	NaN	NaN	NaN	NaN	NaN	NaN	NaN	NaN
165.1596286999993	0.1	sub-05	1	sequence	stimulus	Gesicht	NaN	NaN	128.0	NaN	NaN	1.0	2.0	NaN	NaN	NaN	NaN	NaN
165.2596079999994	0.1336	sub-05	1	sequence	interval	dot	NaN	NaN	NaN	NaN	NaN	NaN	NaN	NaN	NaN	NaN	NaN	NaN
165.39319949999935	0.0999	sub-05	1	sequence	stimulus	Schuh	NaN	NaN	128.0	NaN	NaN	4.0	3.0	NaN	NaN	NaN	NaN	NaN
165.49314649999997	0.1336	sub-05	1	sequence	interval	dot	NaN	NaN	NaN	NaN	NaN	NaN	NaN	NaN	NaN	NaN	NaN	NaN
165.6267586999993	0.1	sub-05	1	sequence	stimulus	Katze	NaN	NaN	128.0	NaN	NaN	3.0	4.0	NaN	NaN	NaN	NaN	NaN
165.7267265999999	0.1336	sub-05	1	sequence	interval	dot	NaN	NaN	NaN	NaN	NaN	NaN	NaN	NaN	NaN	NaN	NaN	NaN
165.8603220999994	0.0999	sub-05	1	sequence	stimulus	Haus	NaN	NaN	128.0	NaN	NaN	2.0	5.0	NaN	NaN	NaN	NaN	NaN
165.96026449999954	0.1334	sub-05	1	sequence	interval	dot	NaN	NaN	NaN	NaN	NaN	NaN	NaN	NaN	NaN	NaN	NaN	NaN
166.0936628999998	8.0548	sub-05	1	sequence	delay	dot	NaN	NaN	NaN	NaN	NaN	NaN	NaN	NaN	NaN	NaN	NaN	NaN
174.12828659999923	0.8899	sub-05	1	sequence	choice	choice	left	NaN	NaN	-88.48722020000059	True	NaN	NaN	left	True	3.0	5.0	3.0
175.01846739999928	0.4999	sub-05	1	sequence	feedback	NaN	NaN	NaN	NaN	NaN	NaN	NaN	NaN	NaN	NaN	NaN	NaN	NaN
175.51858709999942	1.0003	sub-05	1	sequence	cue	Haus	NaN	NaN	NaN	NaN	NaN	NaN	NaN	NaN	NaN	NaN	NaN	NaN
176.51893729999938	2.0013	sub-05	1	sequence	blank	blank	NaN	NaN	NaN	NaN	NaN	NaN	NaN	NaN	NaN	NaN	NaN	NaN
178.5201995999996	0.3003	sub-05	1	sequence	fixation	dot	NaN	NaN	NaN	NaN	NaN	NaN	NaN	NaN	NaN	NaN	NaN	NaN
178.83801959999985	0.0992	sub-05	1	sequence	stimulus	Stuhl	NaN	NaN	512.0	NaN	NaN	5.0	1.0	NaN	NaN	NaN	NaN	NaN
178.93721539999933	0.5173	sub-05	1	sequence	interval	dot	NaN	NaN	NaN	NaN	NaN	NaN	NaN	NaN	NaN	NaN	NaN	NaN
179.45447269999931	0.0999	sub-05	1	sequence	stimulus	Gesicht	NaN	NaN	512.0	NaN	NaN	1.0	2.0	NaN	NaN	NaN	NaN	NaN
179.55434689999947	0.5173	sub-05	1	sequence	interval	dot	NaN	NaN	NaN	NaN	NaN	NaN	NaN	NaN	NaN	NaN	NaN	NaN
180.07168550000006	0.0999	sub-05	1	sequence	stimulus	Haus	NaN	NaN	512.0	NaN	NaN	2.0	3.0	NaN	NaN	NaN	NaN	NaN
180.1715897999993	0.5173	sub-05	1	sequence	interval	dot	NaN	NaN	NaN	NaN	NaN	NaN	NaN	NaN	NaN	NaN	NaN	NaN
180.68888079999945	0.1	sub-05	1	sequence	stimulus	Schuh	NaN	NaN	512.0	NaN	NaN	4.0	4.0	NaN	NaN	NaN	NaN	NaN
180.78884859999928	0.5172	sub-05	1	sequence	interval	dot	NaN	NaN	NaN	NaN	NaN	NaN	NaN	NaN	NaN	NaN	NaN	NaN
181.3060693999996	0.0999	sub-05	1	sequence	stimulus	Katze	NaN	NaN	512.0	NaN	NaN	3.0	5.0	NaN	NaN	NaN	NaN	NaN
181.40599539999948	0.5171	sub-05	1	sequence	interval	dot	NaN	NaN	NaN	NaN	NaN	NaN	NaN	NaN	NaN	NaN	NaN	NaN
181.9230837999994	6.1365	sub-05	1	sequence	delay	dot	NaN	NaN	NaN	NaN	NaN	NaN	NaN	NaN	NaN	NaN	NaN	NaN
188.0379703999997	0.8413	sub-05	1	sequence	choice	choice	right	NaN	NaN	-88.53461600000082	True	NaN	NaN	right	True	1.0	3.0	3.0
188.87954119999995	0.4998	sub-05	1	sequence	feedback	NaN	NaN	NaN	NaN	NaN	NaN	NaN	NaN	NaN	NaN	NaN	NaN	NaN
189.37955689999944	1.0004	sub-05	1	sequence	cue	Haus	NaN	NaN	NaN	NaN	NaN	NaN	NaN	NaN	NaN	NaN	NaN	NaN
190.37996769999967	2.0016	sub-05	1	sequence	blank	blank	NaN	NaN	NaN	NaN	NaN	NaN	NaN	NaN	NaN	NaN	NaN	NaN
192.38159389999964	0.3002	sub-05	1	sequence	fixation	dot	NaN	NaN	NaN	NaN	NaN	NaN	NaN	NaN	NaN	NaN	NaN	NaN
192.70035439999992	0.1147	sub-05	1	sequence	stimulus	Schuh	NaN	NaN	64.0	NaN	NaN	4.0	1.0	NaN	NaN	NaN	NaN	NaN
192.8150904999993	0.0669	sub-05	1	sequence	interval	dot	NaN	NaN	NaN	NaN	NaN	NaN	NaN	NaN	NaN	NaN	NaN	NaN
192.8819887	0.0999	sub-05	1	sequence	stimulus	Gesicht	NaN	NaN	64.0	NaN	NaN	1.0	2.0	NaN	NaN	NaN	NaN	NaN
192.9819269999998	0.0669	sub-05	1	sequence	interval	dot	NaN	NaN	NaN	NaN	NaN	NaN	NaN	NaN	NaN	NaN	NaN	NaN
193.0488613999996	0.0999	sub-05	1	sequence	stimulus	Stuhl	NaN	NaN	64.0	NaN	NaN	5.0	3.0	NaN	NaN	NaN	NaN	NaN
193.1487766	0.0668	sub-05	1	sequence	interval	dot	NaN	NaN	NaN	NaN	NaN	NaN	NaN	NaN	NaN	NaN	NaN	NaN
193.2155985999998	0.0999	sub-05	1	sequence	stimulus	Katze	NaN	NaN	64.0	NaN	NaN	3.0	4.0	NaN	NaN	NaN	NaN	NaN
193.31554679999957	0.067	sub-05	1	sequence	interval	dot	NaN	NaN	NaN	NaN	NaN	NaN	NaN	NaN	NaN	NaN	NaN	NaN
193.3825000999996	0.0999	sub-05	1	sequence	stimulus	Haus	NaN	NaN	64.0	NaN	NaN	2.0	5.0	NaN	NaN	NaN	NaN	NaN
193.4823758999992	0.0667	sub-05	1	sequence	interval	dot	NaN	NaN	NaN	NaN	NaN	NaN	NaN	NaN	NaN	NaN	NaN	NaN
193.54908979999985	8.3886	sub-05	1	sequence	delay	dot	NaN	NaN	NaN	NaN	NaN	NaN	NaN	NaN	NaN	NaN	NaN	NaN
201.9216821	1.0189	sub-05	1	sequence	choice	choice	right	NaN	NaN	-88.3562036000003	False	NaN	NaN	left	True	5.0	4.0	5.0
202.9408347999997	0.4999	sub-05	1	sequence	feedback	NaN	NaN	NaN	NaN	NaN	NaN	NaN	NaN	NaN	NaN	NaN	NaN	NaN
203.4410146	1.0002	sub-05	1	sequence	cue	Gesicht	NaN	NaN	NaN	NaN	NaN	NaN	NaN	NaN	NaN	NaN	NaN	NaN
204.44120139999995	2.0017	sub-05	1	sequence	blank	blank	NaN	NaN	NaN	NaN	NaN	NaN	NaN	NaN	NaN	NaN	NaN	NaN
206.44291209999935	0.3002	sub-05	1	sequence	fixation	dot	NaN	NaN	NaN	NaN	NaN	NaN	NaN	NaN	NaN	NaN	NaN	NaN
206.76163049999923	0.1149	sub-05	1	sequence	stimulus	Schuh	NaN	NaN	512.0	NaN	NaN	4.0	1.0	NaN	NaN	NaN	NaN	NaN
206.87657449999915	0.5174	sub-05	1	sequence	interval	dot	NaN	NaN	NaN	NaN	NaN	NaN	NaN	NaN	NaN	NaN	NaN	NaN
207.3939488999995	0.0999	sub-05	1	sequence	stimulus	Katze	NaN	NaN	512.0	NaN	NaN	3.0	2.0	NaN	NaN	NaN	NaN	NaN
207.49387169999957	0.5172	sub-05	1	sequence	interval	dot	NaN	NaN	NaN	NaN	NaN	NaN	NaN	NaN	NaN	NaN	NaN	NaN
208.0111035	0.1	sub-05	1	sequence	stimulus	Stuhl	NaN	NaN	512.0	NaN	NaN	5.0	3.0	NaN	NaN	NaN	NaN	NaN
208.11111739999976	0.517	sub-05	1	sequence	interval	dot	NaN	NaN	NaN	NaN	NaN	NaN	NaN	NaN	NaN	NaN	NaN	NaN
208.6280780999996	0.1	sub-05	1	sequence	stimulus	Gesicht	NaN	NaN	512.0	NaN	NaN	1.0	4.0	NaN	NaN	NaN	NaN	NaN
208.72807529999957	0.5172	sub-05	1	sequence	interval	dot	NaN	NaN	NaN	NaN	NaN	NaN	NaN	NaN	NaN	NaN	NaN	NaN
209.24528849999933	0.0999	sub-05	1	sequence	stimulus	Haus	NaN	NaN	512.0	NaN	NaN	2.0	5.0	NaN	NaN	NaN	NaN	NaN
209.3451589999995	0.5171	sub-05	1	sequence	interval	dot	NaN	NaN	NaN	NaN	NaN	NaN	NaN	NaN	NaN	NaN	NaN	NaN
209.86224319999928	6.137	sub-05	1	sequence	delay	dot	NaN	NaN	NaN	NaN	NaN	NaN	NaN	NaN	NaN	NaN	NaN	NaN
215.9874241999996	0.7645	sub-05	1	sequence	choice	choice	right	NaN	NaN	-88.60198140000102	True	NaN	NaN	right	True	5.0	4.0	4.0
216.75217359999988	0.4998	sub-05	1	sequence	feedback	NaN	NaN	NaN	NaN	NaN	NaN	NaN	NaN	NaN	NaN	NaN	NaN	NaN
217.25220099999933	1.0003	sub-05	1	sequence	cue	Katze	NaN	NaN	NaN	NaN	NaN	NaN	NaN	NaN	NaN	NaN	NaN	NaN
218.25253079999948	2.0015	sub-05	1	sequence	blank	blank	NaN	NaN	NaN	NaN	NaN	NaN	NaN	NaN	NaN	NaN	NaN	NaN
220.25404939999956	0.3003	sub-05	1	sequence	fixation	dot	NaN	NaN	NaN	NaN	NaN	NaN	NaN	NaN	NaN	NaN	NaN	NaN
220.58646839999983	0.1012	sub-05	1	sequence	stimulus	Schuh	NaN	NaN	32.0	NaN	NaN	4.0	1.0	NaN	NaN	NaN	NaN	NaN
220.6876210999999	0.0335	sub-05	1	sequence	interval	dot	NaN	NaN	NaN	NaN	NaN	NaN	NaN	NaN	NaN	NaN	NaN	NaN
220.72112229999948	0.1	sub-05	1	sequence	stimulus	Haus	NaN	NaN	32.0	NaN	NaN	2.0	2.0	NaN	NaN	NaN	NaN	NaN
220.82114479999927	0.0335	sub-05	1	sequence	interval	dot	NaN	NaN	NaN	NaN	NaN	NaN	NaN	NaN	NaN	NaN	NaN	NaN
220.85465079999997	0.1	sub-05	1	sequence	stimulus	Gesicht	NaN	NaN	32.0	NaN	NaN	1.0	3.0	NaN	NaN	NaN	NaN	NaN
220.95464149999952	0.0333	sub-05	1	sequence	interval	dot	NaN	NaN	NaN	NaN	NaN	NaN	NaN	NaN	NaN	NaN	NaN	NaN
220.98789159999976	0.1	sub-05	1	sequence	stimulus	Katze	NaN	NaN	32.0	NaN	NaN	3.0	4.0	NaN	NaN	NaN	NaN	NaN
221.08788430000004	0.0336	sub-05	1	sequence	interval	dot	NaN	NaN	NaN	NaN	NaN	NaN	NaN	NaN	NaN	NaN	NaN	NaN
221.12144439999972	0.1	sub-05	1	sequence	stimulus	Stuhl	NaN	NaN	32.0	NaN	NaN	5.0	5.0	NaN	NaN	NaN	NaN	NaN
221.22142339999937	0.0333	sub-05	1	sequence	interval	dot	NaN	NaN	NaN	NaN	NaN	NaN	NaN	NaN	NaN	NaN	NaN	NaN
221.2547533999996	8.5221	sub-05	1	sequence	delay	dot	NaN	NaN	NaN	NaN	NaN	NaN	NaN	NaN	NaN	NaN	NaN	NaN
229.7670335999992	0.9627	sub-05	1	sequence	choice	choice	right	NaN	NaN	-88.4039472000004	True	NaN	NaN	right	True	5.0	4.0	4.0
230.73003319999955	0.4999	sub-05	1	sequence	feedback	NaN	NaN	NaN	NaN	NaN	NaN	NaN	NaN	NaN	NaN	NaN	NaN	NaN
235.0502792999996	0.4996	sub-05	1	localizer	stimulus	Stuhl	NaN	0	1.4510809000003349	NaN	True	NaN	NaN	NaN	NaN	NaN	NaN	NaN
235.53328489999967	1.4511	sub-05	1	localizer	blank	interval	NaN	NaN	NaN	NaN	NaN	NaN	NaN	NaN	NaN	NaN	NaN	NaN
237.28541679999944	0.4995	sub-05	1	localizer	stimulus	Gesicht	NaN	0	2.8353725000006307	NaN	True	NaN	NaN	NaN	NaN	NaN	NaN	NaN
237.7683660999992	2.8354	sub-05	1	localizer	blank	interval	NaN	NaN	NaN	NaN	NaN	NaN	NaN	NaN	NaN	NaN	NaN	NaN
240.9049701999993	0.4995	sub-05	1	localizer	stimulus	Haus	NaN	0	2.385066799999521	NaN	True	NaN	NaN	NaN	NaN	NaN	NaN	NaN
241.38794169999983	2.3851	sub-05	1	localizer	blank	interval	NaN	NaN	NaN	NaN	NaN	NaN	NaN	NaN	NaN	NaN	NaN	NaN
244.0741367999999	0.4996	sub-05	1	localizer	stimulus	Gesicht	NaN	0	2.251720400000522	NaN	True	NaN	NaN	NaN	NaN	NaN	NaN	NaN
244.55714409999928	2.2517	sub-05	1	localizer	blank	interval	NaN	NaN	NaN	NaN	NaN	NaN	NaN	NaN	NaN	NaN	NaN	NaN
247.11002439999996	0.4995	sub-05	1	localizer	stimulus	Gesicht	NaN	180	1.851502000000437	NaN	False	NaN	NaN	NaN	NaN	NaN	NaN	NaN
247.59300409999923	1.8515	sub-05	1	localizer	blank	interval	NaN	NaN	NaN	NaN	NaN	NaN	NaN	NaN	NaN	NaN	NaN	NaN
249.7455723999992	0.4995	sub-05	1	localizer	stimulus	Stuhl	NaN	0	1.8679063999998107	NaN	True	NaN	NaN	NaN	NaN	NaN	NaN	NaN
250.22857879999992	1.8679	sub-05	1	localizer	blank	interval	NaN	NaN	NaN	NaN	NaN	NaN	NaN	NaN	NaN	NaN	NaN	NaN
252.3975549999996	0.4995	sub-05	1	localizer	stimulus	Schuh	NaN	0	2.4854905000001963	NaN	True	NaN	NaN	NaN	NaN	NaN	NaN	NaN
252.8804782999996	2.4855	sub-05	1	localizer	blank	interval	NaN	NaN	NaN	NaN	NaN	NaN	NaN	NaN	NaN	NaN	NaN	NaN
255.6669042999993	0.4997	sub-05	1	localizer	stimulus	Katze	NaN	0	1.884732200000144	NaN	True	NaN	NaN	NaN	NaN	NaN	NaN	NaN
256.1498869999996	1.8847	sub-05	1	localizer	blank	interval	NaN	NaN	NaN	NaN	NaN	NaN	NaN	NaN	NaN	NaN	NaN	NaN
258.3357184999996	0.4994	sub-05	1	localizer	stimulus	Katze	NaN	0	2.117738300000383	NaN	True	NaN	NaN	NaN	NaN	NaN	NaN	NaN
258.8191141999996	2.1177	sub-05	1	localizer	blank	interval	NaN	NaN	NaN	NaN	NaN	NaN	NaN	NaN	NaN	NaN	NaN	NaN
261.23805790000006	0.4995	sub-05	1	localizer	stimulus	Haus	NaN	180	2.7520942000001014	-88.76925389999997	True	NaN	NaN	NaN	NaN	NaN	NaN	NaN
261.72098279999955	2.7521	sub-05	1	localizer	blank	interval	NaN	NaN	NaN	NaN	NaN	NaN	NaN	NaN	NaN	NaN	NaN	NaN
264.7742451999993	0.4994	sub-05	1	localizer	stimulus	Haus	NaN	0	3.135803300000589	NaN	True	NaN	NaN	NaN	NaN	NaN	NaN	NaN
265.25720419999925	3.1358	sub-05	1	localizer	blank	interval	NaN	NaN	NaN	NaN	NaN	NaN	NaN	NaN	NaN	NaN	NaN	NaN
268.69407950000004	0.4997	sub-05	1	localizer	stimulus	Katze	NaN	0	2.9521681999995053	NaN	True	NaN	NaN	NaN	NaN	NaN	NaN	NaN
269.17707729999984	2.9522	sub-05	1	localizer	blank	interval	NaN	NaN	NaN	NaN	NaN	NaN	NaN	NaN	NaN	NaN	NaN	NaN
272.4304046999996	0.4996	sub-05	1	localizer	stimulus	Stuhl	NaN	0	3.2525608000005377	NaN	True	NaN	NaN	NaN	NaN	NaN	NaN	NaN
272.91333549999945	3.2526	sub-05	1	localizer	blank	interval	NaN	NaN	NaN	NaN	NaN	NaN	NaN	NaN	NaN	NaN	NaN	NaN
276.46712469999966	0.4995	sub-05	1	localizer	stimulus	Katze	NaN	180	3.4691131999998106	-88.7497071000007	True	NaN	NaN	NaN	NaN	NaN	NaN	NaN
276.9502862999998	3.4691	sub-05	1	localizer	blank	interval	NaN	NaN	NaN	NaN	NaN	NaN	NaN	NaN	NaN	NaN	NaN	NaN
280.7204194999995	0.4994	sub-05	1	localizer	stimulus	Gesicht	NaN	0	1.9347424000006868	NaN	True	NaN	NaN	NaN	NaN	NaN	NaN	NaN
281.20336999999927	1.9347	sub-05	1	localizer	blank	interval	NaN	NaN	NaN	NaN	NaN	NaN	NaN	NaN	NaN	NaN	NaN	NaN
283.4392926999999	0.4995	sub-05	1	localizer	stimulus	Schuh	NaN	180	2.735316799999964	-88.76204990000042	True	NaN	NaN	NaN	NaN	NaN	NaN	NaN
283.9223216999999	2.7353	sub-05	1	localizer	blank	interval	NaN	NaN	NaN	NaN	NaN	NaN	NaN	NaN	NaN	NaN	NaN	NaN
286.9588369999992	0.4995	sub-05	1	localizer	stimulus	Gesicht	NaN	0	2.9190425000006144	NaN	True	NaN	NaN	NaN	NaN	NaN	NaN	NaN
287.4417780999993	2.919	sub-05	1	localizer	blank	interval	NaN	NaN	NaN	NaN	NaN	NaN	NaN	NaN	NaN	NaN	NaN	NaN
290.66191979999985	0.4996	sub-05	1	localizer	stimulus	Katze	NaN	0	2.5017500000003565	NaN	True	NaN	NaN	NaN	NaN	NaN	NaN	NaN
291.14488529999926	2.5018	sub-05	1	localizer	blank	interval	NaN	NaN	NaN	NaN	NaN	NaN	NaN	NaN	NaN	NaN	NaN	NaN
293.94799429999966	0.4993	sub-05	1	localizer	stimulus	Schuh	NaN	0	3.0524524000002202	NaN	True	NaN	NaN	NaN	NaN	NaN	NaN	NaN
294.4307794999995	3.0525	sub-05	1	localizer	blank	interval	NaN	NaN	NaN	NaN	NaN	NaN	NaN	NaN	NaN	NaN	NaN	NaN
297.78427509999983	0.4994	sub-05	1	localizer	stimulus	Stuhl	NaN	180	2.0683650999998804	-88.78727750000053	True	NaN	NaN	NaN	NaN	NaN	NaN	NaN
298.2671584	2.0684	sub-05	1	localizer	blank	interval	NaN	NaN	NaN	NaN	NaN	NaN	NaN	NaN	NaN	NaN	NaN	NaN
300.63656009999977	0.4994	sub-05	1	localizer	stimulus	Haus	NaN	0	2.7188382000003912	NaN	True	NaN	NaN	NaN	NaN	NaN	NaN	NaN
301.11948349999966	2.7188	sub-05	1	localizer	blank	interval	NaN	NaN	NaN	NaN	NaN	NaN	NaN	NaN	NaN	NaN	NaN	NaN
304.1394143999996	0.4994	sub-05	1	localizer	stimulus	Schuh	NaN	0	2.351781600000322	NaN	True	NaN	NaN	NaN	NaN	NaN	NaN	NaN
304.62228309999955	2.3518	sub-05	1	localizer	blank	interval	NaN	NaN	NaN	NaN	NaN	NaN	NaN	NaN	NaN	NaN	NaN	NaN
307.27524019999964	0.4995	sub-05	1	localizer	stimulus	Schuh	NaN	0	2.652014700000109	NaN	True	NaN	NaN	NaN	NaN	NaN	NaN	NaN
307.75827519999984	2.652	sub-05	1	localizer	blank	interval	NaN	NaN	NaN	NaN	NaN	NaN	NaN	NaN	NaN	NaN	NaN	NaN
310.71138729999984	0.4995	sub-05	1	localizer	stimulus	Haus	NaN	0	2.785263799999484	NaN	True	NaN	NaN	NaN	NaN	NaN	NaN	NaN
311.1944752999998	2.7853	sub-05	1	localizer	blank	interval	NaN	NaN	NaN	NaN	NaN	NaN	NaN	NaN	NaN	NaN	NaN	NaN
314.2810998999994	0.4995	sub-05	1	localizer	stimulus	Stuhl	NaN	0	2.0181186999998317	NaN	True	NaN	NaN	NaN	NaN	NaN	NaN	NaN
314.7640145999994	2.0181	sub-05	1	localizer	blank	interval	NaN	NaN	NaN	NaN	NaN	NaN	NaN	NaN	NaN	NaN	NaN	NaN
320.2685207999993	1.0006	sub-05	1	sequence	cue	Haus	NaN	NaN	NaN	NaN	NaN	NaN	NaN	NaN	NaN	NaN	NaN	NaN
321.26909629999955	2.0015	sub-05	1	sequence	blank	blank	NaN	NaN	NaN	NaN	NaN	NaN	NaN	NaN	NaN	NaN	NaN	NaN
323.2705658999994	0.3004	sub-05	1	sequence	fixation	dot	NaN	NaN	NaN	NaN	NaN	NaN	NaN	NaN	NaN	NaN	NaN	NaN
323.58842489999915	0.0992	sub-05	1	sequence	stimulus	Stuhl	NaN	NaN	128.0	NaN	NaN	5.0	1.0	NaN	NaN	NaN	NaN	NaN
323.68758829999933	0.1336	sub-05	1	sequence	interval	dot	NaN	NaN	NaN	NaN	NaN	NaN	NaN	NaN	NaN	NaN	NaN	NaN
323.8211513999995	0.0999	sub-05	1	sequence	stimulus	Gesicht	NaN	NaN	128.0	NaN	NaN	1.0	2.0	NaN	NaN	NaN	NaN	NaN
323.92106669999976	0.1336	sub-05	1	sequence	interval	dot	NaN	NaN	NaN	NaN	NaN	NaN	NaN	NaN	NaN	NaN	NaN	NaN
324.0546812999992	0.0999	sub-05	1	sequence	stimulus	Schuh	NaN	NaN	128.0	NaN	NaN	4.0	3.0	NaN	NaN	NaN	NaN	NaN
324.15462769999976	0.1336	sub-05	1	sequence	interval	dot	NaN	NaN	NaN	NaN	NaN	NaN	NaN	NaN	NaN	NaN	NaN	NaN
324.2882319	0.1	sub-05	1	sequence	stimulus	Katze	NaN	NaN	128.0	NaN	NaN	3.0	4.0	NaN	NaN	NaN	NaN	NaN
324.3882199999998	0.1336	sub-05	1	sequence	interval	dot	NaN	NaN	NaN	NaN	NaN	NaN	NaN	NaN	NaN	NaN	NaN	NaN
324.5217954	0.0999	sub-05	1	sequence	stimulus	Haus	NaN	NaN	128.0	NaN	NaN	2.0	5.0	NaN	NaN	NaN	NaN	NaN
324.6216614999994	0.1334	sub-05	1	sequence	interval	dot	NaN	NaN	NaN	NaN	NaN	NaN	NaN	NaN	NaN	NaN	NaN	NaN
324.75510140000006	8.072	sub-05	1	sequence	delay	dot	NaN	NaN	NaN	NaN	NaN	NaN	NaN	NaN	NaN	NaN	NaN	NaN
332.80291020000004	0.7435	sub-05	1	sequence	choice	choice	left	NaN	NaN	-88.63839120000102	False	NaN	NaN	right	True	4.0	5.0	5.0
333.5468326	0.4996	sub-05	1	sequence	feedback	NaN	NaN	NaN	NaN	NaN	NaN	NaN	NaN	NaN	NaN	NaN	NaN	NaN
334.04668629999924	1.0002	sub-05	1	sequence	cue	Gesicht	NaN	NaN	NaN	NaN	NaN	NaN	NaN	NaN	NaN	NaN	NaN	NaN
335.0468908999992	2.0016	sub-05	1	sequence	blank	blank	NaN	NaN	NaN	NaN	NaN	NaN	NaN	NaN	NaN	NaN	NaN	NaN
337.04844819999926	0.3004	sub-05	1	sequence	fixation	dot	NaN	NaN	NaN	NaN	NaN	NaN	NaN	NaN	NaN	NaN	NaN	NaN
337.36656309999944	0.099	sub-05	1	sequence	stimulus	Schuh	NaN	NaN	512.0	NaN	NaN	4.0	1.0	NaN	NaN	NaN	NaN	NaN
337.465612	0.5172	sub-05	1	sequence	interval	dot	NaN	NaN	NaN	NaN	NaN	NaN	NaN	NaN	NaN	NaN	NaN	NaN
337.98280049999994	0.0999	sub-05	1	sequence	stimulus	Katze	NaN	NaN	512.0	NaN	NaN	3.0	2.0	NaN	NaN	NaN	NaN	NaN
338.08271969999987	0.5171	sub-05	1	sequence	interval	dot	NaN	NaN	NaN	NaN	NaN	NaN	NaN	NaN	NaN	NaN	NaN	NaN
338.5998658999997	0.0998	sub-05	1	sequence	stimulus	Stuhl	NaN	NaN	512.0	NaN	NaN	5.0	3.0	NaN	NaN	NaN	NaN	NaN
338.69970569999987	0.5173	sub-05	1	sequence	interval	dot	NaN	NaN	NaN	NaN	NaN	NaN	NaN	NaN	NaN	NaN	NaN	NaN
339.2170337999996	0.0998	sub-05	1	sequence	stimulus	Gesicht	NaN	NaN	512.0	NaN	NaN	1.0	4.0	NaN	NaN	NaN	NaN	NaN
339.3168833999998	0.5174	sub-05	1	sequence	interval	dot	NaN	NaN	NaN	NaN	NaN	NaN	NaN	NaN	NaN	NaN	NaN	NaN
339.83425889999944	0.0999	sub-05	1	sequence	stimulus	Haus	NaN	NaN	512.0	NaN	NaN	2.0	5.0	NaN	NaN	NaN	NaN	NaN
339.9342037999995	0.5186	sub-05	1	sequence	interval	dot	NaN	NaN	NaN	NaN	NaN	NaN	NaN	NaN	NaN	NaN	NaN	NaN
340.4527554999995	6.1519	sub-05	1	sequence	delay	dot	NaN	NaN	NaN	NaN	NaN	NaN	NaN	NaN	NaN	NaN	NaN	NaN
346.58255740000004	0.775	sub-05	1	sequence	choice	choice	right	NaN	NaN	-88.59927420000076	True	NaN	NaN	right	True	1.0	4.0	4.0
347.3578232	0.4996	sub-05	1	sequence	feedback	NaN	NaN	NaN	NaN	NaN	NaN	NaN	NaN	NaN	NaN	NaN	NaN	NaN
347.8576848999992	1.0003	sub-05	1	sequence	cue	Stuhl	NaN	NaN	NaN	NaN	NaN	NaN	NaN	NaN	NaN	NaN	NaN	NaN
348.8579534999999	2.0017	sub-05	1	sequence	blank	blank	NaN	NaN	NaN	NaN	NaN	NaN	NaN	NaN	NaN	NaN	NaN	NaN
350.85965339999984	0.3002	sub-05	1	sequence	fixation	dot	NaN	NaN	NaN	NaN	NaN	NaN	NaN	NaN	NaN	NaN	NaN	NaN
351.1782100999999	0.1151	sub-05	1	sequence	stimulus	Haus	NaN	NaN	64.0	NaN	NaN	2.0	1.0	NaN	NaN	NaN	NaN	NaN
351.29330239999945	0.0668	sub-05	1	sequence	interval	dot	NaN	NaN	NaN	NaN	NaN	NaN	NaN	NaN	NaN	NaN	NaN	NaN
351.36014279999927	0.1	sub-05	1	sequence	stimulus	Gesicht	NaN	NaN	64.0	NaN	NaN	1.0	2.0	NaN	NaN	NaN	NaN	NaN
351.4601364	0.0668	sub-05	1	sequence	interval	dot	NaN	NaN	NaN	NaN	NaN	NaN	NaN	NaN	NaN	NaN	NaN	NaN
351.5269578999996	0.0999	sub-05	1	sequence	stimulus	Katze	NaN	NaN	64.0	NaN	NaN	3.0	3.0	NaN	NaN	NaN	NaN	NaN
351.6268706999999	0.0669	sub-05	1	sequence	interval	dot	NaN	NaN	NaN	NaN	NaN	NaN	NaN	NaN	NaN	NaN	NaN	NaN
351.6938204999997	0.0999	sub-05	1	sequence	stimulus	Schuh	NaN	NaN	64.0	NaN	NaN	4.0	4.0	NaN	NaN	NaN	NaN	NaN
351.7937347999996	0.0669	sub-05	1	sequence	interval	dot	NaN	NaN	NaN	NaN	NaN	NaN	NaN	NaN	NaN	NaN	NaN	NaN
351.8605871999998	0.1	sub-05	1	sequence	stimulus	Stuhl	NaN	NaN	64.0	NaN	NaN	5.0	5.0	NaN	NaN	NaN	NaN	NaN
351.9605492999999	0.0667	sub-05	1	sequence	interval	dot	NaN	NaN	NaN	NaN	NaN	NaN	NaN	NaN	NaN	NaN	NaN	NaN
352.0272888999998	8.3718	sub-05	1	sequence	delay	dot	NaN	NaN	NaN	NaN	NaN	NaN	NaN	NaN	NaN	NaN	NaN	NaN
360.3883196999996	0.797	sub-05	1	sequence	choice	choice	right	NaN	NaN	-88.57040110000071	False	NaN	NaN	left	True	5.0	4.0	5.0
361.1855931	0.4999	sub-05	1	sequence	feedback	NaN	NaN	NaN	NaN	NaN	NaN	NaN	NaN	NaN	NaN	NaN	NaN	NaN
361.6856859999998	1.0001	sub-05	1	sequence	cue	Haus	NaN	NaN	NaN	NaN	NaN	NaN	NaN	NaN	NaN	NaN	NaN	NaN
362.6858239999992	2.0017	sub-05	1	sequence	blank	blank	NaN	NaN	NaN	NaN	NaN	NaN	NaN	NaN	NaN	NaN	NaN	NaN
364.6875427999994	0.3001	sub-05	1	sequence	fixation	dot	NaN	NaN	NaN	NaN	NaN	NaN	NaN	NaN	NaN	NaN	NaN	NaN
365.00577669999984	0.1153	sub-05	1	sequence	stimulus	Katze	NaN	NaN	128.0	NaN	NaN	3.0	1.0	NaN	NaN	NaN	NaN	NaN
365.1210785999992	0.1336	sub-05	1	sequence	interval	dot	NaN	NaN	NaN	NaN	NaN	NaN	NaN	NaN	NaN	NaN	NaN	NaN
365.2546693999993	0.1	sub-05	1	sequence	stimulus	Stuhl	NaN	NaN	128.0	NaN	NaN	5.0	2.0	NaN	NaN	NaN	NaN	NaN
365.3546337999997	0.1336	sub-05	1	sequence	interval	dot	NaN	NaN	NaN	NaN	NaN	NaN	NaN	NaN	NaN	NaN	NaN	NaN
365.4882189	0.1001	sub-05	1	sequence	stimulus	Haus	NaN	NaN	128.0	NaN	NaN	2.0	3.0	NaN	NaN	NaN	NaN	NaN
365.5883385999996	0.1334	sub-05	1	sequence	interval	dot	NaN	NaN	NaN	NaN	NaN	NaN	NaN	NaN	NaN	NaN	NaN	NaN
365.72170729999925	0.0999	sub-05	1	sequence	stimulus	Gesicht	NaN	NaN	128.0	NaN	NaN	1.0	4.0	NaN	NaN	NaN	NaN	NaN
365.8216264999992	0.1336	sub-05	1	sequence	interval	dot	NaN	NaN	NaN	NaN	NaN	NaN	NaN	NaN	NaN	NaN	NaN	NaN
365.9552122999994	0.1001	sub-05	1	sequence	stimulus	Schuh	NaN	NaN	128.0	NaN	NaN	4.0	5.0	NaN	NaN	NaN	NaN	NaN
366.0552684999993	0.1333	sub-05	1	sequence	interval	dot	NaN	NaN	NaN	NaN	NaN	NaN	NaN	NaN	NaN	NaN	NaN	NaN
366.1886128999995	8.0551	sub-05	1	sequence	delay	dot	NaN	NaN	NaN	NaN	NaN	NaN	NaN	NaN	NaN	NaN	NaN	NaN
374.22001399999954	0.7598	sub-05	1	sequence	choice	choice	left	NaN	NaN	-88.62310420000085	True	NaN	NaN	left	True	3.0	4.0	3.0
374.9801183	0.4999	sub-05	1	sequence	feedback	NaN	NaN	NaN	NaN	NaN	NaN	NaN	NaN	NaN	NaN	NaN	NaN	NaN
375.4802491999999	1.0002	sub-05	1	sequence	cue	Stuhl	NaN	NaN	NaN	NaN	NaN	NaN	NaN	NaN	NaN	NaN	NaN	NaN
376.4804231999997	2.0016	sub-05	1	sequence	blank	blank	NaN	NaN	NaN	NaN	NaN	NaN	NaN	NaN	NaN	NaN	NaN	NaN
378.48204839999926	0.3002	sub-05	1	sequence	fixation	dot	NaN	NaN	NaN	NaN	NaN	NaN	NaN	NaN	NaN	NaN	NaN	NaN
378.7998988999998	0.099	sub-05	1	sequence	stimulus	Stuhl	NaN	NaN	512.0	NaN	NaN	5.0	1.0	NaN	NaN	NaN	NaN	NaN
378.8989208999992	0.5172	sub-05	1	sequence	interval	dot	NaN	NaN	NaN	NaN	NaN	NaN	NaN	NaN	NaN	NaN	NaN	NaN
379.4161173999992	0.1	sub-05	1	sequence	stimulus	Gesicht	NaN	NaN	512.0	NaN	NaN	1.0	2.0	NaN	NaN	NaN	NaN	NaN
379.5161414999993	0.5172	sub-05	1	sequence	interval	dot	NaN	NaN	NaN	NaN	NaN	NaN	NaN	NaN	NaN	NaN	NaN	NaN
380.0333859999992	0.1	sub-05	1	sequence	stimulus	Haus	NaN	NaN	512.0	NaN	NaN	2.0	3.0	NaN	NaN	NaN	NaN	NaN
380.1333857	0.5171	sub-05	1	sequence	interval	dot	NaN	NaN	NaN	NaN	NaN	NaN	NaN	NaN	NaN	NaN	NaN	NaN
380.6504584999993	0.0999	sub-05	1	sequence	stimulus	Schuh	NaN	NaN	512.0	NaN	NaN	4.0	4.0	NaN	NaN	NaN	NaN	NaN
380.75039599999945	0.5173	sub-05	1	sequence	interval	dot	NaN	NaN	NaN	NaN	NaN	NaN	NaN	NaN	NaN	NaN	NaN	NaN
381.2677164999996	0.0998	sub-05	1	sequence	stimulus	Katze	NaN	NaN	512.0	NaN	NaN	3.0	5.0	NaN	NaN	NaN	NaN	NaN
381.367561	0.5171	sub-05	1	sequence	interval	dot	NaN	NaN	NaN	NaN	NaN	NaN	NaN	NaN	NaN	NaN	NaN	NaN
381.8846276999993	6.1368	sub-05	1	sequence	delay	dot	NaN	NaN	NaN	NaN	NaN	NaN	NaN	NaN	NaN	NaN	NaN	NaN
387.9997365999998	0.7578	sub-05	1	sequence	choice	choice	left	NaN	NaN	-88.61670410000079	True	NaN	NaN	left	True	1.0	3.0	1.0
388.7578263999994	0.4999	sub-05	1	sequence	feedback	NaN	NaN	NaN	NaN	NaN	NaN	NaN	NaN	NaN	NaN	NaN	NaN	NaN
389.25793909999993	1.0002	sub-05	1	sequence	cue	Katze	NaN	NaN	NaN	NaN	NaN	NaN	NaN	NaN	NaN	NaN	NaN	NaN
390.2581655999993	2.0016	sub-05	1	sequence	blank	blank	NaN	NaN	NaN	NaN	NaN	NaN	NaN	NaN	NaN	NaN	NaN	NaN
392.25978309999937	0.3003	sub-05	1	sequence	fixation	dot	NaN	NaN	NaN	NaN	NaN	NaN	NaN	NaN	NaN	NaN	NaN	NaN
392.5784489999997	0.115	sub-05	1	sequence	stimulus	Schuh	NaN	NaN	32.0	NaN	NaN	4.0	1.0	NaN	NaN	NaN	NaN	NaN
392.6934710999994	0.0334	sub-05	1	sequence	interval	dot	NaN	NaN	NaN	NaN	NaN	NaN	NaN	NaN	NaN	NaN	NaN	NaN
392.7269177999997	0.0999	sub-05	1	sequence	stimulus	Haus	NaN	NaN	32.0	NaN	NaN	2.0	2.0	NaN	NaN	NaN	NaN	NaN
392.82680660000005	0.0335	sub-05	1	sequence	interval	dot	NaN	NaN	NaN	NaN	NaN	NaN	NaN	NaN	NaN	NaN	NaN	NaN
392.8603283999992	0.0999	sub-05	1	sequence	stimulus	Gesicht	NaN	NaN	32.0	NaN	NaN	1.0	3.0	NaN	NaN	NaN	NaN	NaN
392.9602777999999	0.0335	sub-05	1	sequence	interval	dot	NaN	NaN	NaN	NaN	NaN	NaN	NaN	NaN	NaN	NaN	NaN	NaN
392.99379509999926	0.0999	sub-05	1	sequence	stimulus	Katze	NaN	NaN	32.0	NaN	NaN	3.0	4.0	NaN	NaN	NaN	NaN	NaN
393.0937409999997	0.0335	sub-05	1	sequence	interval	dot	NaN	NaN	NaN	NaN	NaN	NaN	NaN	NaN	NaN	NaN	NaN	NaN
393.1272311999992	0.0999	sub-05	1	sequence	stimulus	Stuhl	NaN	NaN	32.0	NaN	NaN	5.0	5.0	NaN	NaN	NaN	NaN	NaN
393.2271676	0.0334	sub-05	1	sequence	interval	dot	NaN	NaN	NaN	NaN	NaN	NaN	NaN	NaN	NaN	NaN	NaN	NaN
393.2605963999995	8.5386	sub-05	1	sequence	delay	dot	NaN	NaN	NaN	NaN	NaN	NaN	NaN	NaN	NaN	NaN	NaN	NaN
401.7794583999994	0.9392	sub-05	1	sequence	choice	choice	right	NaN	NaN	-88.4341385000007	False	NaN	NaN	left	True	4.0	3.0	4.0
402.7189406999996	0.4999	sub-05	1	sequence	feedback	NaN	NaN	NaN	NaN	NaN	NaN	NaN	NaN	NaN	NaN	NaN	NaN	NaN
403.2190367999992	1.0004	sub-05	1	sequence	cue	Haus	NaN	NaN	NaN	NaN	NaN	NaN	NaN	NaN	NaN	NaN	NaN	NaN
404.2194620999999	2.0016	sub-05	1	sequence	blank	blank	NaN	NaN	NaN	NaN	NaN	NaN	NaN	NaN	NaN	NaN	NaN	NaN
406.2210935999992	0.3003	sub-05	1	sequence	fixation	dot	NaN	NaN	NaN	NaN	NaN	NaN	NaN	NaN	NaN	NaN	NaN	NaN
406.5388772999995	0.0992	sub-05	1	sequence	stimulus	Schuh	NaN	NaN	64.0	NaN	NaN	4.0	1.0	NaN	NaN	NaN	NaN	NaN
406.63807109999925	0.0668	sub-05	1	sequence	interval	dot	NaN	NaN	NaN	NaN	NaN	NaN	NaN	NaN	NaN	NaN	NaN	NaN
406.70486769999934	0.1	sub-05	1	sequence	stimulus	Gesicht	NaN	NaN	64.0	NaN	NaN	1.0	2.0	NaN	NaN	NaN	NaN	NaN
406.8048257	0.0668	sub-05	1	sequence	interval	dot	NaN	NaN	NaN	NaN	NaN	NaN	NaN	NaN	NaN	NaN	NaN	NaN
406.87165229999937	0.1	sub-05	1	sequence	stimulus	Stuhl	NaN	NaN	64.0	NaN	NaN	5.0	3.0	NaN	NaN	NaN	NaN	NaN
406.9716462999995	0.0668	sub-05	1	sequence	interval	dot	NaN	NaN	NaN	NaN	NaN	NaN	NaN	NaN	NaN	NaN	NaN	NaN
407.0384813999999	0.1	sub-05	1	sequence	stimulus	Katze	NaN	NaN	64.0	NaN	NaN	3.0	4.0	NaN	NaN	NaN	NaN	NaN
407.1385219999993	0.0668	sub-05	1	sequence	interval	dot	NaN	NaN	NaN	NaN	NaN	NaN	NaN	NaN	NaN	NaN	NaN	NaN
407.2053194999999	0.0999	sub-05	1	sequence	stimulus	Haus	NaN	NaN	64.0	NaN	NaN	2.0	5.0	NaN	NaN	NaN	NaN	NaN
407.3052472	0.0667	sub-05	1	sequence	interval	dot	NaN	NaN	NaN	NaN	NaN	NaN	NaN	NaN	NaN	NaN	NaN	NaN
407.3719241999997	8.3886	sub-05	1	sequence	delay	dot	NaN	NaN	NaN	NaN	NaN	NaN	NaN	NaN	NaN	NaN	NaN	NaN
415.74115209999945	0.8227	sub-05	1	sequence	choice	choice	right	NaN	NaN	-88.55563910000001	True	NaN	NaN	right	True	3.0	5.0	5.0
416.5641026999992	0.4996	sub-05	1	sequence	feedback	NaN	NaN	NaN	NaN	NaN	NaN	NaN	NaN	NaN	NaN	NaN	NaN	NaN
417.0639918999996	1.0002	sub-05	1	sequence	cue	Stuhl	NaN	NaN	NaN	NaN	NaN	NaN	NaN	NaN	NaN	NaN	NaN	NaN
418.0642415999992	2.0014	sub-05	1	sequence	blank	blank	NaN	NaN	NaN	NaN	NaN	NaN	NaN	NaN	NaN	NaN	NaN	NaN
420.06561539999984	0.3003	sub-05	1	sequence	fixation	dot	NaN	NaN	NaN	NaN	NaN	NaN	NaN	NaN	NaN	NaN	NaN	NaN
420.3834649	0.0991	sub-05	1	sequence	stimulus	Gesicht	NaN	NaN	32.0	NaN	NaN	1.0	1.0	NaN	NaN	NaN	NaN	NaN
420.4826140999994	0.0334	sub-05	1	sequence	interval	dot	NaN	NaN	NaN	NaN	NaN	NaN	NaN	NaN	NaN	NaN	NaN	NaN
420.5160404999997	0.1	sub-05	1	sequence	stimulus	Katze	NaN	NaN	32.0	NaN	NaN	3.0	2.0	NaN	NaN	NaN	NaN	NaN
420.6160332	0.0335	sub-05	1	sequence	interval	dot	NaN	NaN	NaN	NaN	NaN	NaN	NaN	NaN	NaN	NaN	NaN	NaN
420.6495292999998	0.0999	sub-05	1	sequence	stimulus	Haus	NaN	NaN	32.0	NaN	NaN	2.0	3.0	NaN	NaN	NaN	NaN	NaN
420.74939019999965	0.0335	sub-05	1	sequence	interval	dot	NaN	NaN	NaN	NaN	NaN	NaN	NaN	NaN	NaN	NaN	NaN	NaN
420.7829340999997	0.1	sub-05	1	sequence	stimulus	Schuh	NaN	NaN	32.0	NaN	NaN	4.0	4.0	NaN	NaN	NaN	NaN	NaN
420.8829573999992	0.0335	sub-05	1	sequence	interval	dot	NaN	NaN	NaN	NaN	NaN	NaN	NaN	NaN	NaN	NaN	NaN	NaN
420.9164763999997	0.0999	sub-05	1	sequence	stimulus	Stuhl	NaN	NaN	32.0	NaN	NaN	5.0	5.0	NaN	NaN	NaN	NaN	NaN
421.0163943999996	0.0333	sub-05	1	sequence	interval	dot	NaN	NaN	NaN	NaN	NaN	NaN	NaN	NaN	NaN	NaN	NaN	NaN
421.0497298999999	8.5387	sub-05	1	sequence	delay	dot	NaN	NaN	NaN	NaN	NaN	NaN	NaN	NaN	NaN	NaN	NaN	NaN
429.5728892999996	0.8183	sub-05	1	sequence	choice	choice	right	NaN	NaN	-88.55132670000057	True	NaN	NaN	right	True	3.0	5.0	5.0
430.3914589999995	0.4998	sub-05	1	sequence	feedback	NaN	NaN	NaN	NaN	NaN	NaN	NaN	NaN	NaN	NaN	NaN	NaN	NaN
430.8917907999994	25.3201	sub-05	1	other	break	break	NaN	NaN	NaN	NaN	NaN	NaN	NaN	NaN	NaN	NaN	NaN	NaN
460.0321727999999	0.4994	sub-05	1	localizer	stimulus	Haus	NaN	180	3.0191906999998537	-88.57095500000105	True	NaN	NaN	NaN	NaN	NaN	NaN	NaN
460.5315959999998	3.0192	sub-05	1	localizer	blank	interval	NaN	NaN	NaN	NaN	NaN	NaN	NaN	NaN	NaN	NaN	NaN	NaN
463.8518697	0.4995	sub-05	1	localizer	stimulus	Schuh	NaN	0	2.752152400000341	NaN	True	NaN	NaN	NaN	NaN	NaN	NaN	NaN
464.3347679999997	2.7522	sub-05	1	localizer	blank	interval	NaN	NaN	NaN	NaN	NaN	NaN	NaN	NaN	NaN	NaN	NaN	NaN
467.3881013999999	0.4995	sub-05	1	localizer	stimulus	Gesicht	NaN	0	2.134994999999492	NaN	True	NaN	NaN	NaN	NaN	NaN	NaN	NaN
467.8710068	2.135	sub-05	1	localizer	blank	interval	NaN	NaN	NaN	NaN	NaN	NaN	NaN	NaN	NaN	NaN	NaN	NaN
470.3070625999999	0.4995	sub-05	1	localizer	stimulus	Katze	NaN	180	3.2024838999995495	-88.79843270000129	True	NaN	NaN	NaN	NaN	NaN	NaN	NaN
470.7900141999999	3.2025	sub-05	1	localizer	blank	interval	NaN	NaN	NaN	NaN	NaN	NaN	NaN	NaN	NaN	NaN	NaN	NaN
474.2936173999997	0.4996	sub-05	1	localizer	stimulus	Katze	NaN	0	2.1017400000000066	NaN	True	NaN	NaN	NaN	NaN	NaN	NaN	NaN
474.7765575999993	2.1017	sub-05	1	localizer	blank	interval	NaN	NaN	NaN	NaN	NaN	NaN	NaN	NaN	NaN	NaN	NaN	NaN
477.1794624999993	0.4996	sub-05	1	localizer	stimulus	Schuh	NaN	0	2.251560300000108	NaN	True	NaN	NaN	NaN	NaN	NaN	NaN	NaN
477.66256339999927	2.2516	sub-05	1	localizer	blank	interval	NaN	NaN	NaN	NaN	NaN	NaN	NaN	NaN	NaN	NaN	NaN	NaN
480.2152865999997	0.4994	sub-05	1	localizer	stimulus	Schuh	NaN	180	3.3189809999993827	-88.80203419999998	True	NaN	NaN	NaN	NaN	NaN	NaN	NaN
480.6982687	3.319	sub-05	1	localizer	blank	interval	NaN	NaN	NaN	NaN	NaN	NaN	NaN	NaN	NaN	NaN	NaN	NaN
484.31844289999935	0.4994	sub-05	1	localizer	stimulus	Katze	NaN	0	2.251741199999799	NaN	True	NaN	NaN	NaN	NaN	NaN	NaN	NaN
484.8012964999998	2.2517	sub-05	1	localizer	blank	interval	NaN	NaN	NaN	NaN	NaN	NaN	NaN	NaN	NaN	NaN	NaN	NaN
487.35419529999945	0.4996	sub-05	1	localizer	stimulus	Stuhl	NaN	180	2.034858600000007	-88.77296060000026	True	NaN	NaN	NaN	NaN	NaN	NaN	NaN
487.8371142999995	2.0349	sub-05	1	localizer	blank	interval	NaN	NaN	NaN	NaN	NaN	NaN	NaN	NaN	NaN	NaN	NaN	NaN
490.17314069999975	0.4995	sub-05	1	localizer	stimulus	Gesicht	NaN	0	1.3843560000005368	NaN	True	NaN	NaN	NaN	NaN	NaN	NaN	NaN
490.6561042999992	1.3844	sub-05	1	localizer	blank	interval	NaN	NaN	NaN	NaN	NaN	NaN	NaN	NaN	NaN	NaN	NaN	NaN
492.34159289999934	0.4994	sub-05	1	localizer	stimulus	Stuhl	NaN	0	3.4359228000002986	NaN	True	NaN	NaN	NaN	NaN	NaN	NaN	NaN
492.8245515999997	3.4359	sub-05	1	localizer	blank	interval	NaN	NaN	NaN	NaN	NaN	NaN	NaN	NaN	NaN	NaN	NaN	NaN
496.5618772999997	0.4995	sub-05	1	localizer	stimulus	Haus	NaN	0	1.6512945999992894	NaN	True	NaN	NaN	NaN	NaN	NaN	NaN	NaN
497.044739	1.6513	sub-05	1	localizer	blank	interval	NaN	NaN	NaN	NaN	NaN	NaN	NaN	NaN	NaN	NaN	NaN	NaN
498.9972208999998	0.4996	sub-05	1	localizer	stimulus	Haus	NaN	0	3.4523964000000547	NaN	True	NaN	NaN	NaN	NaN	NaN	NaN	NaN
499.4801589999997	3.4524	sub-05	1	localizer	blank	interval	NaN	NaN	NaN	NaN	NaN	NaN	NaN	NaN	NaN	NaN	NaN	NaN
503.2337135999997	0.4995	sub-05	1	localizer	stimulus	Gesicht	NaN	0	3.2358517000001825	NaN	True	NaN	NaN	NaN	NaN	NaN	NaN	NaN
503.7166089999992	3.2359	sub-05	1	localizer	blank	interval	NaN	NaN	NaN	NaN	NaN	NaN	NaN	NaN	NaN	NaN	NaN	NaN
507.2536438999996	0.4995	sub-05	1	localizer	stimulus	Gesicht	NaN	180	3.4526262999997925	-88.79267660000096	True	NaN	NaN	NaN	NaN	NaN	NaN	NaN
507.7366715999997	3.4526	sub-05	1	localizer	blank	interval	NaN	NaN	NaN	NaN	NaN	NaN	NaN	NaN	NaN	NaN	NaN	NaN
511.4904006999996	0.4994	sub-05	1	localizer	stimulus	Schuh	NaN	0	3.120751000000382	NaN	True	NaN	NaN	NaN	NaN	NaN	NaN	NaN
511.9734327999995	3.1208	sub-05	1	localizer	blank	interval	NaN	NaN	NaN	NaN	NaN	NaN	NaN	NaN	NaN	NaN	NaN	NaN
515.3935599999995	0.4994	sub-05	1	localizer	stimulus	Stuhl	NaN	0	2.3185302000001684	NaN	True	NaN	NaN	NaN	NaN	NaN	NaN	NaN
515.8764526999994	2.3185	sub-05	1	localizer	blank	interval	NaN	NaN	NaN	NaN	NaN	NaN	NaN	NaN	NaN	NaN	NaN	NaN
518.4964074999998	0.4994	sub-05	1	localizer	stimulus	Katze	NaN	0	2.768837800000256	NaN	True	NaN	NaN	NaN	NaN	NaN	NaN	NaN
518.9791655999998	2.7688	sub-05	1	localizer	blank	interval	NaN	NaN	NaN	NaN	NaN	NaN	NaN	NaN	NaN	NaN	NaN	NaN
522.0491118	0.4994	sub-05	1	localizer	stimulus	Gesicht	NaN	0	2.2681705000004513	-88.85211060000074	False	NaN	NaN	NaN	NaN	NaN	NaN	NaN
522.5319954999995	2.2682	sub-05	1	localizer	blank	interval	NaN	NaN	NaN	NaN	NaN	NaN	NaN	NaN	NaN	NaN	NaN	NaN
525.1013606999995	0.4995	sub-05	1	localizer	stimulus	Haus	NaN	0	2.3350310000005265	NaN	True	NaN	NaN	NaN	NaN	NaN	NaN	NaN
525.5843597999992	2.335	sub-05	1	localizer	blank	interval	NaN	NaN	NaN	NaN	NaN	NaN	NaN	NaN	NaN	NaN	NaN	NaN
528.2205784999996	0.4994	sub-05	1	localizer	stimulus	Stuhl	NaN	0	2.5519720000002053	NaN	True	NaN	NaN	NaN	NaN	NaN	NaN	NaN
528.7034366999997	2.552	sub-05	1	localizer	blank	interval	NaN	NaN	NaN	NaN	NaN	NaN	NaN	NaN	NaN	NaN	NaN	NaN
531.5565494999992	0.4995	sub-05	1	localizer	stimulus	Stuhl	NaN	0	2.8521751999996923	NaN	True	NaN	NaN	NaN	NaN	NaN	NaN	NaN
532.0394925999999	2.8522	sub-05	1	localizer	blank	interval	NaN	NaN	NaN	NaN	NaN	NaN	NaN	NaN	NaN	NaN	NaN	NaN
535.1928422999999	0.4995	sub-05	1	localizer	stimulus	Schuh	NaN	0	3.5028796999995393	NaN	True	NaN	NaN	NaN	NaN	NaN	NaN	NaN
535.6758123999998	3.5029	sub-05	1	localizer	blank	interval	NaN	NaN	NaN	NaN	NaN	NaN	NaN	NaN	NaN	NaN	NaN	NaN
539.4800791999996	0.4993	sub-05	1	localizer	stimulus	Haus	NaN	0	1.9011743000000934	NaN	True	NaN	NaN	NaN	NaN	NaN	NaN	NaN
539.9629372999998	1.9012	sub-05	1	localizer	blank	interval	NaN	NaN	NaN	NaN	NaN	NaN	NaN	NaN	NaN	NaN	NaN	NaN
542.1652475999999	0.4996	sub-05	1	localizer	stimulus	Katze	NaN	0	2.234872699999869	NaN	True	NaN	NaN	NaN	NaN	NaN	NaN	NaN
542.6482649	2.2349	sub-05	1	localizer	blank	interval	NaN	NaN	NaN	NaN	NaN	NaN	NaN	NaN	NaN	NaN	NaN	NaN
548.3695814999992	1.0005	sub-05	1	sequence	cue	Stuhl	NaN	NaN	NaN	NaN	NaN	NaN	NaN	NaN	NaN	NaN	NaN	NaN
549.3701320999999	2.0017	sub-05	1	sequence	blank	blank	NaN	NaN	NaN	NaN	NaN	NaN	NaN	NaN	NaN	NaN	NaN	NaN
551.3718432999995	0.3001	sub-05	1	sequence	fixation	dot	NaN	NaN	NaN	NaN	NaN	NaN	NaN	NaN	NaN	NaN	NaN	NaN
551.6896545	0.0991	sub-05	1	sequence	stimulus	Haus	NaN	NaN	64.0	NaN	NaN	2.0	1.0	NaN	NaN	NaN	NaN	NaN
551.7887096999993	0.0668	sub-05	1	sequence	interval	dot	NaN	NaN	NaN	NaN	NaN	NaN	NaN	NaN	NaN	NaN	NaN	NaN
551.8555497999996	0.1	sub-05	1	sequence	stimulus	Gesicht	NaN	NaN	64.0	NaN	NaN	1.0	2.0	NaN	NaN	NaN	NaN	NaN
551.9555076999995	0.0668	sub-05	1	sequence	interval	dot	NaN	NaN	NaN	NaN	NaN	NaN	NaN	NaN	NaN	NaN	NaN	NaN
552.0223422999998	0.1	sub-05	1	sequence	stimulus	Katze	NaN	NaN	64.0	NaN	NaN	3.0	3.0	NaN	NaN	NaN	NaN	NaN
552.1223178	0.0668	sub-05	1	sequence	interval	dot	NaN	NaN	NaN	NaN	NaN	NaN	NaN	NaN	NaN	NaN	NaN	NaN
552.1891495	0.0999	sub-05	1	sequence	stimulus	Schuh	NaN	NaN	64.0	NaN	NaN	4.0	4.0	NaN	NaN	NaN	NaN	NaN
552.2890642999992	0.0669	sub-05	1	sequence	interval	dot	NaN	NaN	NaN	NaN	NaN	NaN	NaN	NaN	NaN	NaN	NaN	NaN
552.3559415	0.1	sub-05	1	sequence	stimulus	Stuhl	NaN	NaN	64.0	NaN	NaN	5.0	5.0	NaN	NaN	NaN	NaN	NaN
552.4559252999998	0.0667	sub-05	1	sequence	interval	dot	NaN	NaN	NaN	NaN	NaN	NaN	NaN	NaN	NaN	NaN	NaN	NaN
552.5226470999996	8.3886	sub-05	1	sequence	delay	dot	NaN	NaN	NaN	NaN	NaN	NaN	NaN	NaN	NaN	NaN	NaN	NaN
560.8959754999996	0.8514	sub-05	1	sequence	choice	choice	right	NaN	NaN	-88.52257140000074	True	NaN	NaN	right	True	3.0	5.0	5.0
561.7477249999993	0.4999	sub-05	1	sequence	feedback	NaN	NaN	NaN	NaN	NaN	NaN	NaN	NaN	NaN	NaN	NaN	NaN	NaN
562.2477837999995	1.0003	sub-05	1	sequence	cue	Gesicht	NaN	NaN	NaN	NaN	NaN	NaN	NaN	NaN	NaN	NaN	NaN	NaN
563.2481251999998	2.0015	sub-05	1	sequence	blank	blank	NaN	NaN	NaN	NaN	NaN	NaN	NaN	NaN	NaN	NaN	NaN	NaN
565.2495879999997	0.3003	sub-05	1	sequence	fixation	dot	NaN	NaN	NaN	NaN	NaN	NaN	NaN	NaN	NaN	NaN	NaN	NaN
565.5682176999999	0.1151	sub-05	1	sequence	stimulus	Gesicht	NaN	NaN	32.0	NaN	NaN	1.0	1.0	NaN	NaN	NaN	NaN	NaN
565.6832915999994	0.0335	sub-05	1	sequence	interval	dot	NaN	NaN	NaN	NaN	NaN	NaN	NaN	NaN	NaN	NaN	NaN	NaN
565.7167833999993	0.0999	sub-05	1	sequence	stimulus	Katze	NaN	NaN	32.0	NaN	NaN	3.0	2.0	NaN	NaN	NaN	NaN	NaN
565.8167218999997	0.0335	sub-05	1	sequence	interval	dot	NaN	NaN	NaN	NaN	NaN	NaN	NaN	NaN	NaN	NaN	NaN	NaN
565.8502460999998	0.0999	sub-05	1	sequence	stimulus	Haus	NaN	NaN	32.0	NaN	NaN	2.0	3.0	NaN	NaN	NaN	NaN	NaN
565.9501768	0.0334	sub-05	1	sequence	interval	dot	NaN	NaN	NaN	NaN	NaN	NaN	NaN	NaN	NaN	NaN	NaN	NaN
565.9836227999995	0.1	sub-05	1	sequence	stimulus	Schuh	NaN	NaN	32.0	NaN	NaN	4.0	4.0	NaN	NaN	NaN	NaN	NaN
566.0835732999994	0.0335	sub-05	1	sequence	interval	dot	NaN	NaN	NaN	NaN	NaN	NaN	NaN	NaN	NaN	NaN	NaN	NaN
566.1170888999995	0.1	sub-05	1	sequence	stimulus	Stuhl	NaN	NaN	32.0	NaN	NaN	5.0	5.0	NaN	NaN	NaN	NaN	NaN
566.2170437999994	0.0334	sub-05	1	sequence	interval	dot	NaN	NaN	NaN	NaN	NaN	NaN	NaN	NaN	NaN	NaN	NaN	NaN
566.2504241999995	8.5221	sub-05	1	sequence	delay	dot	NaN	NaN	NaN	NaN	NaN	NaN	NaN	NaN	NaN	NaN	NaN	NaN
574.7538193	0.8214	sub-05	1	sequence	choice	choice	left	NaN	NaN	-88.55143900000076	True	NaN	NaN	left	True	1.0	4.0	1.0
575.5754449999995	0.4999	sub-05	1	sequence	feedback	NaN	NaN	NaN	NaN	NaN	NaN	NaN	NaN	NaN	NaN	NaN	NaN	NaN
576.0755615999997	1.0003	sub-05	1	sequence	cue	Stuhl	NaN	NaN	NaN	NaN	NaN	NaN	NaN	NaN	NaN	NaN	NaN	NaN
577.0759054999999	2.0017	sub-05	1	sequence	blank	blank	NaN	NaN	NaN	NaN	NaN	NaN	NaN	NaN	NaN	NaN	NaN	NaN
579.0776301999995	0.3002	sub-05	1	sequence	fixation	dot	NaN	NaN	NaN	NaN	NaN	NaN	NaN	NaN	NaN	NaN	NaN	NaN
579.3954455999992	0.0992	sub-05	1	sequence	stimulus	Katze	NaN	NaN	128.0	NaN	NaN	3.0	1.0	NaN	NaN	NaN	NaN	NaN
579.4946262999993	0.1336	sub-05	1	sequence	interval	dot	NaN	NaN	NaN	NaN	NaN	NaN	NaN	NaN	NaN	NaN	NaN	NaN
579.6282131999997	0.1	sub-05	1	sequence	stimulus	Stuhl	NaN	NaN	128.0	NaN	NaN	5.0	2.0	NaN	NaN	NaN	NaN	NaN
579.7281954999999	0.1336	sub-05	1	sequence	interval	dot	NaN	NaN	NaN	NaN	NaN	NaN	NaN	NaN	NaN	NaN	NaN	NaN
579.8617639999993	0.1	sub-05	1	sequence	stimulus	Haus	NaN	NaN	128.0	NaN	NaN	2.0	3.0	NaN	NaN	NaN	NaN	NaN
579.9617776999994	0.1335	sub-05	1	sequence	interval	dot	NaN	NaN	NaN	NaN	NaN	NaN	NaN	NaN	NaN	NaN	NaN	NaN
580.0952559999996	0.1	sub-05	1	sequence	stimulus	Gesicht	NaN	NaN	128.0	NaN	NaN	1.0	4.0	NaN	NaN	NaN	NaN	NaN
580.1952075999998	0.1335	sub-05	1	sequence	interval	dot	NaN	NaN	NaN	NaN	NaN	NaN	NaN	NaN	NaN	NaN	NaN	NaN
580.3287396999995	0.0999	sub-05	1	sequence	stimulus	Schuh	NaN	NaN	128.0	NaN	NaN	4.0	5.0	NaN	NaN	NaN	NaN	NaN
580.4286812999999	0.1334	sub-05	1	sequence	interval	dot	NaN	NaN	NaN	NaN	NaN	NaN	NaN	NaN	NaN	NaN	NaN	NaN
580.5620902999999	8.0714	sub-05	1	sequence	delay	dot	NaN	NaN	NaN	NaN	NaN	NaN	NaN	NaN	NaN	NaN	NaN	NaN
588.6114915999997	0.7081	sub-05	1	sequence	choice	choice	left	NaN	NaN	-88.66017830000055	True	NaN	NaN	left	True	2.0	5.0	2.0
589.3198583999992	0.4998	sub-05	1	sequence	feedback	NaN	NaN	NaN	NaN	NaN	NaN	NaN	NaN	NaN	NaN	NaN	NaN	NaN
589.8199204999992	1.0004	sub-05	1	sequence	cue	Katze	NaN	NaN	NaN	NaN	NaN	NaN	NaN	NaN	NaN	NaN	NaN	NaN
590.8202883999993	2.0016	sub-05	1	sequence	blank	blank	NaN	NaN	NaN	NaN	NaN	NaN	NaN	NaN	NaN	NaN	NaN	NaN
592.8218780999996	0.3003	sub-05	1	sequence	fixation	dot	NaN	NaN	NaN	NaN	NaN	NaN	NaN	NaN	NaN	NaN	NaN	NaN
593.1397595999997	0.0991	sub-05	1	sequence	stimulus	Stuhl	NaN	NaN	128.0	NaN	NaN	5.0	1.0	NaN	NaN	NaN	NaN	NaN
593.2388918999995	0.1335	sub-05	1	sequence	interval	dot	NaN	NaN	NaN	NaN	NaN	NaN	NaN	NaN	NaN	NaN	NaN	NaN
593.3724388	0.1	sub-05	1	sequence	stimulus	Gesicht	NaN	NaN	128.0	NaN	NaN	1.0	2.0	NaN	NaN	NaN	NaN	NaN
593.4724127999998	0.1336	sub-05	1	sequence	interval	dot	NaN	NaN	NaN	NaN	NaN	NaN	NaN	NaN	NaN	NaN	NaN	NaN
593.6059781999993	0.0999	sub-05	1	sequence	stimulus	Schuh	NaN	NaN	128.0	NaN	NaN	4.0	3.0	NaN	NaN	NaN	NaN	NaN
593.7058935999994	0.1336	sub-05	1	sequence	interval	dot	NaN	NaN	NaN	NaN	NaN	NaN	NaN	NaN	NaN	NaN	NaN	NaN
593.8395026999997	0.0999	sub-05	1	sequence	stimulus	Katze	NaN	NaN	128.0	NaN	NaN	3.0	4.0	NaN	NaN	NaN	NaN	NaN
593.9394423999993	0.1336	sub-05	1	sequence	interval	dot	NaN	NaN	NaN	NaN	NaN	NaN	NaN	NaN	NaN	NaN	NaN	NaN
594.0730235999999	0.1001	sub-05	1	sequence	stimulus	Haus	NaN	NaN	128.0	NaN	NaN	2.0	5.0	NaN	NaN	NaN	NaN	NaN
594.1731464999993	0.1334	sub-05	1	sequence	interval	dot	NaN	NaN	NaN	NaN	NaN	NaN	NaN	NaN	NaN	NaN	NaN	NaN
594.3065063999993	8.0563	sub-05	1	sequence	delay	dot	NaN	NaN	NaN	NaN	NaN	NaN	NaN	NaN	NaN	NaN	NaN	NaN
602.3391859999992	1.926	sub-05	1	sequence	choice	choice	left	NaN	NaN	-87.44574580000062	True	NaN	NaN	left	True	4.0	3.0	4.0
604.2654544999996	0.4998	sub-05	1	sequence	feedback	NaN	NaN	NaN	NaN	NaN	NaN	NaN	NaN	NaN	NaN	NaN	NaN	NaN
604.7654456999999	1.0006	sub-05	1	sequence	cue	Katze	NaN	NaN	NaN	NaN	NaN	NaN	NaN	NaN	NaN	NaN	NaN	NaN
605.7660213999998	2.0014	sub-05	1	sequence	blank	blank	NaN	NaN	NaN	NaN	NaN	NaN	NaN	NaN	NaN	NaN	NaN	NaN
607.7674368999997	0.3002	sub-05	1	sequence	fixation	dot	NaN	NaN	NaN	NaN	NaN	NaN	NaN	NaN	NaN	NaN	NaN	NaN
608.0859584999998	0.1151	sub-05	1	sequence	stimulus	Schuh	NaN	NaN	64.0	NaN	NaN	4.0	1.0	NaN	NaN	NaN	NaN	NaN
608.2010738999998	0.0667	sub-05	1	sequence	interval	dot	NaN	NaN	NaN	NaN	NaN	NaN	NaN	NaN	NaN	NaN	NaN	NaN
608.2678005999996	0.1	sub-05	1	sequence	stimulus	Gesicht	NaN	NaN	64.0	NaN	NaN	1.0	2.0	NaN	NaN	NaN	NaN	NaN
608.3677644999998	0.0669	sub-05	1	sequence	interval	dot	NaN	NaN	NaN	NaN	NaN	NaN	NaN	NaN	NaN	NaN	NaN	NaN
608.4346779999996	0.0999	sub-05	1	sequence	stimulus	Stuhl	NaN	NaN	64.0	NaN	NaN	5.0	3.0	NaN	NaN	NaN	NaN	NaN
608.5346095999994	0.067	sub-05	1	sequence	interval	dot	NaN	NaN	NaN	NaN	NaN	NaN	NaN	NaN	NaN	NaN	NaN	NaN
608.6015997999993	0.0999	sub-05	1	sequence	stimulus	Katze	NaN	NaN	64.0	NaN	NaN	3.0	4.0	NaN	NaN	NaN	NaN	NaN
608.7015056	0.0667	sub-05	1	sequence	interval	dot	NaN	NaN	NaN	NaN	NaN	NaN	NaN	NaN	NaN	NaN	NaN	NaN
608.7682402999999	0.0999	sub-05	1	sequence	stimulus	Haus	NaN	NaN	64.0	NaN	NaN	2.0	5.0	NaN	NaN	NaN	NaN	NaN
608.8681608999996	0.0667	sub-05	1	sequence	interval	dot	NaN	NaN	NaN	NaN	NaN	NaN	NaN	NaN	NaN	NaN	NaN	NaN
608.9348952999999	8.372	sub-05	1	sequence	delay	dot	NaN	NaN	NaN	NaN	NaN	NaN	NaN	NaN	NaN	NaN	NaN	NaN
617.2888178999992	0.7875	sub-05	1	sequence	choice	choice	right	NaN	NaN	-88.5815059000006	True	NaN	NaN	right	True	5.0	4.0	4.0
618.0766217999999	0.4998	sub-05	1	sequence	feedback	NaN	NaN	NaN	NaN	NaN	NaN	NaN	NaN	NaN	NaN	NaN	NaN	NaN
618.5765444999997	1.0005	sub-05	1	sequence	cue	Haus	NaN	NaN	NaN	NaN	NaN	NaN	NaN	NaN	NaN	NaN	NaN	NaN
619.5770702999998	2.0015	sub-05	1	sequence	blank	blank	NaN	NaN	NaN	NaN	NaN	NaN	NaN	NaN	NaN	NaN	NaN	NaN
621.5785843999993	0.3001	sub-05	1	sequence	fixation	dot	NaN	NaN	NaN	NaN	NaN	NaN	NaN	NaN	NaN	NaN	NaN	NaN
621.8963331999994	0.0991	sub-05	1	sequence	stimulus	Schuh	NaN	NaN	512.0	NaN	NaN	4.0	1.0	NaN	NaN	NaN	NaN	NaN
621.9954813999993	0.5172	sub-05	1	sequence	interval	dot	NaN	NaN	NaN	NaN	NaN	NaN	NaN	NaN	NaN	NaN	NaN	NaN
622.5126588999992	0.1	sub-05	1	sequence	stimulus	Katze	NaN	NaN	512.0	NaN	NaN	3.0	2.0	NaN	NaN	NaN	NaN	NaN
622.6126937999998	0.5172	sub-05	1	sequence	interval	dot	NaN	NaN	NaN	NaN	NaN	NaN	NaN	NaN	NaN	NaN	NaN	NaN
623.1298617999992	0.0999	sub-05	1	sequence	stimulus	Stuhl	NaN	NaN	512.0	NaN	NaN	5.0	3.0	NaN	NaN	NaN	NaN	NaN
623.2298068	0.5176	sub-05	1	sequence	interval	dot	NaN	NaN	NaN	NaN	NaN	NaN	NaN	NaN	NaN	NaN	NaN	NaN
623.7473975999992	0.0997	sub-05	1	sequence	stimulus	Gesicht	NaN	NaN	512.0	NaN	NaN	1.0	4.0	NaN	NaN	NaN	NaN	NaN
623.8470806999994	0.5174	sub-05	1	sequence	interval	dot	NaN	NaN	NaN	NaN	NaN	NaN	NaN	NaN	NaN	NaN	NaN	NaN
624.3644507999998	0.0999	sub-05	1	sequence	stimulus	Haus	NaN	NaN	512.0	NaN	NaN	2.0	5.0	NaN	NaN	NaN	NaN	NaN
624.4643276999996	0.5171	sub-05	1	sequence	interval	dot	NaN	NaN	NaN	NaN	NaN	NaN	NaN	NaN	NaN	NaN	NaN	NaN
624.9814185999994	6.1532	sub-05	1	sequence	delay	dot	NaN	NaN	NaN	NaN	NaN	NaN	NaN	NaN	NaN	NaN	NaN	NaN
631.1206004999995	0.8668	sub-05	1	sequence	choice	choice	right	NaN	NaN	-88.50598910000008	True	NaN	NaN	right	True	3.0	5.0	5.0
631.9876250999996	0.5	sub-05	1	sequence	feedback	NaN	NaN	NaN	NaN	NaN	NaN	NaN	NaN	NaN	NaN	NaN	NaN	NaN
632.4878777999993	1.0002	sub-05	1	sequence	cue	Katze	NaN	NaN	NaN	NaN	NaN	NaN	NaN	NaN	NaN	NaN	NaN	NaN
633.4881261	2.0016	sub-05	1	sequence	blank	blank	NaN	NaN	NaN	NaN	NaN	NaN	NaN	NaN	NaN	NaN	NaN	NaN
635.4897429999992	0.3004	sub-05	1	sequence	fixation	dot	NaN	NaN	NaN	NaN	NaN	NaN	NaN	NaN	NaN	NaN	NaN	NaN
635.8076906999995	0.0991	sub-05	1	sequence	stimulus	Stuhl	NaN	NaN	512.0	NaN	NaN	5.0	1.0	NaN	NaN	NaN	NaN	NaN
635.9067513999998	0.5173	sub-05	1	sequence	interval	dot	NaN	NaN	NaN	NaN	NaN	NaN	NaN	NaN	NaN	NaN	NaN	NaN
636.4240781999997	0.0998	sub-05	1	sequence	stimulus	Gesicht	NaN	NaN	512.0	NaN	NaN	1.0	2.0	NaN	NaN	NaN	NaN	NaN
636.5238425999996	0.5173	sub-05	1	sequence	interval	dot	NaN	NaN	NaN	NaN	NaN	NaN	NaN	NaN	NaN	NaN	NaN	NaN
637.0411181999998	0.0999	sub-05	1	sequence	stimulus	Haus	NaN	NaN	512.0	NaN	NaN	2.0	3.0	NaN	NaN	NaN	NaN	NaN
637.1410258999995	0.5173	sub-05	1	sequence	interval	dot	NaN	NaN	NaN	NaN	NaN	NaN	NaN	NaN	NaN	NaN	NaN	NaN
637.6582977999997	0.0999	sub-05	1	sequence	stimulus	Schuh	NaN	NaN	512.0	NaN	NaN	4.0	4.0	NaN	NaN	NaN	NaN	NaN
637.7582061999992	0.5174	sub-05	1	sequence	interval	dot	NaN	NaN	NaN	NaN	NaN	NaN	NaN	NaN	NaN	NaN	NaN	NaN
638.2755576999998	0.0999	sub-05	1	sequence	stimulus	Katze	NaN	NaN	512.0	NaN	NaN	3.0	5.0	NaN	NaN	NaN	NaN	NaN
638.3754854999997	0.5172	sub-05	1	sequence	interval	dot	NaN	NaN	NaN	NaN	NaN	NaN	NaN	NaN	NaN	NaN	NaN	NaN
638.8926747999994	6.1531	sub-05	1	sequence	delay	dot	NaN	NaN	NaN	NaN	NaN	NaN	NaN	NaN	NaN	NaN	NaN	NaN
645.0303078999996	0.7852	sub-05	1	sequence	choice	choice	right	NaN	NaN	-88.58474730000125	True	NaN	NaN	right	True	4.0	5.0	5.0
645.8157648999995	0.5	sub-05	1	sequence	feedback	NaN	NaN	NaN	NaN	NaN	NaN	NaN	NaN	NaN	NaN	NaN	NaN	NaN
646.3160077999992	1.0001	sub-05	1	sequence	cue	Stuhl	NaN	NaN	NaN	NaN	NaN	NaN	NaN	NaN	NaN	NaN	NaN	NaN
647.3160920999999	2.0015	sub-05	1	sequence	blank	blank	NaN	NaN	NaN	NaN	NaN	NaN	NaN	NaN	NaN	NaN	NaN	NaN
649.3175720999998	0.3002	sub-05	1	sequence	fixation	dot	NaN	NaN	NaN	NaN	NaN	NaN	NaN	NaN	NaN	NaN	NaN	NaN
649.6362252999998	0.115	sub-05	1	sequence	stimulus	Schuh	NaN	NaN	32.0	NaN	NaN	4.0	1.0	NaN	NaN	NaN	NaN	NaN
649.7512698999999	0.0335	sub-05	1	sequence	interval	dot	NaN	NaN	NaN	NaN	NaN	NaN	NaN	NaN	NaN	NaN	NaN	NaN
649.7847617999996	0.1006	sub-05	1	sequence	stimulus	Haus	NaN	NaN	32.0	NaN	NaN	2.0	2.0	NaN	NaN	NaN	NaN	NaN
649.8854085999992	0.0329	sub-05	1	sequence	interval	dot	NaN	NaN	NaN	NaN	NaN	NaN	NaN	NaN	NaN	NaN	NaN	NaN
649.9182891999999	0.0998	sub-05	1	sequence	stimulus	Gesicht	NaN	NaN	32.0	NaN	NaN	1.0	3.0	NaN	NaN	NaN	NaN	NaN
650.0181199999997	0.0335	sub-05	1	sequence	interval	dot	NaN	NaN	NaN	NaN	NaN	NaN	NaN	NaN	NaN	NaN	NaN	NaN
650.0516276999997	0.0999	sub-05	1	sequence	stimulus	Katze	NaN	NaN	32.0	NaN	NaN	3.0	4.0	NaN	NaN	NaN	NaN	NaN
650.1515458999993	0.0336	sub-05	1	sequence	interval	dot	NaN	NaN	NaN	NaN	NaN	NaN	NaN	NaN	NaN	NaN	NaN	NaN
650.1851332999995	0.0999	sub-05	1	sequence	stimulus	Stuhl	NaN	NaN	32.0	NaN	NaN	5.0	5.0	NaN	NaN	NaN	NaN	NaN
650.2849834999997	0.0334	sub-05	1	sequence	interval	dot	NaN	NaN	NaN	NaN	NaN	NaN	NaN	NaN	NaN	NaN	NaN	NaN
650.3183579999995	8.5389	sub-05	1	sequence	delay	dot	NaN	NaN	NaN	NaN	NaN	NaN	NaN	NaN	NaN	NaN	NaN	NaN
658.8360790999996	0.8905	sub-05	1	sequence	choice	choice	left	NaN	NaN	-88.4836535000004	True	NaN	NaN	left	True	5.0	3.0	5.0
659.7268209999993	0.5001	sub-05	1	sequence	feedback	NaN	NaN	NaN	NaN	NaN	NaN	NaN	NaN	NaN	NaN	NaN	NaN	NaN
664.0473724999993	0.4992	sub-05	1	localizer	stimulus	Haus	NaN	180	2.651621800000612	-88.3945689000011	True	NaN	NaN	NaN	NaN	NaN	NaN	NaN
664.5305850999994	2.6516	sub-05	1	localizer	blank	interval	NaN	NaN	NaN	NaN	NaN	NaN	NaN	NaN	NaN	NaN	NaN	NaN
667.4832723999998	0.4995	sub-05	1	localizer	stimulus	Haus	NaN	0	2.1515190000000075	NaN	True	NaN	NaN	NaN	NaN	NaN	NaN	NaN
667.9662279999993	2.1515	sub-05	1	localizer	blank	interval	NaN	NaN	NaN	NaN	NaN	NaN	NaN	NaN	NaN	NaN	NaN	NaN
670.4188768999993	0.4995	sub-05	1	localizer	stimulus	Katze	NaN	0	1.5177853999994113	NaN	True	NaN	NaN	NaN	NaN	NaN	NaN	NaN
670.9018415999999	1.5178	sub-05	1	localizer	blank	interval	NaN	NaN	NaN	NaN	NaN	NaN	NaN	NaN	NaN	NaN	NaN	NaN
672.7207933999998	0.4995	sub-05	1	localizer	stimulus	Schuh	NaN	0	2.468574399999852	NaN	True	NaN	NaN	NaN	NaN	NaN	NaN	NaN
673.2036650999999	2.4686	sub-05	1	localizer	blank	interval	NaN	NaN	NaN	NaN	NaN	NaN	NaN	NaN	NaN	NaN	NaN	NaN
675.9733847999996	0.4995	sub-05	1	localizer	stimulus	Schuh	NaN	180	1.9013608999994176	-88.75236600000062	True	NaN	NaN	NaN	NaN	NaN	NaN	NaN
676.4564246	1.9014	sub-05	1	localizer	blank	interval	NaN	NaN	NaN	NaN	NaN	NaN	NaN	NaN	NaN	NaN	NaN	NaN
678.6589562999998	0.4995	sub-05	1	localizer	stimulus	Katze	NaN	0	3.1523495000001276	NaN	True	NaN	NaN	NaN	NaN	NaN	NaN	NaN
679.1419913999998	3.1523	sub-05	1	localizer	blank	interval	NaN	NaN	NaN	NaN	NaN	NaN	NaN	NaN	NaN	NaN	NaN	NaN
682.5953966999996	0.4995	sub-05	1	localizer	stimulus	Stuhl	NaN	0	2.5685929000001124	NaN	True	NaN	NaN	NaN	NaN	NaN	NaN	NaN
683.0783334999996	2.5686	sub-05	1	localizer	blank	interval	NaN	NaN	NaN	NaN	NaN	NaN	NaN	NaN	NaN	NaN	NaN	NaN
685.9483184999999	0.4993	sub-05	1	localizer	stimulus	Stuhl	NaN	180	2.1851352000003317	-88.80753080000068	True	NaN	NaN	NaN	NaN	NaN	NaN	NaN
686.4309946999992	2.1851	sub-05	1	localizer	blank	interval	NaN	NaN	NaN	NaN	NaN	NaN	NaN	NaN	NaN	NaN	NaN	NaN
688.9173705999992	0.4995	sub-05	1	localizer	stimulus	Haus	NaN	0	2.435097300000052	NaN	True	NaN	NaN	NaN	NaN	NaN	NaN	NaN
689.4003169999996	2.4351	sub-05	1	localizer	blank	interval	NaN	NaN	NaN	NaN	NaN	NaN	NaN	NaN	NaN	NaN	NaN	NaN
692.1365022999998	0.5	sub-05	1	localizer	stimulus	Gesicht	NaN	0	1.8513123000002452	NaN	True	NaN	NaN	NaN	NaN	NaN	NaN	NaN
692.6194442999995	1.8513	sub-05	1	localizer	blank	interval	NaN	NaN	NaN	NaN	NaN	NaN	NaN	NaN	NaN	NaN	NaN	NaN
694.7719729999999	0.4994	sub-05	1	localizer	stimulus	Haus	NaN	0	3.6695918000004895	NaN	True	NaN	NaN	NaN	NaN	NaN	NaN	NaN
695.2548911999993	3.6696	sub-05	1	localizer	blank	interval	NaN	NaN	NaN	NaN	NaN	NaN	NaN	NaN	NaN	NaN	NaN	NaN
699.2255671999992	0.4995	sub-05	1	localizer	stimulus	Schuh	NaN	0	2.6518946999995023	NaN	True	NaN	NaN	NaN	NaN	NaN	NaN	NaN
699.7085576999998	2.6519	sub-05	1	localizer	blank	interval	NaN	NaN	NaN	NaN	NaN	NaN	NaN	NaN	NaN	NaN	NaN	NaN
702.6616546999994	0.4994	sub-05	1	localizer	stimulus	Haus	NaN	0	2.5518584999999803	NaN	True	NaN	NaN	NaN	NaN	NaN	NaN	NaN
703.1445792999994	2.5519	sub-05	1	localizer	blank	interval	NaN	NaN	NaN	NaN	NaN	NaN	NaN	NaN	NaN	NaN	NaN	NaN
705.9976424999995	0.4994	sub-05	1	localizer	stimulus	Stuhl	NaN	0	2.9357192999996187	NaN	True	NaN	NaN	NaN	NaN	NaN	NaN	NaN
706.4805600999998	2.9357	sub-05	1	localizer	blank	interval	NaN	NaN	NaN	NaN	NaN	NaN	NaN	NaN	NaN	NaN	NaN	NaN
709.7174187999999	0.4995	sub-05	1	localizer	stimulus	Schuh	NaN	0	2.2182017000004635	NaN	True	NaN	NaN	NaN	NaN	NaN	NaN	NaN
710.2003940999994	2.2182	sub-05	1	localizer	blank	interval	NaN	NaN	NaN	NaN	NaN	NaN	NaN	NaN	NaN	NaN	NaN	NaN
712.7197523999994	0.4995	sub-05	1	localizer	stimulus	Stuhl	NaN	0	3.035505699999703	NaN	True	NaN	NaN	NaN	NaN	NaN	NaN	NaN
713.2028235999996	3.0355	sub-05	1	localizer	blank	interval	NaN	NaN	NaN	NaN	NaN	NaN	NaN	NaN	NaN	NaN	NaN	NaN
716.5395187999993	0.4994	sub-05	1	localizer	stimulus	Gesicht	NaN	0	2.235114099999919	NaN	True	NaN	NaN	NaN	NaN	NaN	NaN	NaN
717.0224552	2.2351	sub-05	1	localizer	blank	interval	NaN	NaN	NaN	NaN	NaN	NaN	NaN	NaN	NaN	NaN	NaN	NaN
719.5586420999998	0.4996	sub-05	1	localizer	stimulus	Stuhl	NaN	0	2.6519898000005924	NaN	True	NaN	NaN	NaN	NaN	NaN	NaN	NaN
720.0416407999992	2.652	sub-05	1	localizer	blank	interval	NaN	NaN	NaN	NaN	NaN	NaN	NaN	NaN	NaN	NaN	NaN	NaN
722.9947548	0.4994	sub-05	1	localizer	stimulus	Katze	NaN	0	1.4509785999998712	NaN	True	NaN	NaN	NaN	NaN	NaN	NaN	NaN
723.4777348999996	1.451	sub-05	1	localizer	blank	interval	NaN	NaN	NaN	NaN	NaN	NaN	NaN	NaN	NaN	NaN	NaN	NaN
725.2298852999993	0.4994	sub-05	1	localizer	stimulus	Gesicht	NaN	0	2.3517895999993925	NaN	True	NaN	NaN	NaN	NaN	NaN	NaN	NaN
725.7127793999998	2.3518	sub-05	1	localizer	blank	interval	NaN	NaN	NaN	NaN	NaN	NaN	NaN	NaN	NaN	NaN	NaN	NaN
728.3659447	0.4994	sub-05	1	localizer	stimulus	Gesicht	NaN	180	2.051673199999641	-88.69669410000006	True	NaN	NaN	NaN	NaN	NaN	NaN	NaN
728.8487373999997	2.0517	sub-05	1	localizer	blank	interval	NaN	NaN	NaN	NaN	NaN	NaN	NaN	NaN	NaN	NaN	NaN	NaN
731.2015265999999	0.4995	sub-05	1	localizer	stimulus	Schuh	NaN	0	3.8522405000003346	NaN	True	NaN	NaN	NaN	NaN	NaN	NaN	NaN
731.6850547999993	3.8522	sub-05	1	localizer	blank	interval	NaN	NaN	NaN	NaN	NaN	NaN	NaN	NaN	NaN	NaN	NaN	NaN
735.8384684999992	0.4994	sub-05	1	localizer	stimulus	Gesicht	NaN	0	2.668758400000115	NaN	True	NaN	NaN	NaN	NaN	NaN	NaN	NaN
736.3213546999996	2.6688	sub-05	1	localizer	blank	interval	NaN	NaN	NaN	NaN	NaN	NaN	NaN	NaN	NaN	NaN	NaN	NaN
739.2913386	0.4995	sub-05	1	localizer	stimulus	Katze	NaN	180	2.8019672000000355	-88.73503780000101	True	NaN	NaN	NaN	NaN	NaN	NaN	NaN
739.7743538999994	2.802	sub-05	1	localizer	blank	interval	NaN	NaN	NaN	NaN	NaN	NaN	NaN	NaN	NaN	NaN	NaN	NaN
742.8774907999996	0.4994	sub-05	1	localizer	stimulus	Katze	NaN	0	2.618711799999801	NaN	True	NaN	NaN	NaN	NaN	NaN	NaN	NaN
743.3604151999998	2.6187	sub-05	1	localizer	blank	interval	NaN	NaN	NaN	NaN	NaN	NaN	NaN	NaN	NaN	NaN	NaN	NaN
749.4658774	1.0003	sub-05	1	sequence	cue	Schuh	NaN	NaN	NaN	NaN	NaN	NaN	NaN	NaN	NaN	NaN	NaN	NaN
750.4662048	2.0018	sub-05	1	sequence	blank	blank	NaN	NaN	NaN	NaN	NaN	NaN	NaN	NaN	NaN	NaN	NaN	NaN
752.4680063999995	0.3002	sub-05	1	sequence	fixation	dot	NaN	NaN	NaN	NaN	NaN	NaN	NaN	NaN	NaN	NaN	NaN	NaN
752.7864365999994	0.115	sub-05	1	sequence	stimulus	Katze	NaN	NaN	128.0	NaN	NaN	3.0	1.0	NaN	NaN	NaN	NaN	NaN
752.9014612999999	0.1335	sub-05	1	sequence	interval	dot	NaN	NaN	NaN	NaN	NaN	NaN	NaN	NaN	NaN	NaN	NaN	NaN
753.0349876999999	0.1	sub-05	1	sequence	stimulus	Stuhl	NaN	NaN	128.0	NaN	NaN	5.0	2.0	NaN	NaN	NaN	NaN	NaN
753.1350015999997	0.1335	sub-05	1	sequence	interval	dot	NaN	NaN	NaN	NaN	NaN	NaN	NaN	NaN	NaN	NaN	NaN	NaN
753.2684874999995	0.1	sub-05	1	sequence	stimulus	Haus	NaN	NaN	128.0	NaN	NaN	2.0	3.0	NaN	NaN	NaN	NaN	NaN
753.3684470999997	0.1335	sub-05	1	sequence	interval	dot	NaN	NaN	NaN	NaN	NaN	NaN	NaN	NaN	NaN	NaN	NaN	NaN
753.5019770999997	0.1001	sub-05	1	sequence	stimulus	Gesicht	NaN	NaN	128.0	NaN	NaN	1.0	4.0	NaN	NaN	NaN	NaN	NaN
753.6020693999999	0.1335	sub-05	1	sequence	interval	dot	NaN	NaN	NaN	NaN	NaN	NaN	NaN	NaN	NaN	NaN	NaN	NaN
753.7355865999998	0.0999	sub-05	1	sequence	stimulus	Schuh	NaN	NaN	128.0	NaN	NaN	4.0	5.0	NaN	NaN	NaN	NaN	NaN
753.8354622999996	0.1334	sub-05	1	sequence	interval	dot	NaN	NaN	NaN	NaN	NaN	NaN	NaN	NaN	NaN	NaN	NaN	NaN
753.9689095999993	8.0718	sub-05	1	sequence	delay	dot	NaN	NaN	NaN	NaN	NaN	NaN	NaN	NaN	NaN	NaN	NaN	NaN
762.0279197	0.8153	sub-05	1	sequence	choice	choice	left	NaN	NaN	-88.55643410000084	True	NaN	NaN	left	True	5.0	3.0	5.0
762.8435639999998	0.4999	sub-05	1	sequence	feedback	NaN	NaN	NaN	NaN	NaN	NaN	NaN	NaN	NaN	NaN	NaN	NaN	NaN
763.3437236999998	1.0003	sub-05	1	sequence	cue	Stuhl	NaN	NaN	NaN	NaN	NaN	NaN	NaN	NaN	NaN	NaN	NaN	NaN
764.3440303999996	2.0017	sub-05	1	sequence	blank	blank	NaN	NaN	NaN	NaN	NaN	NaN	NaN	NaN	NaN	NaN	NaN	NaN
766.3457105999996	0.3002	sub-05	1	sequence	fixation	dot	NaN	NaN	NaN	NaN	NaN	NaN	NaN	NaN	NaN	NaN	NaN	NaN
766.6633770999997	0.0992	sub-05	1	sequence	stimulus	Haus	NaN	NaN	64.0	NaN	NaN	2.0	1.0	NaN	NaN	NaN	NaN	NaN
766.7626027999995	0.0668	sub-05	1	sequence	interval	dot	NaN	NaN	NaN	NaN	NaN	NaN	NaN	NaN	NaN	NaN	NaN	NaN
766.8293653999999	0.1	sub-05	1	sequence	stimulus	Gesicht	NaN	NaN	64.0	NaN	NaN	1.0	2.0	NaN	NaN	NaN	NaN	NaN
766.9293275	0.0668	sub-05	1	sequence	interval	dot	NaN	NaN	NaN	NaN	NaN	NaN	NaN	NaN	NaN	NaN	NaN	NaN
766.9961622999999	0.1001	sub-05	1	sequence	stimulus	Katze	NaN	NaN	64.0	NaN	NaN	3.0	3.0	NaN	NaN	NaN	NaN	NaN
767.0962867999997	0.0667	sub-05	1	sequence	interval	dot	NaN	NaN	NaN	NaN	NaN	NaN	NaN	NaN	NaN	NaN	NaN	NaN
767.1629875999997	0.1	sub-05	1	sequence	stimulus	Schuh	NaN	NaN	64.0	NaN	NaN	4.0	4.0	NaN	NaN	NaN	NaN	NaN
767.2629706999996	0.0668	sub-05	1	sequence	interval	dot	NaN	NaN	NaN	NaN	NaN	NaN	NaN	NaN	NaN	NaN	NaN	NaN
767.3297889999994	0.1	sub-05	1	sequence	stimulus	Stuhl	NaN	NaN	64.0	NaN	NaN	5.0	5.0	NaN	NaN	NaN	NaN	NaN
767.4298064999994	0.0667	sub-05	1	sequence	interval	dot	NaN	NaN	NaN	NaN	NaN	NaN	NaN	NaN	NaN	NaN	NaN	NaN
767.4965392999993	8.3886	sub-05	1	sequence	delay	dot	NaN	NaN	NaN	NaN	NaN	NaN	NaN	NaN	NaN	NaN	NaN	NaN
775.8596420999993	0.895	sub-05	1	sequence	choice	choice	left	NaN	NaN	-88.48872960000062	True	NaN	NaN	left	True	5.0	2.0	5.0
776.7548720999994	0.4998	sub-05	1	sequence	feedback	NaN	NaN	NaN	NaN	NaN	NaN	NaN	NaN	NaN	NaN	NaN	NaN	NaN
777.2549037999997	1.0003	sub-05	1	sequence	cue	Schuh	NaN	NaN	NaN	NaN	NaN	NaN	NaN	NaN	NaN	NaN	NaN	NaN
778.2551883999995	2.0019	sub-05	1	sequence	blank	blank	NaN	NaN	NaN	NaN	NaN	NaN	NaN	NaN	NaN	NaN	NaN	NaN
780.2570647999992	0.3001	sub-05	1	sequence	fixation	dot	NaN	NaN	NaN	NaN	NaN	NaN	NaN	NaN	NaN	NaN	NaN	NaN
780.5748239999994	0.0991	sub-05	1	sequence	stimulus	Stuhl	NaN	NaN	128.0	NaN	NaN	5.0	1.0	NaN	NaN	NaN	NaN	NaN
780.6739281	0.1335	sub-05	1	sequence	interval	dot	NaN	NaN	NaN	NaN	NaN	NaN	NaN	NaN	NaN	NaN	NaN	NaN
780.8074417999997	0.1	sub-05	1	sequence	stimulus	Gesicht	NaN	NaN	128.0	NaN	NaN	1.0	2.0	NaN	NaN	NaN	NaN	NaN
780.9074332	0.1336	sub-05	1	sequence	interval	dot	NaN	NaN	NaN	NaN	NaN	NaN	NaN	NaN	NaN	NaN	NaN	NaN
781.0409932999992	0.0999	sub-05	1	sequence	stimulus	Schuh	NaN	NaN	128.0	NaN	NaN	4.0	3.0	NaN	NaN	NaN	NaN	NaN
781.1408963999993	0.1336	sub-05	1	sequence	interval	dot	NaN	NaN	NaN	NaN	NaN	NaN	NaN	NaN	NaN	NaN	NaN	NaN
781.2745054999996	0.1	sub-05	1	sequence	stimulus	Katze	NaN	NaN	128.0	NaN	NaN	3.0	4.0	NaN	NaN	NaN	NaN	NaN
781.3745198999995	0.1336	sub-05	1	sequence	interval	dot	NaN	NaN	NaN	NaN	NaN	NaN	NaN	NaN	NaN	NaN	NaN	NaN
781.5080898999995	0.1	sub-05	1	sequence	stimulus	Haus	NaN	NaN	128.0	NaN	NaN	2.0	5.0	NaN	NaN	NaN	NaN	NaN
781.6080785999993	0.1334	sub-05	1	sequence	interval	dot	NaN	NaN	NaN	NaN	NaN	NaN	NaN	NaN	NaN	NaN	NaN	NaN
781.7415228999998	8.0715	sub-05	1	sequence	delay	dot	NaN	NaN	NaN	NaN	NaN	NaN	NaN	NaN	NaN	NaN	NaN	NaN
789.7953212999992	0.8205	sub-05	1	sequence	choice	choice	left	NaN	NaN	-88.55202100000042	True	NaN	NaN	left	True	3.0	4.0	3.0
790.6160915999999	0.4997	sub-05	1	sequence	feedback	NaN	NaN	NaN	NaN	NaN	NaN	NaN	NaN	NaN	NaN	NaN	NaN	NaN
791.1160211999995	1.0005	sub-05	1	sequence	cue	Katze	NaN	NaN	NaN	NaN	NaN	NaN	NaN	NaN	NaN	NaN	NaN	NaN
792.1164890999999	2.0017	sub-05	1	sequence	blank	blank	NaN	NaN	NaN	NaN	NaN	NaN	NaN	NaN	NaN	NaN	NaN	NaN
794.1181910999994	0.3004	sub-05	1	sequence	fixation	dot	NaN	NaN	NaN	NaN	NaN	NaN	NaN	NaN	NaN	NaN	NaN	NaN
794.4368199999999	0.115	sub-05	1	sequence	stimulus	Gesicht	NaN	NaN	32.0	NaN	NaN	1.0	1.0	NaN	NaN	NaN	NaN	NaN
794.5518305999994	0.0336	sub-05	1	sequence	interval	dot	NaN	NaN	NaN	NaN	NaN	NaN	NaN	NaN	NaN	NaN	NaN	NaN
794.5853883999998	0.0999	sub-05	1	sequence	stimulus	Katze	NaN	NaN	32.0	NaN	NaN	3.0	2.0	NaN	NaN	NaN	NaN	NaN
794.6852922999997	0.0335	sub-05	1	sequence	interval	dot	NaN	NaN	NaN	NaN	NaN	NaN	NaN	NaN	NaN	NaN	NaN	NaN
794.7188406999994	0.0999	sub-05	1	sequence	stimulus	Haus	NaN	NaN	32.0	NaN	NaN	2.0	3.0	NaN	NaN	NaN	NaN	NaN
794.8187076999993	0.0335	sub-05	1	sequence	interval	dot	NaN	NaN	NaN	NaN	NaN	NaN	NaN	NaN	NaN	NaN	NaN	NaN
794.8521674999993	0.0999	sub-05	1	sequence	stimulus	Schuh	NaN	NaN	32.0	NaN	NaN	4.0	4.0	NaN	NaN	NaN	NaN	NaN
794.9520886999999	0.0336	sub-05	1	sequence	interval	dot	NaN	NaN	NaN	NaN	NaN	NaN	NaN	NaN	NaN	NaN	NaN	NaN
794.9856442999999	0.0999	sub-05	1	sequence	stimulus	Stuhl	NaN	NaN	32.0	NaN	NaN	5.0	5.0	NaN	NaN	NaN	NaN	NaN
795.0855752999996	0.0332	sub-05	1	sequence	interval	dot	NaN	NaN	NaN	NaN	NaN	NaN	NaN	NaN	NaN	NaN	NaN	NaN
795.1188155	8.522	sub-05	1	sequence	delay	dot	NaN	NaN	NaN	NaN	NaN	NaN	NaN	NaN	NaN	NaN	NaN	NaN
803.6269609999999	1.0001	sub-05	1	sequence	choice	choice	right	NaN	NaN	-88.37157610000122	True	NaN	NaN	right	True	3.0	2.0	2.0
804.6273762999999	0.4997	sub-05	1	sequence	feedback	NaN	NaN	NaN	NaN	NaN	NaN	NaN	NaN	NaN	NaN	NaN	NaN	NaN
805.1272056999996	1.0005	sub-05	1	sequence	cue	Katze	NaN	NaN	NaN	NaN	NaN	NaN	NaN	NaN	NaN	NaN	NaN	NaN
806.1277056999998	2.0016	sub-05	1	sequence	blank	blank	NaN	NaN	NaN	NaN	NaN	NaN	NaN	NaN	NaN	NaN	NaN	NaN
808.1293102	0.3004	sub-05	1	sequence	fixation	dot	NaN	NaN	NaN	NaN	NaN	NaN	NaN	NaN	NaN	NaN	NaN	NaN
808.4471549	0.0992	sub-05	1	sequence	stimulus	Schuh	NaN	NaN	32.0	NaN	NaN	4.0	1.0	NaN	NaN	NaN	NaN	NaN
808.5463059999993	0.0335	sub-05	1	sequence	interval	dot	NaN	NaN	NaN	NaN	NaN	NaN	NaN	NaN	NaN	NaN	NaN	NaN
808.5797774999992	0.1	sub-05	1	sequence	stimulus	Haus	NaN	NaN	32.0	NaN	NaN	2.0	2.0	NaN	NaN	NaN	NaN	NaN
808.6797478999997	0.0335	sub-05	1	sequence	interval	dot	NaN	NaN	NaN	NaN	NaN	NaN	NaN	NaN	NaN	NaN	NaN	NaN
808.7132345999999	0.1	sub-05	1	sequence	stimulus	Gesicht	NaN	NaN	32.0	NaN	NaN	1.0	3.0	NaN	NaN	NaN	NaN	NaN
808.8132235999992	0.0334	sub-05	1	sequence	interval	dot	NaN	NaN	NaN	NaN	NaN	NaN	NaN	NaN	NaN	NaN	NaN	NaN
808.8466722999992	0.1	sub-05	1	sequence	stimulus	Katze	NaN	NaN	32.0	NaN	NaN	3.0	4.0	NaN	NaN	NaN	NaN	NaN
808.9466468999999	0.0334	sub-05	1	sequence	interval	dot	NaN	NaN	NaN	NaN	NaN	NaN	NaN	NaN	NaN	NaN	NaN	NaN
808.9800853999996	0.1	sub-05	1	sequence	stimulus	Stuhl	NaN	NaN	32.0	NaN	NaN	5.0	5.0	NaN	NaN	NaN	NaN	NaN
809.0801290999998	0.0333	sub-05	1	sequence	interval	dot	NaN	NaN	NaN	NaN	NaN	NaN	NaN	NaN	NaN	NaN	NaN	NaN
809.1134465999994	8.5387	sub-05	1	sequence	delay	dot	NaN	NaN	NaN	NaN	NaN	NaN	NaN	NaN	NaN	NaN	NaN	NaN
817.6410905999992	0.8472	sub-05	1	sequence	choice	choice	right	NaN	NaN	-88.51124700000037	True	NaN	NaN	right	True	3.0	4.0	4.0
818.4886233999996	0.4999	sub-05	1	sequence	feedback	NaN	NaN	NaN	NaN	NaN	NaN	NaN	NaN	NaN	NaN	NaN	NaN	NaN
818.9887467999997	1.0003	sub-05	1	sequence	cue	Haus	NaN	NaN	NaN	NaN	NaN	NaN	NaN	NaN	NaN	NaN	NaN	NaN
819.9890940999994	2.0022	sub-05	1	sequence	blank	blank	NaN	NaN	NaN	NaN	NaN	NaN	NaN	NaN	NaN	NaN	NaN	NaN
821.991258	0.2998	sub-05	1	sequence	fixation	dot	NaN	NaN	NaN	NaN	NaN	NaN	NaN	NaN	NaN	NaN	NaN	NaN
822.3094595999992	0.1149	sub-05	1	sequence	stimulus	Schuh	NaN	NaN	64.0	NaN	NaN	4.0	1.0	NaN	NaN	NaN	NaN	NaN
822.4244024	0.0669	sub-05	1	sequence	interval	dot	NaN	NaN	NaN	NaN	NaN	NaN	NaN	NaN	NaN	NaN	NaN	NaN
822.4912648	0.0999	sub-05	1	sequence	stimulus	Gesicht	NaN	NaN	64.0	NaN	NaN	1.0	2.0	NaN	NaN	NaN	NaN	NaN
822.5911993999998	0.0668	sub-05	1	sequence	interval	dot	NaN	NaN	NaN	NaN	NaN	NaN	NaN	NaN	NaN	NaN	NaN	NaN
822.6579979999997	0.0999	sub-05	1	sequence	stimulus	Stuhl	NaN	NaN	64.0	NaN	NaN	5.0	3.0	NaN	NaN	NaN	NaN	NaN
822.7579339999993	0.067	sub-05	1	sequence	interval	dot	NaN	NaN	NaN	NaN	NaN	NaN	NaN	NaN	NaN	NaN	NaN	NaN
822.8249040999999	0.0999	sub-05	1	sequence	stimulus	Katze	NaN	NaN	64.0	NaN	NaN	3.0	4.0	NaN	NaN	NaN	NaN	NaN
822.9247544999998	0.0669	sub-05	1	sequence	interval	dot	NaN	NaN	NaN	NaN	NaN	NaN	NaN	NaN	NaN	NaN	NaN	NaN
822.9916727999998	0.0998	sub-05	1	sequence	stimulus	Haus	NaN	NaN	64.0	NaN	NaN	2.0	5.0	NaN	NaN	NaN	NaN	NaN
823.0914671999999	0.0667	sub-05	1	sequence	interval	dot	NaN	NaN	NaN	NaN	NaN	NaN	NaN	NaN	NaN	NaN	NaN	NaN
823.1581276999996	8.3886	sub-05	1	sequence	delay	dot	NaN	NaN	NaN	NaN	NaN	NaN	NaN	NaN	NaN	NaN	NaN	NaN
831.5244878999993	0.8083	sub-05	1	sequence	choice	choice	left	NaN	NaN	-88.55771770000138	True	NaN	NaN	left	True	5.0	3.0	5.0
832.3330775999993	0.4999	sub-05	1	sequence	feedback	NaN	NaN	NaN	NaN	NaN	NaN	NaN	NaN	NaN	NaN	NaN	NaN	NaN
832.8332256999993	1.0005	sub-05	1	sequence	cue	Schuh	NaN	NaN	NaN	NaN	NaN	NaN	NaN	NaN	NaN	NaN	NaN	NaN
833.8336855999996	2.0015	sub-05	1	sequence	blank	blank	NaN	NaN	NaN	NaN	NaN	NaN	NaN	NaN	NaN	NaN	NaN	NaN
835.8352224999999	0.3004	sub-05	1	sequence	fixation	dot	NaN	NaN	NaN	NaN	NaN	NaN	NaN	NaN	NaN	NaN	NaN	NaN
836.1538739999996	0.1151	sub-05	1	sequence	stimulus	Stuhl	NaN	NaN	512.0	NaN	NaN	5.0	1.0	NaN	NaN	NaN	NaN	NaN
836.2689393999999	0.5171	sub-05	1	sequence	interval	dot	NaN	NaN	NaN	NaN	NaN	NaN	NaN	NaN	NaN	NaN	NaN	NaN
836.7860760999993	0.1	sub-05	1	sequence	stimulus	Gesicht	NaN	NaN	512.0	NaN	NaN	1.0	2.0	NaN	NaN	NaN	NaN	NaN
836.8860943	0.5171	sub-05	1	sequence	interval	dot	NaN	NaN	NaN	NaN	NaN	NaN	NaN	NaN	NaN	NaN	NaN	NaN
837.4031974	0.0998	sub-05	1	sequence	stimulus	Haus	NaN	NaN	512.0	NaN	NaN	2.0	3.0	NaN	NaN	NaN	NaN	NaN
837.5030247999994	0.5172	sub-05	1	sequence	interval	dot	NaN	NaN	NaN	NaN	NaN	NaN	NaN	NaN	NaN	NaN	NaN	NaN
838.0202386999999	0.1	sub-05	1	sequence	stimulus	Schuh	NaN	NaN	512.0	NaN	NaN	4.0	4.0	NaN	NaN	NaN	NaN	NaN
838.1202760999995	0.5172	sub-05	1	sequence	interval	dot	NaN	NaN	NaN	NaN	NaN	NaN	NaN	NaN	NaN	NaN	NaN	NaN
838.6374327999993	0.1	sub-05	1	sequence	stimulus	Katze	NaN	NaN	512.0	NaN	NaN	3.0	5.0	NaN	NaN	NaN	NaN	NaN
838.7374451999995	0.5171	sub-05	1	sequence	interval	dot	NaN	NaN	NaN	NaN	NaN	NaN	NaN	NaN	NaN	NaN	NaN	NaN
839.2545911999996	6.1534	sub-05	1	sequence	delay	dot	NaN	NaN	NaN	NaN	NaN	NaN	NaN	NaN	NaN	NaN	NaN	NaN
845.3821792999997	0.7451	sub-05	1	sequence	choice	choice	right	NaN	NaN	-88.63555380000071	True	NaN	NaN	right	True	5.0	4.0	4.0
846.1275626999995	0.4998	sub-05	1	sequence	feedback	NaN	NaN	NaN	NaN	NaN	NaN	NaN	NaN	NaN	NaN	NaN	NaN	NaN
846.6276386	1.0004	sub-05	1	sequence	cue	Gesicht	NaN	NaN	NaN	NaN	NaN	NaN	NaN	NaN	NaN	NaN	NaN	NaN
847.6280677999994	2.0014	sub-05	1	sequence	blank	blank	NaN	NaN	NaN	NaN	NaN	NaN	NaN	NaN	NaN	NaN	NaN	NaN
849.6295052999994	0.3003	sub-05	1	sequence	fixation	dot	NaN	NaN	NaN	NaN	NaN	NaN	NaN	NaN	NaN	NaN	NaN	NaN
849.9473627999996	0.0991	sub-05	1	sequence	stimulus	Schuh	NaN	NaN	512.0	NaN	NaN	4.0	1.0	NaN	NaN	NaN	NaN	NaN
850.0465067999994	0.5172	sub-05	1	sequence	interval	dot	NaN	NaN	NaN	NaN	NaN	NaN	NaN	NaN	NaN	NaN	NaN	NaN
850.5637215999996	0.1001	sub-05	1	sequence	stimulus	Katze	NaN	NaN	512.0	NaN	NaN	3.0	2.0	NaN	NaN	NaN	NaN	NaN
850.6638005999994	0.5171	sub-05	1	sequence	interval	dot	NaN	NaN	NaN	NaN	NaN	NaN	NaN	NaN	NaN	NaN	NaN	NaN
851.1809440999996	0.0999	sub-05	1	sequence	stimulus	Stuhl	NaN	NaN	512.0	NaN	NaN	5.0	3.0	NaN	NaN	NaN	NaN	NaN
851.2808907999997	0.5172	sub-05	1	sequence	interval	dot	NaN	NaN	NaN	NaN	NaN	NaN	NaN	NaN	NaN	NaN	NaN	NaN
851.7980504999996	0.1	sub-05	1	sequence	stimulus	Gesicht	NaN	NaN	512.0	NaN	NaN	1.0	4.0	NaN	NaN	NaN	NaN	NaN
851.8980225999994	0.5172	sub-05	1	sequence	interval	dot	NaN	NaN	NaN	NaN	NaN	NaN	NaN	NaN	NaN	NaN	NaN	NaN
852.4152492999992	0.1	sub-05	1	sequence	stimulus	Haus	NaN	NaN	512.0	NaN	NaN	2.0	5.0	NaN	NaN	NaN	NaN	NaN
852.5152072999999	0.5173	sub-05	1	sequence	interval	dot	NaN	NaN	NaN	NaN	NaN	NaN	NaN	NaN	NaN	NaN	NaN	NaN
853.0324787	6.1533	sub-05	1	sequence	delay	dot	NaN	NaN	NaN	NaN	NaN	NaN	NaN	NaN	NaN	NaN	NaN	NaN
859.1618409999992	1.0436	sub-05	1	sequence	choice	choice	right	NaN	NaN	-88.32476950000091	True	NaN	NaN	right	True	5.0	4.0	4.0
860.2057263999995	0.4999	sub-05	1	sequence	feedback	NaN	NaN	NaN	NaN	NaN	NaN	NaN	NaN	NaN	NaN	NaN	NaN	NaN
860.7061288999994	56.3284	sub-05	1	other	break	break	NaN	NaN	NaN	NaN	NaN	NaN	NaN	NaN	NaN	NaN	NaN	NaN
920.8548418	0.4996	sub-05	1	localizer	stimulus	Stuhl	NaN	0	1.1024115000000165	NaN	True	NaN	NaN	NaN	NaN	NaN	NaN	NaN
921.3544653	1.1024	sub-05	1	localizer	blank	interval	NaN	NaN	NaN	NaN	NaN	NaN	NaN	NaN	NaN	NaN	NaN	NaN
922.7730564999993	0.4996	sub-05	1	localizer	stimulus	Stuhl	NaN	0	1.917829400000187	NaN	True	NaN	NaN	NaN	NaN	NaN	NaN	NaN
923.2394939999996	1.9178	sub-05	1	localizer	blank	interval	NaN	NaN	NaN	NaN	NaN	NaN	NaN	NaN	NaN	NaN	NaN	NaN
925.4584067999996	0.4995	sub-05	1	localizer	stimulus	Schuh	NaN	0	2.051524600000448	NaN	True	NaN	NaN	NaN	NaN	NaN	NaN	NaN
925.9414307999996	2.0515	sub-05	1	localizer	blank	interval	NaN	NaN	NaN	NaN	NaN	NaN	NaN	NaN	NaN	NaN	NaN	NaN
928.2940559999996	0.4995	sub-05	1	localizer	stimulus	Gesicht	NaN	0	2.6520067000000154	NaN	True	NaN	NaN	NaN	NaN	NaN	NaN	NaN
928.7770347999996	2.652	sub-05	1	localizer	blank	interval	NaN	NaN	NaN	NaN	NaN	NaN	NaN	NaN	NaN	NaN	NaN	NaN
931.7302115999992	0.4995	sub-05	1	localizer	stimulus	Katze	NaN	0	3.269233700000882	NaN	True	NaN	NaN	NaN	NaN	NaN	NaN	NaN
932.2131237999992	3.2692	sub-05	1	localizer	blank	interval	NaN	NaN	NaN	NaN	NaN	NaN	NaN	NaN	NaN	NaN	NaN	NaN
935.7834795	0.4995	sub-05	1	localizer	stimulus	Stuhl	NaN	0	3.135911899999769	NaN	True	NaN	NaN	NaN	NaN	NaN	NaN	NaN
936.2663772999996	3.1359	sub-05	1	localizer	blank	interval	NaN	NaN	NaN	NaN	NaN	NaN	NaN	NaN	NaN	NaN	NaN	NaN
939.7034981999996	0.4993	sub-05	1	localizer	stimulus	Haus	NaN	180	2.2349030000005996	-88.70724400000017	True	NaN	NaN	NaN	NaN	NaN	NaN	NaN
940.1864326999994	2.2349	sub-05	1	localizer	blank	interval	NaN	NaN	NaN	NaN	NaN	NaN	NaN	NaN	NaN	NaN	NaN	NaN
942.7224720999992	0.4996	sub-05	1	localizer	stimulus	Katze	NaN	0	2.368342300000222	NaN	True	NaN	NaN	NaN	NaN	NaN	NaN	NaN
943.2054841999998	2.3683	sub-05	1	localizer	blank	interval	NaN	NaN	NaN	NaN	NaN	NaN	NaN	NaN	NaN	NaN	NaN	NaN
945.8748962	0.4996	sub-05	1	localizer	stimulus	Katze	NaN	180	3.169048400000065	-88.7105530000008	True	NaN	NaN	NaN	NaN	NaN	NaN	NaN
946.3579152999991	3.169	sub-05	1	localizer	blank	interval	NaN	NaN	NaN	NaN	NaN	NaN	NaN	NaN	NaN	NaN	NaN	NaN
949.8281299	0.4995	sub-05	1	localizer	stimulus	Gesicht	NaN	0	2.5518418000001475	NaN	True	NaN	NaN	NaN	NaN	NaN	NaN	NaN
950.3112162999996	2.5518	sub-05	1	localizer	blank	interval	NaN	NaN	NaN	NaN	NaN	NaN	NaN	NaN	NaN	NaN	NaN	NaN
953.1641652999996	0.4995	sub-05	1	localizer	stimulus	Schuh	NaN	0	2.9689617000003636	NaN	True	NaN	NaN	NaN	NaN	NaN	NaN	NaN
953.6471833999994	2.969	sub-05	1	localizer	blank	interval	NaN	NaN	NaN	NaN	NaN	NaN	NaN	NaN	NaN	NaN	NaN	NaN
956.9172001999996	0.4995	sub-05	1	localizer	stimulus	Schuh	NaN	0	2.28526039999997	NaN	True	NaN	NaN	NaN	NaN	NaN	NaN	NaN
957.4001872	2.2853	sub-05	1	localizer	blank	interval	NaN	NaN	NaN	NaN	NaN	NaN	NaN	NaN	NaN	NaN	NaN	NaN
959.9866186	0.4993	sub-05	1	localizer	stimulus	Haus	NaN	0	2.9355116000008366	NaN	True	NaN	NaN	NaN	NaN	NaN	NaN	NaN
960.4694507999992	2.9355	sub-05	1	localizer	blank	interval	NaN	NaN	NaN	NaN	NaN	NaN	NaN	NaN	NaN	NaN	NaN	NaN
963.7062509999996	0.4994	sub-05	1	localizer	stimulus	Haus	NaN	0	1.6677364999995916	NaN	True	NaN	NaN	NaN	NaN	NaN	NaN	NaN
964.1891546999996	1.6677	sub-05	1	localizer	blank	interval	NaN	NaN	NaN	NaN	NaN	NaN	NaN	NaN	NaN	NaN	NaN	NaN
966.1580196999994	0.4995	sub-05	1	localizer	stimulus	Gesicht	NaN	180	2.668832499999553	-88.72979890000079	True	NaN	NaN	NaN	NaN	NaN	NaN	NaN
966.6409254	2.6688	sub-05	1	localizer	blank	interval	NaN	NaN	NaN	NaN	NaN	NaN	NaN	NaN	NaN	NaN	NaN	NaN
969.6107396999996	0.4996	sub-05	1	localizer	stimulus	Gesicht	NaN	0	2.418560799999568	NaN	True	NaN	NaN	NaN	NaN	NaN	NaN	NaN
970.0937177999996	2.4186	sub-05	1	localizer	blank	interval	NaN	NaN	NaN	NaN	NaN	NaN	NaN	NaN	NaN	NaN	NaN	NaN
972.8134363999998	0.4994	sub-05	1	localizer	stimulus	Haus	NaN	0	2.935344999999984	NaN	True	NaN	NaN	NaN	NaN	NaN	NaN	NaN
973.2965221999992	2.9353	sub-05	1	localizer	blank	interval	NaN	NaN	NaN	NaN	NaN	NaN	NaN	NaN	NaN	NaN	NaN	NaN
976.5330729999996	0.4995	sub-05	1	localizer	stimulus	Stuhl	NaN	0	2.985610799999222	NaN	True	NaN	NaN	NaN	NaN	NaN	NaN	NaN
977.0160072	2.9856	sub-05	1	localizer	blank	interval	NaN	NaN	NaN	NaN	NaN	NaN	NaN	NaN	NaN	NaN	NaN	NaN
980.3030905999996	0.4993	sub-05	1	localizer	stimulus	Katze	NaN	0	2.1685486000005767	NaN	True	NaN	NaN	NaN	NaN	NaN	NaN	NaN
980.7859383999994	2.1685	sub-05	1	localizer	blank	interval	NaN	NaN	NaN	NaN	NaN	NaN	NaN	NaN	NaN	NaN	NaN	NaN
983.2555229	0.4993	sub-05	1	localizer	stimulus	Haus	NaN	0	2.518262000000391	NaN	True	NaN	NaN	NaN	NaN	NaN	NaN	NaN
983.7383893999996	2.5183	sub-05	1	localizer	blank	interval	NaN	NaN	NaN	NaN	NaN	NaN	NaN	NaN	NaN	NaN	NaN	NaN
986.5578931	0.4994	sub-05	1	localizer	stimulus	Schuh	NaN	180	2.551965699999414	-88.69729800000005	True	NaN	NaN	NaN	NaN	NaN	NaN	NaN
987.0407428	2.552	sub-05	1	localizer	blank	interval	NaN	NaN	NaN	NaN	NaN	NaN	NaN	NaN	NaN	NaN	NaN	NaN
989.8938867999996	0.4994	sub-05	1	localizer	stimulus	Katze	NaN	0	2.485263400000008	NaN	True	NaN	NaN	NaN	NaN	NaN	NaN	NaN
990.3767727999992	2.4853	sub-05	1	localizer	blank	interval	NaN	NaN	NaN	NaN	NaN	NaN	NaN	NaN	NaN	NaN	NaN	NaN
993.1632127999992	0.4994	sub-05	1	localizer	stimulus	Schuh	NaN	0	2.618688399999769	NaN	True	NaN	NaN	NaN	NaN	NaN	NaN	NaN
993.6461043999998	2.6187	sub-05	1	localizer	blank	interval	NaN	NaN	NaN	NaN	NaN	NaN	NaN	NaN	NaN	NaN	NaN	NaN
996.5661112999996	0.4994	sub-05	1	localizer	stimulus	Stuhl	NaN	180	2.8688661999993883	-88.68193770000107	True	NaN	NaN	NaN	NaN	NaN	NaN	NaN
997.0489472999998	2.8689	sub-05	1	localizer	blank	interval	NaN	NaN	NaN	NaN	NaN	NaN	NaN	NaN	NaN	NaN	NaN	NaN
1000.2190862999996	0.4992	sub-05	1	localizer	stimulus	Gesicht	NaN	0	2.2850705999998127	NaN	True	NaN	NaN	NaN	NaN	NaN	NaN	NaN
1000.7019445999996	2.2851	sub-05	1	localizer	blank	interval	NaN	NaN	NaN	NaN	NaN	NaN	NaN	NaN	NaN	NaN	NaN	NaN
1006.473333	1.0005	sub-05	1	sequence	cue	Gesicht	NaN	NaN	NaN	NaN	NaN	NaN	NaN	NaN	NaN	NaN	NaN	NaN
1007.4738146	2.0018	sub-05	1	sequence	blank	blank	NaN	NaN	NaN	NaN	NaN	NaN	NaN	NaN	NaN	NaN	NaN	NaN
1009.4755812999992	0.3002	sub-05	1	sequence	fixation	dot	NaN	NaN	NaN	NaN	NaN	NaN	NaN	NaN	NaN	NaN	NaN	NaN
1009.7933065999996	0.0992	sub-05	1	sequence	stimulus	Katze	NaN	NaN	128.0	NaN	NaN	3.0	1.0	NaN	NaN	NaN	NaN	NaN
1009.8924877999998	0.1336	sub-05	1	sequence	interval	dot	NaN	NaN	NaN	NaN	NaN	NaN	NaN	NaN	NaN	NaN	NaN	NaN
1010.0260891999995	0.1	sub-05	1	sequence	stimulus	Stuhl	NaN	NaN	128.0	NaN	NaN	5.0	2.0	NaN	NaN	NaN	NaN	NaN
1010.1260887999996	0.1336	sub-05	1	sequence	interval	dot	NaN	NaN	NaN	NaN	NaN	NaN	NaN	NaN	NaN	NaN	NaN	NaN
1010.2596572999992	0.0998	sub-05	1	sequence	stimulus	Haus	NaN	NaN	128.0	NaN	NaN	2.0	3.0	NaN	NaN	NaN	NaN	NaN
1010.3595032999992	0.1336	sub-05	1	sequence	interval	dot	NaN	NaN	NaN	NaN	NaN	NaN	NaN	NaN	NaN	NaN	NaN	NaN
1010.4930600999996	0.0999	sub-05	1	sequence	stimulus	Gesicht	NaN	NaN	128.0	NaN	NaN	1.0	4.0	NaN	NaN	NaN	NaN	NaN
1010.5929883999996	0.1337	sub-05	1	sequence	interval	dot	NaN	NaN	NaN	NaN	NaN	NaN	NaN	NaN	NaN	NaN	NaN	NaN
1010.7267134999992	0.0999	sub-05	1	sequence	stimulus	Schuh	NaN	NaN	128.0	NaN	NaN	4.0	5.0	NaN	NaN	NaN	NaN	NaN
1010.8265949999997	0.1334	sub-05	1	sequence	interval	dot	NaN	NaN	NaN	NaN	NaN	NaN	NaN	NaN	NaN	NaN	NaN	NaN
1010.9600377999996	8.0716	sub-05	1	sequence	delay	dot	NaN	NaN	NaN	NaN	NaN	NaN	NaN	NaN	NaN	NaN	NaN	NaN
1019.0064905999998	0.8613	sub-05	1	sequence	choice	choice	right	NaN	NaN	-88.51461670000026	True	NaN	NaN	right	True	5.0	4.0	4.0
1019.8682036	0.4996	sub-05	1	sequence	feedback	NaN	NaN	NaN	NaN	NaN	NaN	NaN	NaN	NaN	NaN	NaN	NaN	NaN
1020.3679106999998	1.0005	sub-05	1	sequence	cue	Katze	NaN	NaN	NaN	NaN	NaN	NaN	NaN	NaN	NaN	NaN	NaN	NaN
1021.3683985999996	2.0018	sub-05	1	sequence	blank	blank	NaN	NaN	NaN	NaN	NaN	NaN	NaN	NaN	NaN	NaN	NaN	NaN
1023.3702377	0.3003	sub-05	1	sequence	fixation	dot	NaN	NaN	NaN	NaN	NaN	NaN	NaN	NaN	NaN	NaN	NaN	NaN
1023.6882901	0.1158	sub-05	1	sequence	stimulus	Stuhl	NaN	NaN	128.0	NaN	NaN	5.0	1.0	NaN	NaN	NaN	NaN	NaN
1023.8040666999996	0.1334	sub-05	1	sequence	interval	dot	NaN	NaN	NaN	NaN	NaN	NaN	NaN	NaN	NaN	NaN	NaN	NaN
1023.9375064999996	0.1001	sub-05	1	sequence	stimulus	Gesicht	NaN	NaN	128.0	NaN	NaN	1.0	2.0	NaN	NaN	NaN	NaN	NaN
1024.0375967	0.1335	sub-05	1	sequence	interval	dot	NaN	NaN	NaN	NaN	NaN	NaN	NaN	NaN	NaN	NaN	NaN	NaN
1024.1710604	0.1	sub-05	1	sequence	stimulus	Schuh	NaN	NaN	128.0	NaN	NaN	4.0	3.0	NaN	NaN	NaN	NaN	NaN
1024.2710545	0.1337	sub-05	1	sequence	interval	dot	NaN	NaN	NaN	NaN	NaN	NaN	NaN	NaN	NaN	NaN	NaN	NaN
1024.4047756999998	0.0998	sub-05	1	sequence	stimulus	Katze	NaN	NaN	128.0	NaN	NaN	3.0	4.0	NaN	NaN	NaN	NaN	NaN
1024.5046230999997	0.1336	sub-05	1	sequence	interval	dot	NaN	NaN	NaN	NaN	NaN	NaN	NaN	NaN	NaN	NaN	NaN	NaN
1024.6382297	0.0999	sub-05	1	sequence	stimulus	Haus	NaN	NaN	128.0	NaN	NaN	2.0	5.0	NaN	NaN	NaN	NaN	NaN
1024.7381191999991	0.1336	sub-05	1	sequence	interval	dot	NaN	NaN	NaN	NaN	NaN	NaN	NaN	NaN	NaN	NaN	NaN	NaN
1024.8716984999992	8.0713	sub-05	1	sequence	delay	dot	NaN	NaN	NaN	NaN	NaN	NaN	NaN	NaN	NaN	NaN	NaN	NaN
1032.916272099999	0.7627	sub-05	1	sequence	choice	choice	right	NaN	NaN	-88.6183671000008	True	NaN	NaN	right	True	5.0	4.0	4.0
1033.6792265999993	0.4999	sub-05	1	sequence	feedback	NaN	NaN	NaN	NaN	NaN	NaN	NaN	NaN	NaN	NaN	NaN	NaN	NaN
1034.1793034999992	1.0004	sub-05	1	sequence	cue	Gesicht	NaN	NaN	NaN	NaN	NaN	NaN	NaN	NaN	NaN	NaN	NaN	NaN
1035.1796780999994	2.0016	sub-05	1	sequence	blank	blank	NaN	NaN	NaN	NaN	NaN	NaN	NaN	NaN	NaN	NaN	NaN	NaN
1037.181299	0.3003	sub-05	1	sequence	fixation	dot	NaN	NaN	NaN	NaN	NaN	NaN	NaN	NaN	NaN	NaN	NaN	NaN
1037.5150592999998	0.0999	sub-05	1	sequence	stimulus	Stuhl	NaN	NaN	512.0	NaN	NaN	5.0	1.0	NaN	NaN	NaN	NaN	NaN
1037.6149962999998	0.5172	sub-05	1	sequence	interval	dot	NaN	NaN	NaN	NaN	NaN	NaN	NaN	NaN	NaN	NaN	NaN	NaN
1038.1321591999997	0.0999	sub-05	1	sequence	stimulus	Gesicht	NaN	NaN	512.0	NaN	NaN	1.0	2.0	NaN	NaN	NaN	NaN	NaN
1038.2320379999992	0.5173	sub-05	1	sequence	interval	dot	NaN	NaN	NaN	NaN	NaN	NaN	NaN	NaN	NaN	NaN	NaN	NaN
1038.7493157	0.0999	sub-05	1	sequence	stimulus	Haus	NaN	NaN	512.0	NaN	NaN	2.0	3.0	NaN	NaN	NaN	NaN	NaN
1038.849177499999	0.5172	sub-05	1	sequence	interval	dot	NaN	NaN	NaN	NaN	NaN	NaN	NaN	NaN	NaN	NaN	NaN	NaN
1039.3663720999994	0.1001	sub-05	1	sequence	stimulus	Schuh	NaN	NaN	512.0	NaN	NaN	4.0	4.0	NaN	NaN	NaN	NaN	NaN
1039.4665059	0.517	sub-05	1	sequence	interval	dot	NaN	NaN	NaN	NaN	NaN	NaN	NaN	NaN	NaN	NaN	NaN	NaN
1039.9835402999995	0.1001	sub-05	1	sequence	stimulus	Katze	NaN	NaN	512.0	NaN	NaN	3.0	5.0	NaN	NaN	NaN	NaN	NaN
1040.0836024	0.517	sub-05	1	sequence	interval	dot	NaN	NaN	NaN	NaN	NaN	NaN	NaN	NaN	NaN	NaN	NaN	NaN
1040.6005921999997	6.1368	sub-05	1	sequence	delay	dot	NaN	NaN	NaN	NaN	NaN	NaN	NaN	NaN	NaN	NaN	NaN	NaN
1046.721889099999	0.7516	sub-05	1	sequence	choice	choice	right	NaN	NaN	-88.61318250000113	True	NaN	NaN	right	True	4.0	2.0	2.0
1047.4738060999998	0.4999	sub-05	1	sequence	feedback	NaN	NaN	NaN	NaN	NaN	NaN	NaN	NaN	NaN	NaN	NaN	NaN	NaN
1047.9738595	1.0002	sub-05	1	sequence	cue	Gesicht	NaN	NaN	NaN	NaN	NaN	NaN	NaN	NaN	NaN	NaN	NaN	NaN
1048.9740432999995	2.0017	sub-05	1	sequence	blank	blank	NaN	NaN	NaN	NaN	NaN	NaN	NaN	NaN	NaN	NaN	NaN	NaN
1050.9757916	0.3001	sub-05	1	sequence	fixation	dot	NaN	NaN	NaN	NaN	NaN	NaN	NaN	NaN	NaN	NaN	NaN	NaN
1051.2934938	0.0992	sub-05	1	sequence	stimulus	Schuh	NaN	NaN	32.0	NaN	NaN	4.0	1.0	NaN	NaN	NaN	NaN	NaN
1051.3927117999992	0.0335	sub-05	1	sequence	interval	dot	NaN	NaN	NaN	NaN	NaN	NaN	NaN	NaN	NaN	NaN	NaN	NaN
1051.4261907	0.0999	sub-05	1	sequence	stimulus	Haus	NaN	NaN	32.0	NaN	NaN	2.0	2.0	NaN	NaN	NaN	NaN	NaN
1051.5261244999992	0.0335	sub-05	1	sequence	interval	dot	NaN	NaN	NaN	NaN	NaN	NaN	NaN	NaN	NaN	NaN	NaN	NaN
1051.5595778999996	0.1	sub-05	1	sequence	stimulus	Gesicht	NaN	NaN	32.0	NaN	NaN	1.0	3.0	NaN	NaN	NaN	NaN	NaN
1051.6595425999994	0.0335	sub-05	1	sequence	interval	dot	NaN	NaN	NaN	NaN	NaN	NaN	NaN	NaN	NaN	NaN	NaN	NaN
1051.6930398999991	0.1	sub-05	1	sequence	stimulus	Katze	NaN	NaN	32.0	NaN	NaN	3.0	4.0	NaN	NaN	NaN	NaN	NaN
1051.7930160999997	0.0335	sub-05	1	sequence	interval	dot	NaN	NaN	NaN	NaN	NaN	NaN	NaN	NaN	NaN	NaN	NaN	NaN
1051.8264878999998	0.1	sub-05	1	sequence	stimulus	Stuhl	NaN	NaN	32.0	NaN	NaN	5.0	5.0	NaN	NaN	NaN	NaN	NaN
1051.9264407	0.0334	sub-05	1	sequence	interval	dot	NaN	NaN	NaN	NaN	NaN	NaN	NaN	NaN	NaN	NaN	NaN	NaN
1051.9598325999996	8.5386	sub-05	1	sequence	delay	dot	NaN	NaN	NaN	NaN	NaN	NaN	NaN	NaN	NaN	NaN	NaN	NaN
1060.4756244	0.809	sub-05	1	sequence	choice	choice	right	NaN	NaN	-88.55822350000017	False	NaN	NaN	left	True	3.0	4.0	3.0
1061.2849053	0.4998	sub-05	1	sequence	feedback	NaN	NaN	NaN	NaN	NaN	NaN	NaN	NaN	NaN	NaN	NaN	NaN	NaN
1061.7849417999996	1.0004	sub-05	1	sequence	cue	Gesicht	NaN	NaN	NaN	NaN	NaN	NaN	NaN	NaN	NaN	NaN	NaN	NaN
1062.7853121999997	2.0019	sub-05	1	sequence	blank	blank	NaN	NaN	NaN	NaN	NaN	NaN	NaN	NaN	NaN	NaN	NaN	NaN
1064.7872107999992	0.3003	sub-05	1	sequence	fixation	dot	NaN	NaN	NaN	NaN	NaN	NaN	NaN	NaN	NaN	NaN	NaN	NaN
1065.1048905999996	0.0992	sub-05	1	sequence	stimulus	Schuh	NaN	NaN	512.0	NaN	NaN	4.0	1.0	NaN	NaN	NaN	NaN	NaN
1065.2041215	0.517	sub-05	1	sequence	interval	dot	NaN	NaN	NaN	NaN	NaN	NaN	NaN	NaN	NaN	NaN	NaN	NaN
1065.7211429999998	0.1	sub-05	1	sequence	stimulus	Katze	NaN	NaN	512.0	NaN	NaN	3.0	2.0	NaN	NaN	NaN	NaN	NaN
1065.8211506999996	0.5172	sub-05	1	sequence	interval	dot	NaN	NaN	NaN	NaN	NaN	NaN	NaN	NaN	NaN	NaN	NaN	NaN
1066.3383760999996	0.1	sub-05	1	sequence	stimulus	Stuhl	NaN	NaN	512.0	NaN	NaN	5.0	3.0	NaN	NaN	NaN	NaN	NaN
1066.4383456999994	0.5172	sub-05	1	sequence	interval	dot	NaN	NaN	NaN	NaN	NaN	NaN	NaN	NaN	NaN	NaN	NaN	NaN
1066.9555514999993	0.1	sub-05	1	sequence	stimulus	Gesicht	NaN	NaN	512.0	NaN	NaN	1.0	4.0	NaN	NaN	NaN	NaN	NaN
1067.0555083	0.5171	sub-05	1	sequence	interval	dot	NaN	NaN	NaN	NaN	NaN	NaN	NaN	NaN	NaN	NaN	NaN	NaN
1067.5725710999995	0.0999	sub-05	1	sequence	stimulus	Haus	NaN	NaN	512.0	NaN	NaN	2.0	5.0	NaN	NaN	NaN	NaN	NaN
1067.6724947999992	0.5171	sub-05	1	sequence	interval	dot	NaN	NaN	NaN	NaN	NaN	NaN	NaN	NaN	NaN	NaN	NaN	NaN
1068.1896156999992	6.1701	sub-05	1	sequence	delay	dot	NaN	NaN	NaN	NaN	NaN	NaN	NaN	NaN	NaN	NaN	NaN	NaN
1074.3332978999997	0.7624	sub-05	1	sequence	choice	choice	left	NaN	NaN	-88.61153660000036	True	NaN	NaN	left	True	4.0	5.0	4.0
1075.0959550999996	0.4998	sub-05	1	sequence	feedback	NaN	NaN	NaN	NaN	NaN	NaN	NaN	NaN	NaN	NaN	NaN	NaN	NaN
1075.5960090999995	1.0004	sub-05	1	sequence	cue	Schuh	NaN	NaN	NaN	NaN	NaN	NaN	NaN	NaN	NaN	NaN	NaN	NaN
1076.5963677999998	2.0016	sub-05	1	sequence	blank	blank	NaN	NaN	NaN	NaN	NaN	NaN	NaN	NaN	NaN	NaN	NaN	NaN
1078.5979725999996	0.3004	sub-05	1	sequence	fixation	dot	NaN	NaN	NaN	NaN	NaN	NaN	NaN	NaN	NaN	NaN	NaN	NaN
1078.9166053999998	0.1151	sub-05	1	sequence	stimulus	Gesicht	NaN	NaN	32.0	NaN	NaN	1.0	1.0	NaN	NaN	NaN	NaN	NaN
1079.0317049999994	0.0334	sub-05	1	sequence	interval	dot	NaN	NaN	NaN	NaN	NaN	NaN	NaN	NaN	NaN	NaN	NaN	NaN
1079.0651423999998	0.1	sub-05	1	sequence	stimulus	Katze	NaN	NaN	32.0	NaN	NaN	3.0	2.0	NaN	NaN	NaN	NaN	NaN
1079.1650989	0.0335	sub-05	1	sequence	interval	dot	NaN	NaN	NaN	NaN	NaN	NaN	NaN	NaN	NaN	NaN	NaN	NaN
1079.1986185999997	0.0999	sub-05	1	sequence	stimulus	Haus	NaN	NaN	32.0	NaN	NaN	2.0	3.0	NaN	NaN	NaN	NaN	NaN
1079.2984932999998	0.0335	sub-05	1	sequence	interval	dot	NaN	NaN	NaN	NaN	NaN	NaN	NaN	NaN	NaN	NaN	NaN	NaN
1079.3320348999996	0.1	sub-05	1	sequence	stimulus	Schuh	NaN	NaN	32.0	NaN	NaN	4.0	4.0	NaN	NaN	NaN	NaN	NaN
1079.4320328999993	0.0334	sub-05	1	sequence	interval	dot	NaN	NaN	NaN	NaN	NaN	NaN	NaN	NaN	NaN	NaN	NaN	NaN
1079.4654678999996	0.1	sub-05	1	sequence	stimulus	Stuhl	NaN	NaN	32.0	NaN	NaN	5.0	5.0	NaN	NaN	NaN	NaN	NaN
1079.5654201999996	0.0333	sub-05	1	sequence	interval	dot	NaN	NaN	NaN	NaN	NaN	NaN	NaN	NaN	NaN	NaN	NaN	NaN
1079.5987115999997	8.539	sub-05	1	sequence	delay	dot	NaN	NaN	NaN	NaN	NaN	NaN	NaN	NaN	NaN	NaN	NaN	NaN
1088.1129782999997	0.7605	sub-05	1	sequence	choice	choice	left	NaN	NaN	-88.62153530000069	True	NaN	NaN	left	True	4.0	5.0	4.0
1088.8737707	0.4999	sub-05	1	sequence	feedback	NaN	NaN	NaN	NaN	NaN	NaN	NaN	NaN	NaN	NaN	NaN	NaN	NaN
1089.3738821999996	1.0003	sub-05	1	sequence	cue	Stuhl	NaN	NaN	NaN	NaN	NaN	NaN	NaN	NaN	NaN	NaN	NaN	NaN
1090.3741848	2.0017	sub-05	1	sequence	blank	blank	NaN	NaN	NaN	NaN	NaN	NaN	NaN	NaN	NaN	NaN	NaN	NaN
1092.3759372999994	0.3001	sub-05	1	sequence	fixation	dot	NaN	NaN	NaN	NaN	NaN	NaN	NaN	NaN	NaN	NaN	NaN	NaN
1092.6936294999996	0.0991	sub-05	1	sequence	stimulus	Haus	NaN	NaN	64.0	NaN	NaN	2.0	1.0	NaN	NaN	NaN	NaN	NaN
1092.7927701	0.0669	sub-05	1	sequence	interval	dot	NaN	NaN	NaN	NaN	NaN	NaN	NaN	NaN	NaN	NaN	NaN	NaN
1092.8597055	0.0999	sub-05	1	sequence	stimulus	Gesicht	NaN	NaN	64.0	NaN	NaN	1.0	2.0	NaN	NaN	NaN	NaN	NaN
1092.9595933	0.0668	sub-05	1	sequence	interval	dot	NaN	NaN	NaN	NaN	NaN	NaN	NaN	NaN	NaN	NaN	NaN	NaN
1093.0264150999992	0.1	sub-05	1	sequence	stimulus	Katze	NaN	NaN	64.0	NaN	NaN	3.0	3.0	NaN	NaN	NaN	NaN	NaN
1093.1264204999998	0.0668	sub-05	1	sequence	interval	dot	NaN	NaN	NaN	NaN	NaN	NaN	NaN	NaN	NaN	NaN	NaN	NaN
1093.193262299999	0.1	sub-05	1	sequence	stimulus	Schuh	NaN	NaN	64.0	NaN	NaN	4.0	4.0	NaN	NaN	NaN	NaN	NaN
1093.2932605999997	0.0668	sub-05	1	sequence	interval	dot	NaN	NaN	NaN	NaN	NaN	NaN	NaN	NaN	NaN	NaN	NaN	NaN
1093.3600350999995	0.1	sub-05	1	sequence	stimulus	Stuhl	NaN	NaN	64.0	NaN	NaN	5.0	5.0	NaN	NaN	NaN	NaN	NaN
1093.4600289999998	0.0667	sub-05	1	sequence	interval	dot	NaN	NaN	NaN	NaN	NaN	NaN	NaN	NaN	NaN	NaN	NaN	NaN
1093.5267086999993	8.3885	sub-05	1	sequence	delay	dot	NaN	NaN	NaN	NaN	NaN	NaN	NaN	NaN	NaN	NaN	NaN	NaN
1101.8926698999994	0.8089	sub-05	1	sequence	choice	choice	left	NaN	NaN	-88.56626800000049	True	NaN	NaN	left	True	5.0	3.0	5.0
1102.7018193999993	0.4999	sub-05	1	sequence	feedback	NaN	NaN	NaN	NaN	NaN	NaN	NaN	NaN	NaN	NaN	NaN	NaN	NaN
1103.2019707999998	1.0002	sub-05	1	sequence	cue	Haus	NaN	NaN	NaN	NaN	NaN	NaN	NaN	NaN	NaN	NaN	NaN	NaN
1104.2021642	2.0017	sub-05	1	sequence	blank	blank	NaN	NaN	NaN	NaN	NaN	NaN	NaN	NaN	NaN	NaN	NaN	NaN
1106.2038286999996	0.3003	sub-05	1	sequence	fixation	dot	NaN	NaN	NaN	NaN	NaN	NaN	NaN	NaN	NaN	NaN	NaN	NaN
1106.5217260999998	0.099	sub-05	1	sequence	stimulus	Schuh	NaN	NaN	64.0	NaN	NaN	4.0	1.0	NaN	NaN	NaN	NaN	NaN
1106.6207400999992	0.0669	sub-05	1	sequence	interval	dot	NaN	NaN	NaN	NaN	NaN	NaN	NaN	NaN	NaN	NaN	NaN	NaN
1106.6876506	0.1	sub-05	1	sequence	stimulus	Gesicht	NaN	NaN	64.0	NaN	NaN	1.0	2.0	NaN	NaN	NaN	NaN	NaN
1106.7876113999992	0.0668	sub-05	1	sequence	interval	dot	NaN	NaN	NaN	NaN	NaN	NaN	NaN	NaN	NaN	NaN	NaN	NaN
1106.8544119999997	0.1	sub-05	1	sequence	stimulus	Stuhl	NaN	NaN	64.0	NaN	NaN	5.0	3.0	NaN	NaN	NaN	NaN	NaN
1106.9544220999996	0.0669	sub-05	1	sequence	interval	dot	NaN	NaN	NaN	NaN	NaN	NaN	NaN	NaN	NaN	NaN	NaN	NaN
1107.0212815999994	0.0999	sub-05	1	sequence	stimulus	Katze	NaN	NaN	64.0	NaN	NaN	3.0	4.0	NaN	NaN	NaN	NaN	NaN
1107.1211747999996	0.0669	sub-05	1	sequence	interval	dot	NaN	NaN	NaN	NaN	NaN	NaN	NaN	NaN	NaN	NaN	NaN	NaN
1107.1880401	0.0999	sub-05	1	sequence	stimulus	Haus	NaN	NaN	64.0	NaN	NaN	2.0	5.0	NaN	NaN	NaN	NaN	NaN
1107.2879807	0.0667	sub-05	1	sequence	interval	dot	NaN	NaN	NaN	NaN	NaN	NaN	NaN	NaN	NaN	NaN	NaN	NaN
1107.3546941999994	8.3885	sub-05	1	sequence	delay	dot	NaN	NaN	NaN	NaN	NaN	NaN	NaN	NaN	NaN	NaN	NaN	NaN
1115.7244170999993	0.8883	sub-05	1	sequence	choice	choice	right	NaN	NaN	-88.47422640000059	True	NaN	NaN	right	True	4.0	5.0	5.0
1116.6129751	0.4998	sub-05	1	sequence	feedback	NaN	NaN	NaN	NaN	NaN	NaN	NaN	NaN	NaN	NaN	NaN	NaN	NaN
1120.9331678999995	0.4995	sub-05	1	localizer	stimulus	Haus	NaN	180	2.168621900000062	-88.32088030000068	True	NaN	NaN	NaN	NaN	NaN	NaN	NaN
1121.4160563999994	2.1686	sub-05	1	localizer	blank	interval	NaN	NaN	NaN	NaN	NaN	NaN	NaN	NaN	NaN	NaN	NaN	NaN
1123.8855882999997	0.5005	sub-05	1	localizer	stimulus	Haus	NaN	0	2.1680931000003056	NaN	True	NaN	NaN	NaN	NaN	NaN	NaN	NaN
1124.3687031999998	2.1681	sub-05	1	localizer	blank	interval	NaN	NaN	NaN	NaN	NaN	NaN	NaN	NaN	NaN	NaN	NaN	NaN
1126.8380361999998	0.4995	sub-05	1	localizer	stimulus	Gesicht	NaN	0	1.7679001000005883	NaN	True	NaN	NaN	NaN	NaN	NaN	NaN	NaN
1127.3210771999993	1.7679	sub-05	1	localizer	blank	interval	NaN	NaN	NaN	NaN	NaN	NaN	NaN	NaN	NaN	NaN	NaN	NaN
1129.390147499999	0.4995	sub-05	1	localizer	stimulus	Katze	NaN	0	1.7510200999995504	NaN	True	NaN	NaN	NaN	NaN	NaN	NaN	NaN
1129.8732074	1.751	sub-05	1	localizer	blank	interval	NaN	NaN	NaN	NaN	NaN	NaN	NaN	NaN	NaN	NaN	NaN	NaN
1131.9253235999995	0.4995	sub-05	1	localizer	stimulus	Schuh	NaN	0	1.60110200000031	NaN	True	NaN	NaN	NaN	NaN	NaN	NaN	NaN
1132.4083398999992	1.6011	sub-05	1	localizer	blank	interval	NaN	NaN	NaN	NaN	NaN	NaN	NaN	NaN	NaN	NaN	NaN	NaN
1134.3106128	0.4994	sub-05	1	localizer	stimulus	Haus	NaN	0	3.319239700000253	NaN	True	NaN	NaN	NaN	NaN	NaN	NaN	NaN
1134.7935928999996	3.3192	sub-05	1	localizer	blank	interval	NaN	NaN	NaN	NaN	NaN	NaN	NaN	NaN	NaN	NaN	NaN	NaN
1138.4139186999992	0.4995	sub-05	1	localizer	stimulus	Stuhl	NaN	0	3.0023416000003635	NaN	True	NaN	NaN	NaN	NaN	NaN	NaN	NaN
1138.8968516999994	3.0023	sub-05	1	localizer	blank	interval	NaN	NaN	NaN	NaN	NaN	NaN	NaN	NaN	NaN	NaN	NaN	NaN
1142.2003990999992	0.4994	sub-05	1	localizer	stimulus	Schuh	NaN	0	1.567865999999185	NaN	True	NaN	NaN	NaN	NaN	NaN	NaN	NaN
1142.6833441	1.5679	sub-05	1	localizer	blank	interval	NaN	NaN	NaN	NaN	NaN	NaN	NaN	NaN	NaN	NaN	NaN	NaN
1144.5522628999995	0.4996	sub-05	1	localizer	stimulus	Katze	NaN	0	2.318277699999271	NaN	True	NaN	NaN	NaN	NaN	NaN	NaN	NaN
1145.0352665	2.3183	sub-05	1	localizer	blank	interval	NaN	NaN	NaN	NaN	NaN	NaN	NaN	NaN	NaN	NaN	NaN	NaN
1147.6548888999996	0.4995	sub-05	1	localizer	stimulus	Gesicht	NaN	0	2.1016522999998415	NaN	True	NaN	NaN	NaN	NaN	NaN	NaN	NaN
1148.1377619999994	2.1017	sub-05	1	localizer	blank	interval	NaN	NaN	NaN	NaN	NaN	NaN	NaN	NaN	NaN	NaN	NaN	NaN
1150.5405928	0.4996	sub-05	1	localizer	stimulus	Stuhl	NaN	0	2.2516236000005847	NaN	True	NaN	NaN	NaN	NaN	NaN	NaN	NaN
1151.0235156999995	2.2516	sub-05	1	localizer	blank	interval	NaN	NaN	NaN	NaN	NaN	NaN	NaN	NaN	NaN	NaN	NaN	NaN
1153.5761555	0.4996	sub-05	1	localizer	stimulus	Stuhl	NaN	0	2.1351081000002523	NaN	True	NaN	NaN	NaN	NaN	NaN	NaN	NaN
1154.0590917999998	2.1351	sub-05	1	localizer	blank	interval	NaN	NaN	NaN	NaN	NaN	NaN	NaN	NaN	NaN	NaN	NaN	NaN
1156.4952232999997	0.4994	sub-05	1	localizer	stimulus	Katze	NaN	0	2.0348156000000017	NaN	True	NaN	NaN	NaN	NaN	NaN	NaN	NaN
1156.9781725999992	2.0348	sub-05	1	localizer	blank	interval	NaN	NaN	NaN	NaN	NaN	NaN	NaN	NaN	NaN	NaN	NaN	NaN
1159.3141726999993	0.4995	sub-05	1	localizer	stimulus	Katze	NaN	0	2.7355820000002495	NaN	True	NaN	NaN	NaN	NaN	NaN	NaN	NaN
1159.7970487999992	2.7356	sub-05	1	localizer	blank	interval	NaN	NaN	NaN	NaN	NaN	NaN	NaN	NaN	NaN	NaN	NaN	NaN
1162.8338942	0.4993	sub-05	1	localizer	stimulus	Haus	NaN	0	2.3517133000004833	NaN	True	NaN	NaN	NaN	NaN	NaN	NaN	NaN
