onset	duration	subject	session	condition	trial_type	stim_label	key_down	orientation	interval_time	response_time	accuracy	stim_index	serial_position	key_expected	key_pressed	choice_left	choice_right	choice_correct
1.27662810000038	1.3333	sub-21	1	instruction	instruction	language_selection	german	NaN	NaN	NaN	NaN	NaN	NaN	NaN	NaN	NaN	NaN	NaN
34.33638020000035	0.4996	sub-21	1	localizer	stimulus	Schuh	NaN	180	2.9687973000000056	0.6113277000004018	1.0	NaN	NaN	NaN	NaN	NaN	NaN	NaN
34.81951690000005	2.9688	sub-21	1	localizer	blank	interval	NaN	NaN	NaN	NaN	NaN	NaN	NaN	NaN	NaN	NaN	NaN	NaN
38.0893274	0.4995	sub-21	1	localizer	stimulus	Schuh	NaN	0	2.435212600000341	NaN	True	NaN	NaN	NaN	NaN	NaN	NaN	NaN
38.57227460000013	2.4352	sub-21	1	localizer	blank	interval	NaN	NaN	NaN	NaN	NaN	NaN	NaN	NaN	NaN	NaN	NaN	NaN
41.30860819999998	0.4995	sub-21	1	localizer	stimulus	Gesicht	NaN	180	1.9013586999999461	0.5833585000000312	True	NaN	NaN	NaN	NaN	NaN	NaN	NaN
41.79165120000016	1.9014	sub-21	1	localizer	blank	interval	NaN	NaN	NaN	NaN	NaN	NaN	NaN	NaN	NaN	NaN	NaN	NaN
43.99413460000051	0.4996	sub-21	1	localizer	stimulus	Haus	NaN	0	3.2192413999991913	0.6575650000004316	False	NaN	NaN	NaN	NaN	NaN	NaN	NaN
44.47707510000055	3.2192	sub-21	1	localizer	blank	interval	NaN	NaN	NaN	NaN	NaN	NaN	NaN	NaN	NaN	NaN	NaN	NaN
47.99733240000023	0.4995	sub-21	1	localizer	stimulus	Schuh	NaN	0	2.1015787999995226	NaN	True	NaN	NaN	NaN	NaN	NaN	NaN	NaN
48.4803109000004	2.1016	sub-21	1	localizer	blank	interval	NaN	NaN	NaN	NaN	NaN	NaN	NaN	NaN	NaN	NaN	NaN	NaN
50.88304810000045	0.4995	sub-21	1	localizer	stimulus	Haus	NaN	180	1.250892699999902	0.6246467000000848	True	NaN	NaN	NaN	NaN	NaN	NaN	NaN
51.36598430000049	1.2509	sub-21	1	localizer	blank	interval	NaN	NaN	NaN	NaN	NaN	NaN	NaN	NaN	NaN	NaN	NaN	NaN
52.91803059999984	0.4995	sub-21	1	localizer	stimulus	Haus	NaN	0	2.868917699999656	NaN	True	NaN	NaN	NaN	NaN	NaN	NaN	NaN
53.40111380000053	2.8689	sub-21	1	localizer	blank	interval	NaN	NaN	NaN	NaN	NaN	NaN	NaN	NaN	NaN	NaN	NaN	NaN
56.57106910000039	0.4975	sub-21	1	localizer	stimulus	Gesicht	NaN	0	2.787546300000031	0.5129409000001033	False	NaN	NaN	NaN	NaN	NaN	NaN	NaN
57.06858600000032	2.7875	sub-21	1	localizer	blank	interval	NaN	NaN	NaN	NaN	NaN	NaN	NaN	NaN	NaN	NaN	NaN	NaN
60.15722610000012	0.4995	sub-21	1	localizer	stimulus	Katze	NaN	0	2.285056500000792	NaN	True	NaN	NaN	NaN	NaN	NaN	NaN	NaN
60.64024299999983	2.2851	sub-21	1	localizer	blank	interval	NaN	NaN	NaN	NaN	NaN	NaN	NaN	NaN	NaN	NaN	NaN	NaN
63.226371100000506	0.4995	sub-21	1	localizer	stimulus	Gesicht	NaN	0	2.702031900000293	NaN	True	NaN	NaN	NaN	NaN	NaN	NaN	NaN
63.70939790000011	2.702	sub-21	1	localizer	blank	interval	NaN	NaN	NaN	NaN	NaN	NaN	NaN	NaN	NaN	NaN	NaN	NaN
66.71249360000002	0.4996	sub-21	1	localizer	stimulus	Stuhl	NaN	0	3.1691195000003063	NaN	True	NaN	NaN	NaN	NaN	NaN	NaN	NaN
67.19551030000002	3.1691	sub-21	1	localizer	blank	interval	NaN	NaN	NaN	NaN	NaN	NaN	NaN	NaN	NaN	NaN	NaN	NaN
70.66569100000015	0.4996	sub-21	1	localizer	stimulus	Stuhl	NaN	180	1.8681454999996276	0.6500614000005953	True	NaN	NaN	NaN	NaN	NaN	NaN	NaN
71.14864190000026	1.8681	sub-21	1	localizer	blank	interval	NaN	NaN	NaN	NaN	NaN	NaN	NaN	NaN	NaN	NaN	NaN	NaN
73.31784070000049	0.4996	sub-21	1	localizer	stimulus	Schuh	NaN	0	2.3018646999998964	NaN	True	NaN	NaN	NaN	NaN	NaN	NaN	NaN
73.80089750000025	2.3019	sub-21	1	localizer	blank	interval	NaN	NaN	NaN	NaN	NaN	NaN	NaN	NaN	NaN	NaN	NaN	NaN
76.40372939999997	0.4997	sub-21	1	localizer	stimulus	Stuhl	NaN	0	1.6512544000006528	NaN	True	NaN	NaN	NaN	NaN	NaN	NaN	NaN
76.8868180999998	1.6513	sub-21	1	localizer	blank	interval	NaN	NaN	NaN	NaN	NaN	NaN	NaN	NaN	NaN	NaN	NaN	NaN
78.8392644000005	0.4994	sub-21	1	localizer	stimulus	Haus	NaN	0	2.4516954000000624	NaN	True	NaN	NaN	NaN	NaN	NaN	NaN	NaN
79.32215439999982	2.4517	sub-21	1	localizer	blank	interval	NaN	NaN	NaN	NaN	NaN	NaN	NaN	NaN	NaN	NaN	NaN	NaN
82.0749506000002	0.4996	sub-21	1	localizer	stimulus	Stuhl	NaN	0	1.934685800000807	NaN	True	NaN	NaN	NaN	NaN	NaN	NaN	NaN
82.55799769999976	1.9347	sub-21	1	localizer	blank	interval	NaN	NaN	NaN	NaN	NaN	NaN	NaN	NaN	NaN	NaN	NaN	NaN
84.79381590000048	0.4995	sub-21	1	localizer	stimulus	Katze	NaN	0	2.9186395000006087	NaN	True	NaN	NaN	NaN	NaN	NaN	NaN	NaN
85.27707629999986	2.9186	sub-21	1	localizer	blank	interval	NaN	NaN	NaN	NaN	NaN	NaN	NaN	NaN	NaN	NaN	NaN	NaN
88.4968073	0.4995	sub-21	1	localizer	stimulus	Stuhl	NaN	0	3.352514500000325	NaN	True	NaN	NaN	NaN	NaN	NaN	NaN	NaN
88.9798337000002	3.3525	sub-21	1	localizer	blank	interval	NaN	NaN	NaN	NaN	NaN	NaN	NaN	NaN	NaN	NaN	NaN	NaN
92.63349170000038	0.4995	sub-21	1	localizer	stimulus	Gesicht	NaN	0	3.2691979000001226	NaN	True	NaN	NaN	NaN	NaN	NaN	NaN	NaN
93.11644729999988	3.2692	sub-21	1	localizer	blank	interval	NaN	NaN	NaN	NaN	NaN	NaN	NaN	NaN	NaN	NaN	NaN	NaN
96.68691070000024	0.4996	sub-21	1	localizer	stimulus	Gesicht	NaN	0	1.9682978000000872	NaN	True	NaN	NaN	NaN	NaN	NaN	NaN	NaN
97.16986150000048	1.9683	sub-21	1	localizer	blank	interval	NaN	NaN	NaN	NaN	NaN	NaN	NaN	NaN	NaN	NaN	NaN	NaN
99.43930730000012	0.4994	sub-21	1	localizer	stimulus	Schuh	NaN	0	2.1682664000000074	NaN	True	NaN	NaN	NaN	NaN	NaN	NaN	NaN
99.92214950000016	2.1683	sub-21	1	localizer	blank	interval	NaN	NaN	NaN	NaN	NaN	NaN	NaN	NaN	NaN	NaN	NaN	NaN
102.39137269999992	0.4997	sub-21	1	localizer	stimulus	Katze	NaN	0	1.9013692999997147	NaN	True	NaN	NaN	NaN	NaN	NaN	NaN	NaN
102.87441910000052	1.9014	sub-21	1	localizer	blank	interval	NaN	NaN	NaN	NaN	NaN	NaN	NaN	NaN	NaN	NaN	NaN	NaN
105.0768824000006	0.4995	sub-21	1	localizer	stimulus	Haus	NaN	0	2.251731700000164	NaN	True	NaN	NaN	NaN	NaN	NaN	NaN	NaN
105.55990910000035	2.2517	sub-21	1	localizer	blank	interval	NaN	NaN	NaN	NaN	NaN	NaN	NaN	NaN	NaN	NaN	NaN	NaN
108.11270890000014	0.4995	sub-21	1	localizer	stimulus	Katze	NaN	0	3.2858450000003216	NaN	True	NaN	NaN	NaN	NaN	NaN	NaN	NaN
108.59573180000008	3.2858	sub-21	1	localizer	blank	interval	NaN	NaN	NaN	NaN	NaN	NaN	NaN	NaN	NaN	NaN	NaN	NaN
112.18263910000042	0.4996	sub-21	1	localizer	stimulus	Katze	NaN	180	2.2016535000002335	0.5731661999998323	True	NaN	NaN	NaN	NaN	NaN	NaN	NaN
112.66565910000008	2.2017	sub-21	1	localizer	blank	interval	NaN	NaN	NaN	NaN	NaN	NaN	NaN	NaN	NaN	NaN	NaN	NaN
118.35384310000065	1.0005	sub-21	1	sequence	cue	Gesicht	NaN	NaN	NaN	NaN	NaN	NaN	NaN	NaN	NaN	NaN	NaN	NaN
119.35438630000044	2.0016	sub-21	1	sequence	blank	blank	NaN	NaN	NaN	NaN	NaN	NaN	NaN	NaN	NaN	NaN	NaN	NaN
121.35598320000008	0.3002	sub-21	1	sequence	fixation	dot	NaN	NaN	NaN	NaN	NaN	NaN	NaN	NaN	NaN	NaN	NaN	NaN
121.70430889999987	0.1019	sub-21	1	sequence	stimulus	Katze	NaN	NaN	128.0	NaN	NaN	3.0	1.0	NaN	NaN	NaN	NaN	NaN
121.80624790000002	0.1336	sub-21	1	sequence	interval	dot	NaN	NaN	NaN	NaN	NaN	NaN	NaN	NaN	NaN	NaN	NaN	NaN
121.93980230000034	0.0999	sub-21	1	sequence	stimulus	Schuh	NaN	NaN	128.0	NaN	NaN	4.0	2.0	NaN	NaN	NaN	NaN	NaN
122.03973980000046	0.1336	sub-21	1	sequence	interval	dot	NaN	NaN	NaN	NaN	NaN	NaN	NaN	NaN	NaN	NaN	NaN	NaN
122.1733320000003	0.1	sub-21	1	sequence	stimulus	Haus	NaN	NaN	128.0	NaN	NaN	2.0	3.0	NaN	NaN	NaN	NaN	NaN
122.27328390000002	0.1335	sub-21	1	sequence	interval	dot	NaN	NaN	NaN	NaN	NaN	NaN	NaN	NaN	NaN	NaN	NaN	NaN
122.40683290000015	0.1	sub-21	1	sequence	stimulus	Gesicht	NaN	NaN	128.0	NaN	NaN	1.0	4.0	NaN	NaN	NaN	NaN	NaN
122.50681489999988	0.1335	sub-21	1	sequence	interval	dot	NaN	NaN	NaN	NaN	NaN	NaN	NaN	NaN	NaN	NaN	NaN	NaN
122.64035270000022	0.1	sub-21	1	sequence	stimulus	Stuhl	NaN	NaN	128.0	NaN	NaN	5.0	5.0	NaN	NaN	NaN	NaN	NaN
122.7403248999999	0.1334	sub-21	1	sequence	interval	dot	NaN	NaN	NaN	NaN	NaN	NaN	NaN	NaN	NaN	NaN	NaN	NaN
122.8737541999999	8.0713	sub-21	1	sequence	delay	dot	NaN	NaN	NaN	NaN	NaN	NaN	NaN	NaN	NaN	NaN	NaN	NaN
130.9181391000002	1.0799	sub-21	1	sequence	choice	choice	left	NaN	NaN	1.0426401999993686	True	NaN	NaN	left	1.0	4.0	5.0	4.0
131.99835040000016	0.4999	sub-21	1	sequence	feedback	NaN	NaN	NaN	NaN	NaN	NaN	NaN	NaN	NaN	NaN	NaN	NaN	NaN
132.49842720000015	1.0006	sub-21	1	sequence	cue	Stuhl	NaN	NaN	NaN	NaN	NaN	NaN	NaN	NaN	NaN	NaN	NaN	NaN
133.49905350000063	2.0016	sub-21	1	sequence	blank	blank	NaN	NaN	NaN	NaN	NaN	NaN	NaN	NaN	NaN	NaN	NaN	NaN
135.50064930000008	0.3003	sub-21	1	sequence	fixation	dot	NaN	NaN	NaN	NaN	NaN	NaN	NaN	NaN	NaN	NaN	NaN	NaN
135.81992189999983	0.1144	sub-21	1	sequence	stimulus	Gesicht	NaN	NaN	64.0	NaN	NaN	1.0	1.0	NaN	NaN	NaN	NaN	NaN
135.93432159999975	0.0668	sub-21	1	sequence	interval	dot	NaN	NaN	NaN	NaN	NaN	NaN	NaN	NaN	NaN	NaN	NaN	NaN
136.0011559000004	0.1001	sub-21	1	sequence	stimulus	Katze	NaN	NaN	64.0	NaN	NaN	3.0	2.0	NaN	NaN	NaN	NaN	NaN
136.10121450000042	0.0667	sub-21	1	sequence	interval	dot	NaN	NaN	NaN	NaN	NaN	NaN	NaN	NaN	NaN	NaN	NaN	NaN
136.16793490000055	0.1	sub-21	1	sequence	stimulus	Stuhl	NaN	NaN	64.0	NaN	NaN	5.0	3.0	NaN	NaN	NaN	NaN	NaN
136.2679352000005	0.0668	sub-21	1	sequence	interval	dot	NaN	NaN	NaN	NaN	NaN	NaN	NaN	NaN	NaN	NaN	NaN	NaN
136.33478149999974	0.0999	sub-21	1	sequence	stimulus	Haus	NaN	NaN	64.0	NaN	NaN	2.0	4.0	NaN	NaN	NaN	NaN	NaN
136.4347269	0.0668	sub-21	1	sequence	interval	dot	NaN	NaN	NaN	NaN	NaN	NaN	NaN	NaN	NaN	NaN	NaN	NaN
136.50156250000057	0.1	sub-21	1	sequence	stimulus	Schuh	NaN	NaN	64.0	NaN	NaN	4.0	5.0	NaN	NaN	NaN	NaN	NaN
136.60154039999998	0.0667	sub-21	1	sequence	interval	dot	NaN	NaN	NaN	NaN	NaN	NaN	NaN	NaN	NaN	NaN	NaN	NaN
136.6682767000002	8.3882	sub-21	1	sequence	delay	dot	NaN	NaN	NaN	NaN	NaN	NaN	NaN	NaN	NaN	NaN	NaN	NaN
145.0358213999998	0.8568	sub-21	1	sequence	choice	choice	left	NaN	NaN	0.8195526999998037	True	NaN	NaN	left	True	3.0	4.0	3.0
145.89286830000037	0.5001	sub-21	1	sequence	feedback	NaN	NaN	NaN	NaN	NaN	NaN	NaN	NaN	NaN	NaN	NaN	NaN	NaN
146.3931647999998	1.0005	sub-21	1	sequence	cue	Stuhl	NaN	NaN	NaN	NaN	NaN	NaN	NaN	NaN	NaN	NaN	NaN	NaN
147.39363779999985	2.0016	sub-21	1	sequence	blank	blank	NaN	NaN	NaN	NaN	NaN	NaN	NaN	NaN	NaN	NaN	NaN	NaN
149.39523009999994	0.3002	sub-21	1	sequence	fixation	dot	NaN	NaN	NaN	NaN	NaN	NaN	NaN	NaN	NaN	NaN	NaN	NaN
149.71330080000007	0.1156	sub-21	1	sequence	stimulus	Schuh	NaN	NaN	512.0	NaN	NaN	4.0	1.0	NaN	NaN	NaN	NaN	NaN
149.82891860000018	0.5172	sub-21	1	sequence	interval	dot	NaN	NaN	NaN	NaN	NaN	NaN	NaN	NaN	NaN	NaN	NaN	NaN
150.3461017999998	0.0999	sub-21	1	sequence	stimulus	Katze	NaN	NaN	512.0	NaN	NaN	3.0	2.0	NaN	NaN	NaN	NaN	NaN
150.44605169999977	0.5172	sub-21	1	sequence	interval	dot	NaN	NaN	NaN	NaN	NaN	NaN	NaN	NaN	NaN	NaN	NaN	NaN
150.96326070000032	0.1	sub-21	1	sequence	stimulus	Gesicht	NaN	NaN	512.0	NaN	NaN	1.0	3.0	NaN	NaN	NaN	NaN	NaN
151.06325070000003	0.5172	sub-21	1	sequence	interval	dot	NaN	NaN	NaN	NaN	NaN	NaN	NaN	NaN	NaN	NaN	NaN	NaN
151.5804020000005	0.1	sub-21	1	sequence	stimulus	Stuhl	NaN	NaN	512.0	NaN	NaN	5.0	4.0	NaN	NaN	NaN	NaN	NaN
151.68038780000006	0.5172	sub-21	1	sequence	interval	dot	NaN	NaN	NaN	NaN	NaN	NaN	NaN	NaN	NaN	NaN	NaN	NaN
152.19760700000006	0.1	sub-21	1	sequence	stimulus	Haus	NaN	NaN	512.0	NaN	NaN	2.0	5.0	NaN	NaN	NaN	NaN	NaN
152.29756629999974	0.5171	sub-21	1	sequence	interval	dot	NaN	NaN	NaN	NaN	NaN	NaN	NaN	NaN	NaN	NaN	NaN	NaN
152.81469939999988	6.1529	sub-21	1	sequence	delay	dot	NaN	NaN	NaN	NaN	NaN	NaN	NaN	NaN	NaN	NaN	NaN	NaN
158.94554680000056	0.9419	sub-21	1	sequence	choice	choice	right	NaN	NaN	0.9163202999998248	True	NaN	NaN	right	True	2.0	4.0	4.0
159.887745	0.5	sub-21	1	sequence	feedback	NaN	NaN	NaN	NaN	NaN	NaN	NaN	NaN	NaN	NaN	NaN	NaN	NaN
160.38794719999987	1.0004	sub-21	1	sequence	cue	Schuh	NaN	NaN	NaN	NaN	NaN	NaN	NaN	NaN	NaN	NaN	NaN	NaN
161.38837779999994	2.0015	sub-21	1	sequence	blank	blank	NaN	NaN	NaN	NaN	NaN	NaN	NaN	NaN	NaN	NaN	NaN	NaN
163.38992440000038	0.3002	sub-21	1	sequence	fixation	dot	NaN	NaN	NaN	NaN	NaN	NaN	NaN	NaN	NaN	NaN	NaN	NaN
163.70903309999994	0.1145	sub-21	1	sequence	stimulus	Haus	NaN	NaN	32.0	NaN	NaN	2.0	1.0	NaN	NaN	NaN	NaN	NaN
163.82355220000045	0.0334	sub-21	1	sequence	interval	dot	NaN	NaN	NaN	NaN	NaN	NaN	NaN	NaN	NaN	NaN	NaN	NaN
163.85700199999974	0.1	sub-21	1	sequence	stimulus	Stuhl	NaN	NaN	32.0	NaN	NaN	5.0	2.0	NaN	NaN	NaN	NaN	NaN
163.95698360000006	0.0335	sub-21	1	sequence	interval	dot	NaN	NaN	NaN	NaN	NaN	NaN	NaN	NaN	NaN	NaN	NaN	NaN
163.9904673000001	0.1	sub-21	1	sequence	stimulus	Schuh	NaN	NaN	32.0	NaN	NaN	4.0	3.0	NaN	NaN	NaN	NaN	NaN
164.09042539999973	0.0335	sub-21	1	sequence	interval	dot	NaN	NaN	NaN	NaN	NaN	NaN	NaN	NaN	NaN	NaN	NaN	NaN
164.12391279999974	0.1	sub-21	1	sequence	stimulus	Gesicht	NaN	NaN	32.0	NaN	NaN	1.0	4.0	NaN	NaN	NaN	NaN	NaN
164.22387040000012	0.0335	sub-21	1	sequence	interval	dot	NaN	NaN	NaN	NaN	NaN	NaN	NaN	NaN	NaN	NaN	NaN	NaN
164.25741160000052	0.1	sub-21	1	sequence	stimulus	Katze	NaN	NaN	32.0	NaN	NaN	3.0	5.0	NaN	NaN	NaN	NaN	NaN
164.3573782000003	0.0333	sub-21	1	sequence	interval	dot	NaN	NaN	NaN	NaN	NaN	NaN	NaN	NaN	NaN	NaN	NaN	NaN
164.39066850000015	8.5385	sub-21	1	sequence	delay	dot	NaN	NaN	NaN	NaN	NaN	NaN	NaN	NaN	NaN	NaN	NaN	NaN
172.90742930000033	0.8077	sub-21	1	sequence	choice	choice	right	NaN	NaN	0.7786871999996947	True	NaN	NaN	right	True	5.0	3.0	3.0
173.71534950000023	0.5	sub-21	1	sequence	feedback	NaN	NaN	NaN	NaN	NaN	NaN	NaN	NaN	NaN	NaN	NaN	NaN	NaN
174.2156061000005	1.0005	sub-21	1	sequence	cue	Stuhl	NaN	NaN	NaN	NaN	NaN	NaN	NaN	NaN	NaN	NaN	NaN	NaN
175.21616280000035	2.0016	sub-21	1	sequence	blank	blank	NaN	NaN	NaN	NaN	NaN	NaN	NaN	NaN	NaN	NaN	NaN	NaN
177.2178109000006	0.3003	sub-21	1	sequence	fixation	dot	NaN	NaN	NaN	NaN	NaN	NaN	NaN	NaN	NaN	NaN	NaN	NaN
177.53553699999975	0.0992	sub-21	1	sequence	stimulus	Katze	NaN	NaN	128.0	NaN	NaN	3.0	1.0	NaN	NaN	NaN	NaN	NaN
177.63475600000038	0.1335	sub-21	1	sequence	interval	dot	NaN	NaN	NaN	NaN	NaN	NaN	NaN	NaN	NaN	NaN	NaN	NaN
177.7682865000006	0.1	sub-21	1	sequence	stimulus	Gesicht	NaN	NaN	128.0	NaN	NaN	1.0	2.0	NaN	NaN	NaN	NaN	NaN
177.86823989999994	0.1336	sub-21	1	sequence	interval	dot	NaN	NaN	NaN	NaN	NaN	NaN	NaN	NaN	NaN	NaN	NaN	NaN
178.00185610000062	0.0999	sub-21	1	sequence	stimulus	Schuh	NaN	NaN	128.0	NaN	NaN	4.0	3.0	NaN	NaN	NaN	NaN	NaN
178.10176330000013	0.1337	sub-21	1	sequence	interval	dot	NaN	NaN	NaN	NaN	NaN	NaN	NaN	NaN	NaN	NaN	NaN	NaN
178.23546869999973	0.0999	sub-21	1	sequence	stimulus	Stuhl	NaN	NaN	128.0	NaN	NaN	5.0	4.0	NaN	NaN	NaN	NaN	NaN
178.3353676000006	0.1336	sub-21	1	sequence	interval	dot	NaN	NaN	NaN	NaN	NaN	NaN	NaN	NaN	NaN	NaN	NaN	NaN
178.46898229999988	0.0998	sub-21	1	sequence	stimulus	Haus	NaN	NaN	128.0	NaN	NaN	2.0	5.0	NaN	NaN	NaN	NaN	NaN
178.56879709999976	0.1335	sub-21	1	sequence	interval	dot	NaN	NaN	NaN	NaN	NaN	NaN	NaN	NaN	NaN	NaN	NaN	NaN
178.70226879999973	8.0547	sub-21	1	sequence	delay	dot	NaN	NaN	NaN	NaN	NaN	NaN	NaN	NaN	NaN	NaN	NaN	NaN
186.7389604	0.8707	sub-21	1	sequence	choice	choice	left	NaN	NaN	0.8388660000000527	True	NaN	NaN	left	True	4.0	3.0	4.0
187.6099242	0.5	sub-21	1	sequence	feedback	NaN	NaN	NaN	NaN	NaN	NaN	NaN	NaN	NaN	NaN	NaN	NaN	NaN
188.11004670000057	1.0007	sub-21	1	sequence	cue	Haus	NaN	NaN	NaN	NaN	NaN	NaN	NaN	NaN	NaN	NaN	NaN	NaN
189.1107699000004	2.0017	sub-21	1	sequence	blank	blank	NaN	NaN	NaN	NaN	NaN	NaN	NaN	NaN	NaN	NaN	NaN	NaN
191.1124522	0.3002	sub-21	1	sequence	fixation	dot	NaN	NaN	NaN	NaN	NaN	NaN	NaN	NaN	NaN	NaN	NaN	NaN
191.43025279999983	0.0991	sub-21	1	sequence	stimulus	Gesicht	NaN	NaN	32.0	NaN	NaN	1.0	1.0	NaN	NaN	NaN	NaN	NaN
191.52932880000023	0.0335	sub-21	1	sequence	interval	dot	NaN	NaN	NaN	NaN	NaN	NaN	NaN	NaN	NaN	NaN	NaN	NaN
191.56278519999975	0.1	sub-21	1	sequence	stimulus	Stuhl	NaN	NaN	32.0	NaN	NaN	5.0	2.0	NaN	NaN	NaN	NaN	NaN
191.66276500000004	0.0335	sub-21	1	sequence	interval	dot	NaN	NaN	NaN	NaN	NaN	NaN	NaN	NaN	NaN	NaN	NaN	NaN
191.69623430000047	0.1013	sub-21	1	sequence	stimulus	Schuh	NaN	NaN	32.0	NaN	NaN	4.0	3.0	NaN	NaN	NaN	NaN	NaN
191.79752999999985	0.0321	sub-21	1	sequence	interval	dot	NaN	NaN	NaN	NaN	NaN	NaN	NaN	NaN	NaN	NaN	NaN	NaN
191.82967730000016	0.1	sub-21	1	sequence	stimulus	Katze	NaN	NaN	32.0	NaN	NaN	3.0	4.0	NaN	NaN	NaN	NaN	NaN
191.9296436000004	0.0335	sub-21	1	sequence	interval	dot	NaN	NaN	NaN	NaN	NaN	NaN	NaN	NaN	NaN	NaN	NaN	NaN
191.9631344999998	0.0999	sub-21	1	sequence	stimulus	Haus	NaN	NaN	32.0	NaN	NaN	2.0	5.0	NaN	NaN	NaN	NaN	NaN
192.06307890000065	0.0334	sub-21	1	sequence	interval	dot	NaN	NaN	NaN	NaN	NaN	NaN	NaN	NaN	NaN	NaN	NaN	NaN
192.09645999999972	8.5384	sub-21	1	sequence	delay	dot	NaN	NaN	NaN	NaN	NaN	NaN	NaN	NaN	NaN	NaN	NaN	NaN
200.62272290000053	1.1153	sub-21	1	sequence	choice	choice	right	NaN	NaN	1.0969769000002998	True	NaN	NaN	right	True	3.0	5.0	5.0
201.7382379999999	0.5	sub-21	1	sequence	feedback	NaN	NaN	NaN	NaN	NaN	NaN	NaN	NaN	NaN	NaN	NaN	NaN	NaN
202.23849539999992	1.0004	sub-21	1	sequence	cue	Haus	NaN	NaN	NaN	NaN	NaN	NaN	NaN	NaN	NaN	NaN	NaN	NaN
203.23893210000008	2.0016	sub-21	1	sequence	blank	blank	NaN	NaN	NaN	NaN	NaN	NaN	NaN	NaN	NaN	NaN	NaN	NaN
205.2405251	0.3003	sub-21	1	sequence	fixation	dot	NaN	NaN	NaN	NaN	NaN	NaN	NaN	NaN	NaN	NaN	NaN	NaN
205.5592575999999	0.1148	sub-21	1	sequence	stimulus	Stuhl	NaN	NaN	512.0	NaN	NaN	5.0	1.0	NaN	NaN	NaN	NaN	NaN
205.67408570000043	0.5173	sub-21	1	sequence	interval	dot	NaN	NaN	NaN	NaN	NaN	NaN	NaN	NaN	NaN	NaN	NaN	NaN
206.1913380000005	0.1014	sub-21	1	sequence	stimulus	Katze	NaN	NaN	512.0	NaN	NaN	3.0	2.0	NaN	NaN	NaN	NaN	NaN
206.29274520000035	0.5157	sub-21	1	sequence	interval	dot	NaN	NaN	NaN	NaN	NaN	NaN	NaN	NaN	NaN	NaN	NaN	NaN
206.80846680000013	0.1	sub-21	1	sequence	stimulus	Gesicht	NaN	NaN	512.0	NaN	NaN	1.0	3.0	NaN	NaN	NaN	NaN	NaN
206.90841760000055	0.5172	sub-21	1	sequence	interval	dot	NaN	NaN	NaN	NaN	NaN	NaN	NaN	NaN	NaN	NaN	NaN	NaN
207.4256151	0.1	sub-21	1	sequence	stimulus	Schuh	NaN	NaN	512.0	NaN	NaN	4.0	4.0	NaN	NaN	NaN	NaN	NaN
207.5256426000005	0.5172	sub-21	1	sequence	interval	dot	NaN	NaN	NaN	NaN	NaN	NaN	NaN	NaN	NaN	NaN	NaN	NaN
208.04282430000055	0.1	sub-21	1	sequence	stimulus	Haus	NaN	NaN	512.0	NaN	NaN	2.0	5.0	NaN	NaN	NaN	NaN	NaN
208.14286869999975	0.517	sub-21	1	sequence	interval	dot	NaN	NaN	NaN	NaN	NaN	NaN	NaN	NaN	NaN	NaN	NaN	NaN
208.65983060000053	6.153	sub-21	1	sequence	delay	dot	NaN	NaN	NaN	NaN	NaN	NaN	NaN	NaN	NaN	NaN	NaN	NaN
214.7924425000001	0.8232	sub-21	1	sequence	choice	choice	right	NaN	NaN	0.7909285000005184	True	NaN	NaN	right	True	1.0	5.0	5.0
215.61594440000044	0.5	sub-21	1	sequence	feedback	NaN	NaN	NaN	NaN	NaN	NaN	NaN	NaN	NaN	NaN	NaN	NaN	NaN
216.11611660000017	1.0007	sub-21	1	sequence	cue	Stuhl	NaN	NaN	NaN	NaN	NaN	NaN	NaN	NaN	NaN	NaN	NaN	NaN
217.1167839	2.0015	sub-21	1	sequence	blank	blank	NaN	NaN	NaN	NaN	NaN	NaN	NaN	NaN	NaN	NaN	NaN	NaN
219.1183363	0.3002	sub-21	1	sequence	fixation	dot	NaN	NaN	NaN	NaN	NaN	NaN	NaN	NaN	NaN	NaN	NaN	NaN
219.4360972000004	0.0992	sub-21	1	sequence	stimulus	Gesicht	NaN	NaN	64.0	NaN	NaN	1.0	1.0	NaN	NaN	NaN	NaN	NaN
219.5353328000001	0.0668	sub-21	1	sequence	interval	dot	NaN	NaN	NaN	NaN	NaN	NaN	NaN	NaN	NaN	NaN	NaN	NaN
219.60215049999988	0.1	sub-21	1	sequence	stimulus	Schuh	NaN	NaN	64.0	NaN	NaN	4.0	2.0	NaN	NaN	NaN	NaN	NaN
219.7021347	0.0668	sub-21	1	sequence	interval	dot	NaN	NaN	NaN	NaN	NaN	NaN	NaN	NaN	NaN	NaN	NaN	NaN
219.7689532000004	0.1	sub-21	1	sequence	stimulus	Katze	NaN	NaN	64.0	NaN	NaN	3.0	3.0	NaN	NaN	NaN	NaN	NaN
219.8689290000002	0.0668	sub-21	1	sequence	interval	dot	NaN	NaN	NaN	NaN	NaN	NaN	NaN	NaN	NaN	NaN	NaN	NaN
219.9357740000005	0.1	sub-21	1	sequence	stimulus	Haus	NaN	NaN	64.0	NaN	NaN	2.0	4.0	NaN	NaN	NaN	NaN	NaN
220.0357401000001	0.0668	sub-21	1	sequence	interval	dot	NaN	NaN	NaN	NaN	NaN	NaN	NaN	NaN	NaN	NaN	NaN	NaN
220.10254910000003	0.1	sub-21	1	sequence	stimulus	Stuhl	NaN	NaN	64.0	NaN	NaN	5.0	5.0	NaN	NaN	NaN	NaN	NaN
220.2025364000001	0.0667	sub-21	1	sequence	interval	dot	NaN	NaN	NaN	NaN	NaN	NaN	NaN	NaN	NaN	NaN	NaN	NaN
220.26926900000035	8.3884	sub-21	1	sequence	delay	dot	NaN	NaN	NaN	NaN	NaN	NaN	NaN	NaN	NaN	NaN	NaN	NaN
228.62460240000016	1.0191	sub-21	1	sequence	choice	choice	left	NaN	NaN	0.9701122999995276	True	NaN	NaN	left	True	5.0	3.0	5.0
229.6439569000004	0.5	sub-21	1	sequence	feedback	NaN	NaN	NaN	NaN	NaN	NaN	NaN	NaN	NaN	NaN	NaN	NaN	NaN
233.9646332000002	0.4994	sub-21	1	localizer	stimulus	Schuh	NaN	0	2.084898400000384	NaN	True	NaN	NaN	NaN	NaN	NaN	NaN	NaN
234.4474756999998	2.0849	sub-21	1	localizer	blank	interval	NaN	NaN	NaN	NaN	NaN	NaN	NaN	NaN	NaN	NaN	NaN	NaN
236.8335121	0.4995	sub-21	1	localizer	stimulus	Stuhl	NaN	180	2.702074799999508	0.6663591000005908	True	NaN	NaN	NaN	NaN	NaN	NaN	NaN
237.31648600000065	2.7021	sub-21	1	localizer	blank	interval	NaN	NaN	NaN	NaN	NaN	NaN	NaN	NaN	NaN	NaN	NaN	NaN
240.3197506000006	0.4994	sub-21	1	localizer	stimulus	Haus	NaN	0	2.5019206999996015	NaN	True	NaN	NaN	NaN	NaN	NaN	NaN	NaN
240.8026888000004	2.5019	sub-21	1	localizer	blank	interval	NaN	NaN	NaN	NaN	NaN	NaN	NaN	NaN	NaN	NaN	NaN	NaN
243.6057778000004	0.4996	sub-21	1	localizer	stimulus	Katze	NaN	0	2.668849999999992	NaN	True	NaN	NaN	NaN	NaN	NaN	NaN	NaN
244.0887825	2.6688	sub-21	1	localizer	blank	interval	NaN	NaN	NaN	NaN	NaN	NaN	NaN	NaN	NaN	NaN	NaN	NaN
247.05863070000032	0.4994	sub-21	1	localizer	stimulus	Schuh	NaN	180	2.4518083999992086	0.6010805000005348	True	NaN	NaN	NaN	NaN	NaN	NaN	NaN
247.54147830000056	2.4518	sub-21	1	localizer	blank	interval	NaN	NaN	NaN	NaN	NaN	NaN	NaN	NaN	NaN	NaN	NaN	NaN
250.29445020000003	0.4995	sub-21	1	localizer	stimulus	Gesicht	NaN	0	1.7679904999995415	NaN	True	NaN	NaN	NaN	NaN	NaN	NaN	NaN
250.77738490000047	1.768	sub-21	1	localizer	blank	interval	NaN	NaN	NaN	NaN	NaN	NaN	NaN	NaN	NaN	NaN	NaN	NaN
252.84652490000008	0.4994	sub-21	1	localizer	stimulus	Katze	NaN	0	2.5853158999998698	NaN	True	NaN	NaN	NaN	NaN	NaN	NaN	NaN
253.3294433000001	2.5853	sub-21	1	localizer	blank	interval	NaN	NaN	NaN	NaN	NaN	NaN	NaN	NaN	NaN	NaN	NaN	NaN
256.2159145000005	0.4995	sub-21	1	localizer	stimulus	Katze	NaN	0	2.7520930999999678	NaN	True	NaN	NaN	NaN	NaN	NaN	NaN	NaN
256.69888790000005	2.7521	sub-21	1	localizer	blank	interval	NaN	NaN	NaN	NaN	NaN	NaN	NaN	NaN	NaN	NaN	NaN	NaN
259.7521101000002	0.4995	sub-21	1	localizer	stimulus	Gesicht	NaN	0	1.7512818999993556	NaN	True	NaN	NaN	NaN	NaN	NaN	NaN	NaN
260.2350536000004	1.7513	sub-21	1	localizer	blank	interval	NaN	NaN	NaN	NaN	NaN	NaN	NaN	NaN	NaN	NaN	NaN	NaN
262.28751999999986	0.4995	sub-21	1	localizer	stimulus	Gesicht	NaN	0	3.21919810000054	NaN	True	NaN	NaN	NaN	NaN	NaN	NaN	NaN
262.7704826999998	3.2192	sub-21	1	localizer	blank	interval	NaN	NaN	NaN	NaN	NaN	NaN	NaN	NaN	NaN	NaN	NaN	NaN
266.30821970000034	0.5156	sub-21	1	localizer	stimulus	Haus	NaN	0	2.9520072000004802	NaN	True	NaN	NaN	NaN	NaN	NaN	NaN	NaN
266.77391499999976	2.952	sub-21	1	localizer	blank	interval	NaN	NaN	NaN	NaN	NaN	NaN	NaN	NaN	NaN	NaN	NaN	NaN
270.02708970000003	0.4995	sub-21	1	localizer	stimulus	Gesicht	NaN	0	1.6178509999999733	NaN	True	NaN	NaN	NaN	NaN	NaN	NaN	NaN
270.5100601000004	1.6179	sub-21	1	localizer	blank	interval	NaN	NaN	NaN	NaN	NaN	NaN	NaN	NaN	NaN	NaN	NaN	NaN
272.4290154	0.4995	sub-21	1	localizer	stimulus	Stuhl	NaN	0	1.7846298000004026	NaN	True	NaN	NaN	NaN	NaN	NaN	NaN	NaN
272.91207529999974	1.7846	sub-21	1	localizer	blank	interval	NaN	NaN	NaN	NaN	NaN	NaN	NaN	NaN	NaN	NaN	NaN	NaN
274.9977422000002	0.4995	sub-21	1	localizer	stimulus	Schuh	NaN	0	2.318437800000538	NaN	True	NaN	NaN	NaN	NaN	NaN	NaN	NaN
275.4807019	2.3184	sub-21	1	localizer	blank	interval	NaN	NaN	NaN	NaN	NaN	NaN	NaN	NaN	NaN	NaN	NaN	NaN
278.1002961000004	0.4995	sub-21	1	localizer	stimulus	Katze	NaN	0	2.201810700000351	NaN	True	NaN	NaN	NaN	NaN	NaN	NaN	NaN
278.58322450000014	2.2018	sub-21	1	localizer	blank	interval	NaN	NaN	NaN	NaN	NaN	NaN	NaN	NaN	NaN	NaN	NaN	NaN
281.0860437000001	0.4995	sub-21	1	localizer	stimulus	Haus	NaN	0	2.4351756999995473	NaN	True	NaN	NaN	NaN	NaN	NaN	NaN	NaN
281.5690018000005	2.4352	sub-21	1	localizer	blank	interval	NaN	NaN	NaN	NaN	NaN	NaN	NaN	NaN	NaN	NaN	NaN	NaN
284.3055611	0.4993	sub-21	1	localizer	stimulus	Haus	NaN	180	2.1683774000002813	0.6422484999993685	True	NaN	NaN	NaN	NaN	NaN	NaN	NaN
284.7882903999998	2.1684	sub-21	1	localizer	blank	interval	NaN	NaN	NaN	NaN	NaN	NaN	NaN	NaN	NaN	NaN	NaN	NaN
287.2585413000006	0.5156	sub-21	1	localizer	stimulus	Schuh	NaN	0	2.301601300000584	NaN	True	NaN	NaN	NaN	NaN	NaN	NaN	NaN
287.7408169	2.3016	sub-21	1	localizer	blank	interval	NaN	NaN	NaN	NaN	NaN	NaN	NaN	NaN	NaN	NaN	NaN	NaN
290.3435401000006	0.4995	sub-21	1	localizer	stimulus	Schuh	NaN	0	2.718796099999963	NaN	True	NaN	NaN	NaN	NaN	NaN	NaN	NaN
290.82647220000035	2.7188	sub-21	1	localizer	blank	interval	NaN	NaN	NaN	NaN	NaN	NaN	NaN	NaN	NaN	NaN	NaN	NaN
293.84640070000023	0.4995	sub-21	1	localizer	stimulus	Haus	NaN	0	2.4520026000000144	NaN	True	NaN	NaN	NaN	NaN	NaN	NaN	NaN
294.32931670000016	2.452	sub-21	1	localizer	blank	interval	NaN	NaN	NaN	NaN	NaN	NaN	NaN	NaN	NaN	NaN	NaN	NaN
297.08232229999976	0.4995	sub-21	1	localizer	stimulus	Stuhl	NaN	0	2.0183178999996017	NaN	True	NaN	NaN	NaN	NaN	NaN	NaN	NaN
297.5652218000005	2.0183	sub-21	1	localizer	blank	interval	NaN	NaN	NaN	NaN	NaN	NaN	NaN	NaN	NaN	NaN	NaN	NaN
299.88457000000017	0.4995	sub-21	1	localizer	stimulus	Stuhl	NaN	0	2.0849429999998392	NaN	True	NaN	NaN	NaN	NaN	NaN	NaN	NaN
300.36749450000025	2.0849	sub-21	1	localizer	blank	interval	NaN	NaN	NaN	NaN	NaN	NaN	NaN	NaN	NaN	NaN	NaN	NaN
302.7535371000004	0.4995	sub-21	1	localizer	stimulus	Katze	NaN	180	2.7521546999996644	0.5701858000002176	True	NaN	NaN	NaN	NaN	NaN	NaN	NaN
303.23649860000023	2.7522	sub-21	1	localizer	blank	interval	NaN	NaN	NaN	NaN	NaN	NaN	NaN	NaN	NaN	NaN	NaN	NaN
306.2898537000001	0.4995	sub-21	1	localizer	stimulus	Stuhl	NaN	0	2.585499499999969	NaN	True	NaN	NaN	NaN	NaN	NaN	NaN	NaN
306.7728777000002	2.5855	sub-21	1	localizer	blank	interval	NaN	NaN	NaN	NaN	NaN	NaN	NaN	NaN	NaN	NaN	NaN	NaN
309.6594248000001	0.4993	sub-21	1	localizer	stimulus	Gesicht	NaN	180	2.8854498999999123	0.6165346999996473	True	NaN	NaN	NaN	NaN	NaN	NaN	NaN
310.1421784000004	2.8854	sub-21	1	localizer	blank	interval	NaN	NaN	NaN	NaN	NaN	NaN	NaN	NaN	NaN	NaN	NaN	NaN
316.5141564000005	1.0006	sub-21	1	sequence	cue	Stuhl	NaN	NaN	NaN	NaN	NaN	NaN	NaN	NaN	NaN	NaN	NaN	NaN
317.5147137000004	2.0015	sub-21	1	sequence	blank	blank	NaN	NaN	NaN	NaN	NaN	NaN	NaN	NaN	NaN	NaN	NaN	NaN
319.5162543000006	0.3003	sub-21	1	sequence	fixation	dot	NaN	NaN	NaN	NaN	NaN	NaN	NaN	NaN	NaN	NaN	NaN	NaN
319.83404429999973	0.0992	sub-21	1	sequence	stimulus	Katze	NaN	NaN	128.0	NaN	NaN	3.0	1.0	NaN	NaN	NaN	NaN	NaN
319.9332639000004	0.1336	sub-21	1	sequence	interval	dot	NaN	NaN	NaN	NaN	NaN	NaN	NaN	NaN	NaN	NaN	NaN	NaN
320.0668168000002	0.1	sub-21	1	sequence	stimulus	Schuh	NaN	NaN	128.0	NaN	NaN	4.0	2.0	NaN	NaN	NaN	NaN	NaN
320.16677979999986	0.1335	sub-21	1	sequence	interval	dot	NaN	NaN	NaN	NaN	NaN	NaN	NaN	NaN	NaN	NaN	NaN	NaN
320.3003257999999	0.1	sub-21	1	sequence	stimulus	Haus	NaN	NaN	128.0	NaN	NaN	2.0	3.0	NaN	NaN	NaN	NaN	NaN
320.40028859999984	0.1336	sub-21	1	sequence	interval	dot	NaN	NaN	NaN	NaN	NaN	NaN	NaN	NaN	NaN	NaN	NaN	NaN
320.53385140000046	0.1	sub-21	1	sequence	stimulus	Gesicht	NaN	NaN	128.0	NaN	NaN	1.0	4.0	NaN	NaN	NaN	NaN	NaN
320.63388040000063	0.1336	sub-21	1	sequence	interval	dot	NaN	NaN	NaN	NaN	NaN	NaN	NaN	NaN	NaN	NaN	NaN	NaN
320.7674410999998	0.0999	sub-21	1	sequence	stimulus	Stuhl	NaN	NaN	128.0	NaN	NaN	5.0	5.0	NaN	NaN	NaN	NaN	NaN
320.8673905000005	0.1334	sub-21	1	sequence	interval	dot	NaN	NaN	NaN	NaN	NaN	NaN	NaN	NaN	NaN	NaN	NaN	NaN
321.0008163000002	8.0714	sub-21	1	sequence	delay	dot	NaN	NaN	NaN	NaN	NaN	NaN	NaN	NaN	NaN	NaN	NaN	NaN
329.0599892	0.8985	sub-21	1	sequence	choice	choice	left	NaN	NaN	0.8757027000001472	True	NaN	NaN	left	True	5.0	3.0	5.0
329.95881370000006	0.4999	sub-21	1	sequence	feedback	NaN	NaN	NaN	NaN	NaN	NaN	NaN	NaN	NaN	NaN	NaN	NaN	NaN
330.4588475999999	1.0005	sub-21	1	sequence	cue	Schuh	NaN	NaN	NaN	NaN	NaN	NaN	NaN	NaN	NaN	NaN	NaN	NaN
331.45934579999994	2.0016	sub-21	1	sequence	blank	blank	NaN	NaN	NaN	NaN	NaN	NaN	NaN	NaN	NaN	NaN	NaN	NaN
333.46097850000024	0.3002	sub-21	1	sequence	fixation	dot	NaN	NaN	NaN	NaN	NaN	NaN	NaN	NaN	NaN	NaN	NaN	NaN
333.7796235000005	0.1149	sub-21	1	sequence	stimulus	Gesicht	NaN	NaN	32.0	NaN	NaN	1.0	1.0	NaN	NaN	NaN	NaN	NaN
333.89455720000024	0.0336	sub-21	1	sequence	interval	dot	NaN	NaN	NaN	NaN	NaN	NaN	NaN	NaN	NaN	NaN	NaN	NaN
333.9281924000006	0.0999	sub-21	1	sequence	stimulus	Stuhl	NaN	NaN	32.0	NaN	NaN	5.0	2.0	NaN	NaN	NaN	NaN	NaN
334.02808950000053	0.0334	sub-21	1	sequence	interval	dot	NaN	NaN	NaN	NaN	NaN	NaN	NaN	NaN	NaN	NaN	NaN	NaN
334.0614417000006	0.1	sub-21	1	sequence	stimulus	Schuh	NaN	NaN	32.0	NaN	NaN	4.0	3.0	NaN	NaN	NaN	NaN	NaN
334.16142880000007	0.0335	sub-21	1	sequence	interval	dot	NaN	NaN	NaN	NaN	NaN	NaN	NaN	NaN	NaN	NaN	NaN	NaN
334.1949104000005	0.1	sub-21	1	sequence	stimulus	Katze	NaN	NaN	32.0	NaN	NaN	3.0	4.0	NaN	NaN	NaN	NaN	NaN
334.2949260000005	0.0335	sub-21	1	sequence	interval	dot	NaN	NaN	NaN	NaN	NaN	NaN	NaN	NaN	NaN	NaN	NaN	NaN
334.32837629999995	0.0999	sub-21	1	sequence	stimulus	Haus	NaN	NaN	32.0	NaN	NaN	2.0	5.0	NaN	NaN	NaN	NaN	NaN
334.4283015000001	0.0334	sub-21	1	sequence	interval	dot	NaN	NaN	NaN	NaN	NaN	NaN	NaN	NaN	NaN	NaN	NaN	NaN
334.4616708000003	8.5218	sub-21	1	sequence	delay	dot	NaN	NaN	NaN	NaN	NaN	NaN	NaN	NaN	NaN	NaN	NaN	NaN
342.9697581999999	0.7163	sub-21	1	sequence	choice	choice	right	NaN	NaN	0.6924732999996195	True	NaN	NaN	right	True	4.0	3.0	3.0
343.6862855999998	0.5	sub-21	1	sequence	feedback	NaN	NaN	NaN	NaN	NaN	NaN	NaN	NaN	NaN	NaN	NaN	NaN	NaN
344.1865506000004	1.0005	sub-21	1	sequence	cue	Schuh	NaN	NaN	NaN	NaN	NaN	NaN	NaN	NaN	NaN	NaN	NaN	NaN
345.1870730999999	2.0016	sub-21	1	sequence	blank	blank	NaN	NaN	NaN	NaN	NaN	NaN	NaN	NaN	NaN	NaN	NaN	NaN
347.1887164999998	0.3003	sub-21	1	sequence	fixation	dot	NaN	NaN	NaN	NaN	NaN	NaN	NaN	NaN	NaN	NaN	NaN	NaN
347.50737930000014	0.115	sub-21	1	sequence	stimulus	Gesicht	NaN	NaN	64.0	NaN	NaN	1.0	1.0	NaN	NaN	NaN	NaN	NaN
347.6223307	0.0669	sub-21	1	sequence	interval	dot	NaN	NaN	NaN	NaN	NaN	NaN	NaN	NaN	NaN	NaN	NaN	NaN
347.6891996000004	0.1	sub-21	1	sequence	stimulus	Katze	NaN	NaN	64.0	NaN	NaN	3.0	2.0	NaN	NaN	NaN	NaN	NaN
347.7891659000006	0.0669	sub-21	1	sequence	interval	dot	NaN	NaN	NaN	NaN	NaN	NaN	NaN	NaN	NaN	NaN	NaN	NaN
347.8560591000005	0.0999	sub-21	1	sequence	stimulus	Stuhl	NaN	NaN	64.0	NaN	NaN	5.0	3.0	NaN	NaN	NaN	NaN	NaN
347.95595909999975	0.0669	sub-21	1	sequence	interval	dot	NaN	NaN	NaN	NaN	NaN	NaN	NaN	NaN	NaN	NaN	NaN	NaN
348.0228606999999	0.0999	sub-21	1	sequence	stimulus	Haus	NaN	NaN	64.0	NaN	NaN	2.0	4.0	NaN	NaN	NaN	NaN	NaN
348.12279240000044	0.0669	sub-21	1	sequence	interval	dot	NaN	NaN	NaN	NaN	NaN	NaN	NaN	NaN	NaN	NaN	NaN	NaN
348.18968510000013	0.1	sub-21	1	sequence	stimulus	Schuh	NaN	NaN	64.0	NaN	NaN	4.0	5.0	NaN	NaN	NaN	NaN	NaN
348.2896418	0.0667	sub-21	1	sequence	interval	dot	NaN	NaN	NaN	NaN	NaN	NaN	NaN	NaN	NaN	NaN	NaN	NaN
348.35635939999975	8.3885	sub-21	1	sequence	delay	dot	NaN	NaN	NaN	NaN	NaN	NaN	NaN	NaN	NaN	NaN	NaN	NaN
356.72336600000017	1.0241	sub-21	1	sequence	choice	choice	left	NaN	NaN	0.9870147000001452	True	NaN	NaN	left	True	5.0	4.0	5.0
357.7477300999999	0.4999	sub-21	1	sequence	feedback	NaN	NaN	NaN	NaN	NaN	NaN	NaN	NaN	NaN	NaN	NaN	NaN	NaN
358.24789789999977	1.0006	sub-21	1	sequence	cue	Haus	NaN	NaN	NaN	NaN	NaN	NaN	NaN	NaN	NaN	NaN	NaN	NaN
359.2484886000002	2.0016	sub-21	1	sequence	blank	blank	NaN	NaN	NaN	NaN	NaN	NaN	NaN	NaN	NaN	NaN	NaN	NaN
361.2501296	0.3002	sub-21	1	sequence	fixation	dot	NaN	NaN	NaN	NaN	NaN	NaN	NaN	NaN	NaN	NaN	NaN	NaN
361.56784270000026	0.0992	sub-21	1	sequence	stimulus	Schuh	NaN	NaN	512.0	NaN	NaN	4.0	1.0	NaN	NaN	NaN	NaN	NaN
361.6670300000005	0.5172	sub-21	1	sequence	interval	dot	NaN	NaN	NaN	NaN	NaN	NaN	NaN	NaN	NaN	NaN	NaN	NaN
362.18422660000033	0.1	sub-21	1	sequence	stimulus	Katze	NaN	NaN	512.0	NaN	NaN	3.0	2.0	NaN	NaN	NaN	NaN	NaN
362.2841990000006	0.5172	sub-21	1	sequence	interval	dot	NaN	NaN	NaN	NaN	NaN	NaN	NaN	NaN	NaN	NaN	NaN	NaN
362.8014068000002	0.1	sub-21	1	sequence	stimulus	Gesicht	NaN	NaN	512.0	NaN	NaN	1.0	3.0	NaN	NaN	NaN	NaN	NaN
362.9013660999999	0.5172	sub-21	1	sequence	interval	dot	NaN	NaN	NaN	NaN	NaN	NaN	NaN	NaN	NaN	NaN	NaN	NaN
363.4185472999998	0.1	sub-21	1	sequence	stimulus	Stuhl	NaN	NaN	512.0	NaN	NaN	5.0	4.0	NaN	NaN	NaN	NaN	NaN
363.5185540000002	0.5172	sub-21	1	sequence	interval	dot	NaN	NaN	NaN	NaN	NaN	NaN	NaN	NaN	NaN	NaN	NaN	NaN
364.0357375000003	0.1	sub-21	1	sequence	stimulus	Haus	NaN	NaN	512.0	NaN	NaN	2.0	5.0	NaN	NaN	NaN	NaN	NaN
364.1356942000002	0.5171	sub-21	1	sequence	interval	dot	NaN	NaN	NaN	NaN	NaN	NaN	NaN	NaN	NaN	NaN	NaN	NaN
364.65279139999984	6.1699	sub-21	1	sequence	delay	dot	NaN	NaN	NaN	NaN	NaN	NaN	NaN	NaN	NaN	NaN	NaN	NaN
370.7896743000001	0.9861	sub-21	1	sequence	choice	choice	right	NaN	NaN	0.949322100000245	True	NaN	NaN	right	True	4.0	5.0	5.0
371.77601740000046	0.4999	sub-21	1	sequence	feedback	NaN	NaN	NaN	NaN	NaN	NaN	NaN	NaN	NaN	NaN	NaN	NaN	NaN
372.2761882000004	1.0004	sub-21	1	sequence	cue	Schuh	NaN	NaN	NaN	NaN	NaN	NaN	NaN	NaN	NaN	NaN	NaN	NaN
373.2765792	2.0016	sub-21	1	sequence	blank	blank	NaN	NaN	NaN	NaN	NaN	NaN	NaN	NaN	NaN	NaN	NaN	NaN
375.2781437000003	0.3003	sub-21	1	sequence	fixation	dot	NaN	NaN	NaN	NaN	NaN	NaN	NaN	NaN	NaN	NaN	NaN	NaN
375.59769229999984	0.1141	sub-21	1	sequence	stimulus	Haus	NaN	NaN	32.0	NaN	NaN	2.0	1.0	NaN	NaN	NaN	NaN	NaN
375.7118047000004	0.0334	sub-21	1	sequence	interval	dot	NaN	NaN	NaN	NaN	NaN	NaN	NaN	NaN	NaN	NaN	NaN	NaN
375.7452094999999	0.1	sub-21	1	sequence	stimulus	Stuhl	NaN	NaN	32.0	NaN	NaN	5.0	2.0	NaN	NaN	NaN	NaN	NaN
375.8452591000005	0.0335	sub-21	1	sequence	interval	dot	NaN	NaN	NaN	NaN	NaN	NaN	NaN	NaN	NaN	NaN	NaN	NaN
375.8787633000002	0.0999	sub-21	1	sequence	stimulus	Schuh	NaN	NaN	32.0	NaN	NaN	4.0	3.0	NaN	NaN	NaN	NaN	NaN
375.9786291	0.0335	sub-21	1	sequence	interval	dot	NaN	NaN	NaN	NaN	NaN	NaN	NaN	NaN	NaN	NaN	NaN	NaN
376.0121777000004	0.0999	sub-21	1	sequence	stimulus	Gesicht	NaN	NaN	32.0	NaN	NaN	1.0	4.0	NaN	NaN	NaN	NaN	NaN
376.1120546000002	0.0335	sub-21	1	sequence	interval	dot	NaN	NaN	NaN	NaN	NaN	NaN	NaN	NaN	NaN	NaN	NaN	NaN
376.1455526999998	0.0999	sub-21	1	sequence	stimulus	Katze	NaN	NaN	32.0	NaN	NaN	3.0	5.0	NaN	NaN	NaN	NaN	NaN
376.2454988	0.0334	sub-21	1	sequence	interval	dot	NaN	NaN	NaN	NaN	NaN	NaN	NaN	NaN	NaN	NaN	NaN	NaN
376.2788667000005	8.5552	sub-21	1	sequence	delay	dot	NaN	NaN	NaN	NaN	NaN	NaN	NaN	NaN	NaN	NaN	NaN	NaN
384.8031662000003	1.2672	sub-21	1	sequence	choice	choice	left	NaN	NaN	1.225948199999948	True	NaN	NaN	left	True	3.0	2.0	3.0
386.0706697000005	0.4999	sub-21	1	sequence	feedback	NaN	NaN	NaN	NaN	NaN	NaN	NaN	NaN	NaN	NaN	NaN	NaN	NaN
386.5706756999998	1.0007	sub-21	1	sequence	cue	Gesicht	NaN	NaN	NaN	NaN	NaN	NaN	NaN	NaN	NaN	NaN	NaN	NaN
387.5713661	2.0017	sub-21	1	sequence	blank	blank	NaN	NaN	NaN	NaN	NaN	NaN	NaN	NaN	NaN	NaN	NaN	NaN
389.5731121999997	0.3002	sub-21	1	sequence	fixation	dot	NaN	NaN	NaN	NaN	NaN	NaN	NaN	NaN	NaN	NaN	NaN	NaN
389.8929961000004	0.1137	sub-21	1	sequence	stimulus	Stuhl	NaN	NaN	512.0	NaN	NaN	5.0	1.0	NaN	NaN	NaN	NaN	NaN
390.0067393999998	0.5172	sub-21	1	sequence	interval	dot	NaN	NaN	NaN	NaN	NaN	NaN	NaN	NaN	NaN	NaN	NaN	NaN
390.52396300000055	0.1	sub-21	1	sequence	stimulus	Katze	NaN	NaN	512.0	NaN	NaN	3.0	2.0	NaN	NaN	NaN	NaN	NaN
390.6239397	0.5172	sub-21	1	sequence	interval	dot	NaN	NaN	NaN	NaN	NaN	NaN	NaN	NaN	NaN	NaN	NaN	NaN
391.1411263999999	0.1	sub-21	1	sequence	stimulus	Gesicht	NaN	NaN	512.0	NaN	NaN	1.0	3.0	NaN	NaN	NaN	NaN	NaN
391.2410983	0.5172	sub-21	1	sequence	interval	dot	NaN	NaN	NaN	NaN	NaN	NaN	NaN	NaN	NaN	NaN	NaN	NaN
391.7582782	0.1	sub-21	1	sequence	stimulus	Schuh	NaN	NaN	512.0	NaN	NaN	4.0	4.0	NaN	NaN	NaN	NaN	NaN
391.8582342999998	0.5174	sub-21	1	sequence	interval	dot	NaN	NaN	NaN	NaN	NaN	NaN	NaN	NaN	NaN	NaN	NaN	NaN
392.37563320000027	0.0999	sub-21	1	sequence	stimulus	Haus	NaN	NaN	512.0	NaN	NaN	2.0	5.0	NaN	NaN	NaN	NaN	NaN
392.4755667999998	0.5171	sub-21	1	sequence	interval	dot	NaN	NaN	NaN	NaN	NaN	NaN	NaN	NaN	NaN	NaN	NaN	NaN
392.9926985000002	6.1529	sub-21	1	sequence	delay	dot	NaN	NaN	NaN	NaN	NaN	NaN	NaN	NaN	NaN	NaN	NaN	NaN
399.1285342000001	1.0199	sub-21	1	sequence	choice	choice	right	NaN	NaN	0.994327099999282	True	NaN	NaN	right	True	4.0	3.0	3.0
400.1487023999998	0.4999	sub-21	1	sequence	feedback	NaN	NaN	NaN	NaN	NaN	NaN	NaN	NaN	NaN	NaN	NaN	NaN	NaN
400.64875269999993	1.0008	sub-21	1	sequence	cue	Stuhl	NaN	NaN	NaN	NaN	NaN	NaN	NaN	NaN	NaN	NaN	NaN	NaN
401.6495525	2.0015	sub-21	1	sequence	blank	blank	NaN	NaN	NaN	NaN	NaN	NaN	NaN	NaN	NaN	NaN	NaN	NaN
403.65103439999984	0.3002	sub-21	1	sequence	fixation	dot	NaN	NaN	NaN	NaN	NaN	NaN	NaN	NaN	NaN	NaN	NaN	NaN
403.9688028000001	0.0992	sub-21	1	sequence	stimulus	Gesicht	NaN	NaN	64.0	NaN	NaN	1.0	1.0	NaN	NaN	NaN	NaN	NaN
404.06803450000007	0.0668	sub-21	1	sequence	interval	dot	NaN	NaN	NaN	NaN	NaN	NaN	NaN	NaN	NaN	NaN	NaN	NaN
404.1348525000003	0.1	sub-21	1	sequence	stimulus	Schuh	NaN	NaN	64.0	NaN	NaN	4.0	2.0	NaN	NaN	NaN	NaN	NaN
404.2348346999997	0.0668	sub-21	1	sequence	interval	dot	NaN	NaN	NaN	NaN	NaN	NaN	NaN	NaN	NaN	NaN	NaN	NaN
404.3016807000004	0.1	sub-21	1	sequence	stimulus	Katze	NaN	NaN	64.0	NaN	NaN	3.0	3.0	NaN	NaN	NaN	NaN	NaN
404.4016483000005	0.0668	sub-21	1	sequence	interval	dot	NaN	NaN	NaN	NaN	NaN	NaN	NaN	NaN	NaN	NaN	NaN	NaN
404.4684966000005	0.0999	sub-21	1	sequence	stimulus	Haus	NaN	NaN	64.0	NaN	NaN	2.0	4.0	NaN	NaN	NaN	NaN	NaN
404.56843130000016	0.0668	sub-21	1	sequence	interval	dot	NaN	NaN	NaN	NaN	NaN	NaN	NaN	NaN	NaN	NaN	NaN	NaN
404.63527990000057	0.1	sub-21	1	sequence	stimulus	Stuhl	NaN	NaN	64.0	NaN	NaN	5.0	5.0	NaN	NaN	NaN	NaN	NaN
404.7352344000001	0.0667	sub-21	1	sequence	interval	dot	NaN	NaN	NaN	NaN	NaN	NaN	NaN	NaN	NaN	NaN	NaN	NaN
404.8019457999999	8.3886	sub-21	1	sequence	delay	dot	NaN	NaN	NaN	NaN	NaN	NaN	NaN	NaN	NaN	NaN	NaN	NaN
413.16820430000007	1.1752	sub-21	1	sequence	choice	choice	left	NaN	NaN	1.1413947000000917	True	NaN	NaN	left	True	5.0	4.0	5.0
414.3436619000004	0.4998	sub-21	1	sequence	feedback	NaN	NaN	NaN	NaN	NaN	NaN	NaN	NaN	NaN	NaN	NaN	NaN	NaN
414.8436093	1.0006	sub-21	1	sequence	cue	Haus	NaN	NaN	NaN	NaN	NaN	NaN	NaN	NaN	NaN	NaN	NaN	NaN
415.84426320000057	2.0016	sub-21	1	sequence	blank	blank	NaN	NaN	NaN	NaN	NaN	NaN	NaN	NaN	NaN	NaN	NaN	NaN
417.8458722000005	0.3003	sub-21	1	sequence	fixation	dot	NaN	NaN	NaN	NaN	NaN	NaN	NaN	NaN	NaN	NaN	NaN	NaN
418.1636726000006	0.0992	sub-21	1	sequence	stimulus	Katze	NaN	NaN	128.0	NaN	NaN	3.0	1.0	NaN	NaN	NaN	NaN	NaN
418.2628457999999	0.1336	sub-21	1	sequence	interval	dot	NaN	NaN	NaN	NaN	NaN	NaN	NaN	NaN	NaN	NaN	NaN	NaN
418.39640080000027	0.0999	sub-21	1	sequence	stimulus	Gesicht	NaN	NaN	128.0	NaN	NaN	1.0	2.0	NaN	NaN	NaN	NaN	NaN
418.4963470000002	0.1335	sub-21	1	sequence	interval	dot	NaN	NaN	NaN	NaN	NaN	NaN	NaN	NaN	NaN	NaN	NaN	NaN
418.6298946000006	0.1	sub-21	1	sequence	stimulus	Schuh	NaN	NaN	128.0	NaN	NaN	4.0	3.0	NaN	NaN	NaN	NaN	NaN
418.72990560000017	0.1335	sub-21	1	sequence	interval	dot	NaN	NaN	NaN	NaN	NaN	NaN	NaN	NaN	NaN	NaN	NaN	NaN
418.8634344000002	0.1	sub-21	1	sequence	stimulus	Stuhl	NaN	NaN	128.0	NaN	NaN	5.0	4.0	NaN	NaN	NaN	NaN	NaN
418.9634213999998	0.1336	sub-21	1	sequence	interval	dot	NaN	NaN	NaN	NaN	NaN	NaN	NaN	NaN	NaN	NaN	NaN	NaN
419.09697980000055	0.0999	sub-21	1	sequence	stimulus	Haus	NaN	NaN	128.0	NaN	NaN	2.0	5.0	NaN	NaN	NaN	NaN	NaN
419.1969227999998	0.1334	sub-21	1	sequence	interval	dot	NaN	NaN	NaN	NaN	NaN	NaN	NaN	NaN	NaN	NaN	NaN	NaN
419.33036710000033	8.0715	sub-21	1	sequence	delay	dot	NaN	NaN	NaN	NaN	NaN	NaN	NaN	NaN	NaN	NaN	NaN	NaN
427.3899071000005	0.8645	sub-21	1	sequence	choice	choice	right	NaN	NaN	0.8501517999993666	True	NaN	NaN	right	True	4.0	5.0	5.0
428.2546902000004	0.5	sub-21	1	sequence	feedback	NaN	NaN	NaN	NaN	NaN	NaN	NaN	NaN	NaN	NaN	NaN	NaN	NaN
428.7549974000003	19.1821	sub-21	1	other	break	break	NaN	NaN	NaN	NaN	NaN	NaN	NaN	NaN	NaN	NaN	NaN	NaN
451.7576846000002	0.4993	sub-21	1	localizer	stimulus	Stuhl	NaN	0	3.002701200000047	NaN	True	NaN	NaN	NaN	NaN	NaN	NaN	NaN
452.2569841000004	3.0027	sub-21	1	localizer	blank	interval	NaN	NaN	NaN	NaN	NaN	NaN	NaN	NaN	NaN	NaN	NaN	NaN
455.5608063	0.4996	sub-21	1	localizer	stimulus	Gesicht	NaN	0	3.252315100000544	NaN	True	NaN	NaN	NaN	NaN	NaN	NaN	NaN
456.0437474999999	3.2523	sub-21	1	localizer	blank	interval	NaN	NaN	NaN	NaN	NaN	NaN	NaN	NaN	NaN	NaN	NaN	NaN
459.5972179999999	0.4994	sub-21	1	localizer	stimulus	Haus	NaN	0	2.385121500000423	NaN	True	NaN	NaN	NaN	NaN	NaN	NaN	NaN
460.0801541000001	2.3851	sub-21	1	localizer	blank	interval	NaN	NaN	NaN	NaN	NaN	NaN	NaN	NaN	NaN	NaN	NaN	NaN
462.7664095	0.4995	sub-21	1	localizer	stimulus	Stuhl	NaN	0	3.4192966000000524	NaN	True	NaN	NaN	NaN	NaN	NaN	NaN	NaN
463.2493792000005	3.4193	sub-21	1	localizer	blank	interval	NaN	NaN	NaN	NaN	NaN	NaN	NaN	NaN	NaN	NaN	NaN	NaN
466.9698644	0.4995	sub-21	1	localizer	stimulus	Haus	NaN	0	3.2858673999999155	NaN	True	NaN	NaN	NaN	NaN	NaN	NaN	NaN
467.4527930000004	3.2859	sub-21	1	localizer	blank	interval	NaN	NaN	NaN	NaN	NaN	NaN	NaN	NaN	NaN	NaN	NaN	NaN
471.03981440000007	0.4995	sub-21	1	localizer	stimulus	Katze	NaN	0	1.8513617999997223	NaN	True	NaN	NaN	NaN	NaN	NaN	NaN	NaN
471.5227339000003	1.8514	sub-21	1	localizer	blank	interval	NaN	NaN	NaN	NaN	NaN	NaN	NaN	NaN	NaN	NaN	NaN	NaN
473.6753654000004	0.4995	sub-21	1	localizer	stimulus	Gesicht	NaN	0	2.2684623000005217	NaN	True	NaN	NaN	NaN	NaN	NaN	NaN	NaN
474.1583209999999	2.2685	sub-21	1	localizer	blank	interval	NaN	NaN	NaN	NaN	NaN	NaN	NaN	NaN	NaN	NaN	NaN	NaN
476.72797290000017	0.4995	sub-21	1	localizer	stimulus	Stuhl	NaN	180	2.8686422000000107	0.5638403000002654	True	NaN	NaN	NaN	NaN	NaN	NaN	NaN
477.2108942000005	2.8686	sub-21	1	localizer	blank	interval	NaN	NaN	NaN	NaN	NaN	NaN	NaN	NaN	NaN	NaN	NaN	NaN
480.3806937	0.4995	sub-21	1	localizer	stimulus	Katze	NaN	0	2.2849175000001196	NaN	True	NaN	NaN	NaN	NaN	NaN	NaN	NaN
480.8637329000003	2.2849	sub-21	1	localizer	blank	interval	NaN	NaN	NaN	NaN	NaN	NaN	NaN	NaN	NaN	NaN	NaN	NaN
483.4498205	0.4995	sub-21	1	localizer	stimulus	Haus	NaN	0	1.801325700000234	NaN	True	NaN	NaN	NaN	NaN	NaN	NaN	NaN
483.9328096999998	1.8013	sub-21	1	localizer	blank	interval	NaN	NaN	NaN	NaN	NaN	NaN	NaN	NaN	NaN	NaN	NaN	NaN
486.0352687000004	0.4995	sub-21	1	localizer	stimulus	Haus	NaN	180	3.335885600000381	0.664645400000154	True	NaN	NaN	NaN	NaN	NaN	NaN	NaN
486.5182120999998	3.3359	sub-21	1	localizer	blank	interval	NaN	NaN	NaN	NaN	NaN	NaN	NaN	NaN	NaN	NaN	NaN	NaN
490.1552435000003	0.4995	sub-21	1	localizer	stimulus	Schuh	NaN	0	2.98529039999994	NaN	True	NaN	NaN	NaN	NaN	NaN	NaN	NaN
490.6385398000002	2.9853	sub-21	1	localizer	blank	interval	NaN	NaN	NaN	NaN	NaN	NaN	NaN	NaN	NaN	NaN	NaN	NaN
493.9251890000005	0.4993	sub-21	1	localizer	stimulus	Katze	NaN	180	3.3027613000004408	0.5347012000001996	True	NaN	NaN	NaN	NaN	NaN	NaN	NaN
494.40798300000006	3.3028	sub-21	1	localizer	blank	interval	NaN	NaN	NaN	NaN	NaN	NaN	NaN	NaN	NaN	NaN	NaN	NaN
498.0118216000001	0.4994	sub-21	1	localizer	stimulus	Stuhl	NaN	0	1.5843725999993126	NaN	True	NaN	NaN	NaN	NaN	NaN	NaN	NaN
498.4946771000005	1.5844	sub-21	1	localizer	blank	interval	NaN	NaN	NaN	NaN	NaN	NaN	NaN	NaN	NaN	NaN	NaN	NaN
500.380228	0.4994	sub-21	1	localizer	stimulus	Schuh	NaN	0	2.4519836999998006	NaN	True	NaN	NaN	NaN	NaN	NaN	NaN	NaN
500.8631529000004	2.452	sub-21	1	localizer	blank	interval	NaN	NaN	NaN	NaN	NaN	NaN	NaN	NaN	NaN	NaN	NaN	NaN
503.6161314000001	0.4996	sub-21	1	localizer	stimulus	Schuh	NaN	180	2.668698200000108	0.5237115999998423	True	NaN	NaN	NaN	NaN	NaN	NaN	NaN
504.09909830000015	2.6687	sub-21	1	localizer	blank	interval	NaN	NaN	NaN	NaN	NaN	NaN	NaN	NaN	NaN	NaN	NaN	NaN
507.0689859000004	0.4994	sub-21	1	localizer	stimulus	Haus	NaN	0	2.06819010000072	NaN	True	NaN	NaN	NaN	NaN	NaN	NaN	NaN
507.5519162999999	2.0682	sub-21	1	localizer	blank	interval	NaN	NaN	NaN	NaN	NaN	NaN	NaN	NaN	NaN	NaN	NaN	NaN
509.9212674	0.4996	sub-21	1	localizer	stimulus	Gesicht	NaN	0	2.551954200000182	0.8025814000002356	False	NaN	NaN	NaN	NaN	NaN	NaN	NaN
510.4041962000001	2.552	sub-21	1	localizer	blank	interval	NaN	NaN	NaN	NaN	NaN	NaN	NaN	NaN	NaN	NaN	NaN	NaN
513.2572965999998	0.4995	sub-21	1	localizer	stimulus	Gesicht	NaN	0	2.3852654000002076	NaN	True	NaN	NaN	NaN	NaN	NaN	NaN	NaN
513.7402123000002	2.3853	sub-21	1	localizer	blank	interval	NaN	NaN	NaN	NaN	NaN	NaN	NaN	NaN	NaN	NaN	NaN	NaN
516.4265829000005	0.4996	sub-21	1	localizer	stimulus	Katze	NaN	0	2.6019325999996	NaN	True	NaN	NaN	NaN	NaN	NaN	NaN	NaN
516.9095775000005	2.6019	sub-21	1	localizer	blank	interval	NaN	NaN	NaN	NaN	NaN	NaN	NaN	NaN	NaN	NaN	NaN	NaN
519.8125852000003	0.4996	sub-21	1	localizer	stimulus	Katze	NaN	0	2.0683093999996345	NaN	True	NaN	NaN	NaN	NaN	NaN	NaN	NaN
520.2955602000002	2.0683	sub-21	1	localizer	blank	interval	NaN	NaN	NaN	NaN	NaN	NaN	NaN	NaN	NaN	NaN	NaN	NaN
522.6649083000002	0.4995	sub-21	1	localizer	stimulus	Schuh	NaN	0	1.5676904000001741	NaN	True	NaN	NaN	NaN	NaN	NaN	NaN	NaN
523.1479577999999	1.5677	sub-21	1	localizer	blank	interval	NaN	NaN	NaN	NaN	NaN	NaN	NaN	NaN	NaN	NaN	NaN	NaN
525.0168162999998	0.4996	sub-21	1	localizer	stimulus	Gesicht	NaN	180	3.302702500000123	0.7634502999999313	True	NaN	NaN	NaN	NaN	NaN	NaN	NaN
525.4997494999998	3.3027	sub-21	1	localizer	blank	interval	NaN	NaN	NaN	NaN	NaN	NaN	NaN	NaN	NaN	NaN	NaN	NaN
529.1034401000006	0.4996	sub-21	1	localizer	stimulus	Schuh	NaN	0	3.4692796000008457	NaN	True	NaN	NaN	NaN	NaN	NaN	NaN	NaN
529.5864450999998	3.4693	sub-21	1	localizer	blank	interval	NaN	NaN	NaN	NaN	NaN	NaN	NaN	NaN	NaN	NaN	NaN	NaN
533.3568874000002	0.4996	sub-21	1	localizer	stimulus	Stuhl	NaN	0	3.169198700000379	NaN	True	NaN	NaN	NaN	NaN	NaN	NaN	NaN
533.8399270999998	3.1692	sub-21	1	localizer	blank	interval	NaN	NaN	NaN	NaN	NaN	NaN	NaN	NaN	NaN	NaN	NaN	NaN
540.4954626999997	1.0005	sub-21	1	sequence	cue	Katze	NaN	NaN	NaN	NaN	NaN	NaN	NaN	NaN	NaN	NaN	NaN	NaN
541.4959377000005	2.0016	sub-21	1	sequence	blank	blank	NaN	NaN	NaN	NaN	NaN	NaN	NaN	NaN	NaN	NaN	NaN	NaN
543.4975724000005	0.3004	sub-21	1	sequence	fixation	dot	NaN	NaN	NaN	NaN	NaN	NaN	NaN	NaN	NaN	NaN	NaN	NaN
543.8154002000001	0.0992	sub-21	1	sequence	stimulus	Gesicht	NaN	NaN	32.0	NaN	NaN	1.0	1.0	NaN	NaN	NaN	NaN	NaN
543.9146363999998	0.0334	sub-21	1	sequence	interval	dot	NaN	NaN	NaN	NaN	NaN	NaN	NaN	NaN	NaN	NaN	NaN	NaN
543.9479977000001	0.1	sub-21	1	sequence	stimulus	Stuhl	NaN	NaN	32.0	NaN	NaN	5.0	2.0	NaN	NaN	NaN	NaN	NaN
544.0479824000004	0.0335	sub-21	1	sequence	interval	dot	NaN	NaN	NaN	NaN	NaN	NaN	NaN	NaN	NaN	NaN	NaN	NaN
544.0814416000003	0.1	sub-21	1	sequence	stimulus	Schuh	NaN	NaN	32.0	NaN	NaN	4.0	3.0	NaN	NaN	NaN	NaN	NaN
544.1814351000003	0.0334	sub-21	1	sequence	interval	dot	NaN	NaN	NaN	NaN	NaN	NaN	NaN	NaN	NaN	NaN	NaN	NaN
544.2148637999999	0.1	sub-21	1	sequence	stimulus	Katze	NaN	NaN	32.0	NaN	NaN	3.0	4.0	NaN	NaN	NaN	NaN	NaN
544.3148664999999	0.0335	sub-21	1	sequence	interval	dot	NaN	NaN	NaN	NaN	NaN	NaN	NaN	NaN	NaN	NaN	NaN	NaN
544.3483906000001	0.0999	sub-21	1	sequence	stimulus	Haus	NaN	NaN	32.0	NaN	NaN	2.0	5.0	NaN	NaN	NaN	NaN	NaN
544.4482968000002	0.0334	sub-21	1	sequence	interval	dot	NaN	NaN	NaN	NaN	NaN	NaN	NaN	NaN	NaN	NaN	NaN	NaN
544.4816835000001	8.5384	sub-21	1	sequence	delay	dot	NaN	NaN	NaN	NaN	NaN	NaN	NaN	NaN	NaN	NaN	NaN	NaN
552.9932681999999	1.0131	sub-21	1	sequence	choice	choice	right	NaN	NaN	0.975755699999354	True	NaN	NaN	right	True	3.0	4.0	4.0
554.0067219000002	0.4998	sub-21	1	sequence	feedback	NaN	NaN	NaN	NaN	NaN	NaN	NaN	NaN	NaN	NaN	NaN	NaN	NaN
554.5067638999999	1.0006	sub-21	1	sequence	cue	Stuhl	NaN	NaN	NaN	NaN	NaN	NaN	NaN	NaN	NaN	NaN	NaN	NaN
555.5073782999998	2.0016	sub-21	1	sequence	blank	blank	NaN	NaN	NaN	NaN	NaN	NaN	NaN	NaN	NaN	NaN	NaN	NaN
557.5089888000002	0.3003	sub-21	1	sequence	fixation	dot	NaN	NaN	NaN	NaN	NaN	NaN	NaN	NaN	NaN	NaN	NaN	NaN
557.8274941	0.1152	sub-21	1	sequence	stimulus	Schuh	NaN	NaN	512.0	NaN	NaN	4.0	1.0	NaN	NaN	NaN	NaN	NaN
557.9427107000001	0.5172	sub-21	1	sequence	interval	dot	NaN	NaN	NaN	NaN	NaN	NaN	NaN	NaN	NaN	NaN	NaN	NaN
558.4599447999999	0.0999	sub-21	1	sequence	stimulus	Katze	NaN	NaN	512.0	NaN	NaN	3.0	2.0	NaN	NaN	NaN	NaN	NaN
558.5598553	0.5172	sub-21	1	sequence	interval	dot	NaN	NaN	NaN	NaN	NaN	NaN	NaN	NaN	NaN	NaN	NaN	NaN
559.0770499	0.0999	sub-21	1	sequence	stimulus	Gesicht	NaN	NaN	512.0	NaN	NaN	1.0	3.0	NaN	NaN	NaN	NaN	NaN
559.1769861000002	0.5172	sub-21	1	sequence	interval	dot	NaN	NaN	NaN	NaN	NaN	NaN	NaN	NaN	NaN	NaN	NaN	NaN
559.6942304000004	0.1148	sub-21	1	sequence	stimulus	Stuhl	NaN	NaN	512.0	NaN	NaN	5.0	4.0	NaN	NaN	NaN	NaN	NaN
559.8090345	0.5192	sub-21	1	sequence	interval	dot	NaN	NaN	NaN	NaN	NaN	NaN	NaN	NaN	NaN	NaN	NaN	NaN
560.3282776000005	0.0999	sub-21	1	sequence	stimulus	Haus	NaN	NaN	512.0	NaN	NaN	2.0	5.0	NaN	NaN	NaN	NaN	NaN
560.4281295999999	0.5172	sub-21	1	sequence	interval	dot	NaN	NaN	NaN	NaN	NaN	NaN	NaN	NaN	NaN	NaN	NaN	NaN
560.9453141000004	6.1362	sub-21	1	sequence	delay	dot	NaN	NaN	NaN	NaN	NaN	NaN	NaN	NaN	NaN	NaN	NaN	NaN
567.0590084000005	0.9419	sub-21	1	sequence	choice	choice	right	NaN	NaN	0.9143115999995644	True	NaN	NaN	right	True	5.0	4.0	4.0
568.0011862000001	0.5	sub-21	1	sequence	feedback	NaN	NaN	NaN	NaN	NaN	NaN	NaN	NaN	NaN	NaN	NaN	NaN	NaN
568.5013989999998	1.0007	sub-21	1	sequence	cue	Schuh	NaN	NaN	NaN	NaN	NaN	NaN	NaN	NaN	NaN	NaN	NaN	NaN
569.5020871000006	2.0015	sub-21	1	sequence	blank	blank	NaN	NaN	NaN	NaN	NaN	NaN	NaN	NaN	NaN	NaN	NaN	NaN
571.503584	0.3002	sub-21	1	sequence	fixation	dot	NaN	NaN	NaN	NaN	NaN	NaN	NaN	NaN	NaN	NaN	NaN	NaN
571.8213950999998	0.0992	sub-21	1	sequence	stimulus	Gesicht	NaN	NaN	64.0	NaN	NaN	1.0	1.0	NaN	NaN	NaN	NaN	NaN
571.9205547000001	0.0669	sub-21	1	sequence	interval	dot	NaN	NaN	NaN	NaN	NaN	NaN	NaN	NaN	NaN	NaN	NaN	NaN
571.9874154999998	0.0999	sub-21	1	sequence	stimulus	Schuh	NaN	NaN	64.0	NaN	NaN	4.0	2.0	NaN	NaN	NaN	NaN	NaN
572.0873497000002	0.0668	sub-21	1	sequence	interval	dot	NaN	NaN	NaN	NaN	NaN	NaN	NaN	NaN	NaN	NaN	NaN	NaN
572.1541950000001	0.1	sub-21	1	sequence	stimulus	Katze	NaN	NaN	64.0	NaN	NaN	3.0	3.0	NaN	NaN	NaN	NaN	NaN
572.2541618000005	0.0669	sub-21	1	sequence	interval	dot	NaN	NaN	NaN	NaN	NaN	NaN	NaN	NaN	NaN	NaN	NaN	NaN
572.3210279000004	0.0999	sub-21	1	sequence	stimulus	Haus	NaN	NaN	64.0	NaN	NaN	2.0	4.0	NaN	NaN	NaN	NaN	NaN
572.4209596000001	0.0668	sub-21	1	sequence	interval	dot	NaN	NaN	NaN	NaN	NaN	NaN	NaN	NaN	NaN	NaN	NaN	NaN
572.4877926999998	0.1	sub-21	1	sequence	stimulus	Stuhl	NaN	NaN	64.0	NaN	NaN	5.0	5.0	NaN	NaN	NaN	NaN	NaN
572.5877651000001	0.0667	sub-21	1	sequence	interval	dot	NaN	NaN	NaN	NaN	NaN	NaN	NaN	NaN	NaN	NaN	NaN	NaN
572.6544860000004	8.3885	sub-21	1	sequence	delay	dot	NaN	NaN	NaN	NaN	NaN	NaN	NaN	NaN	NaN	NaN	NaN	NaN
581.0210569999999	0.7578	sub-21	1	sequence	choice	choice	right	NaN	NaN	0.7288908000000447	True	NaN	NaN	right	True	5.0	2.0	2.0
581.7791443000006	0.5	sub-21	1	sequence	feedback	NaN	NaN	NaN	NaN	NaN	NaN	NaN	NaN	NaN	NaN	NaN	NaN	NaN
582.2793692000005	1.0004	sub-21	1	sequence	cue	Stuhl	NaN	NaN	NaN	NaN	NaN	NaN	NaN	NaN	NaN	NaN	NaN	NaN
583.2797664	2.0016	sub-21	1	sequence	blank	blank	NaN	NaN	NaN	NaN	NaN	NaN	NaN	NaN	NaN	NaN	NaN	NaN
585.2813713000005	0.3003	sub-21	1	sequence	fixation	dot	NaN	NaN	NaN	NaN	NaN	NaN	NaN	NaN	NaN	NaN	NaN	NaN
585.6000177000005	0.115	sub-21	1	sequence	stimulus	Gesicht	NaN	NaN	64.0	NaN	NaN	1.0	1.0	NaN	NaN	NaN	NaN	NaN
585.7150323000005	0.0669	sub-21	1	sequence	interval	dot	NaN	NaN	NaN	NaN	NaN	NaN	NaN	NaN	NaN	NaN	NaN	NaN
585.7818898000005	0.1	sub-21	1	sequence	stimulus	Katze	NaN	NaN	64.0	NaN	NaN	3.0	2.0	NaN	NaN	NaN	NaN	NaN
585.8818916999999	0.0668	sub-21	1	sequence	interval	dot	NaN	NaN	NaN	NaN	NaN	NaN	NaN	NaN	NaN	NaN	NaN	NaN
585.9487018	0.1	sub-21	1	sequence	stimulus	Stuhl	NaN	NaN	64.0	NaN	NaN	5.0	3.0	NaN	NaN	NaN	NaN	NaN
586.0486596999999	0.0668	sub-21	1	sequence	interval	dot	NaN	NaN	NaN	NaN	NaN	NaN	NaN	NaN	NaN	NaN	NaN	NaN
586.1155042	0.1	sub-21	1	sequence	stimulus	Haus	NaN	NaN	64.0	NaN	NaN	2.0	4.0	NaN	NaN	NaN	NaN	NaN
586.2154655000004	0.0668	sub-21	1	sequence	interval	dot	NaN	NaN	NaN	NaN	NaN	NaN	NaN	NaN	NaN	NaN	NaN	NaN
586.2822827	0.1	sub-21	1	sequence	stimulus	Schuh	NaN	NaN	64.0	NaN	NaN	4.0	5.0	NaN	NaN	NaN	NaN	NaN
586.3822424999998	0.0668	sub-21	1	sequence	interval	dot	NaN	NaN	NaN	NaN	NaN	NaN	NaN	NaN	NaN	NaN	NaN	NaN
586.4490231999998	8.3716	sub-21	1	sequence	delay	dot	NaN	NaN	NaN	NaN	NaN	NaN	NaN	NaN	NaN	NaN	NaN	NaN
594.8009306000004	0.9891	sub-21	1	sequence	choice	choice	left	NaN	NaN	0.967343900000742	True	NaN	NaN	left	True	3.0	4.0	3.0
595.7902869	0.5	sub-21	1	sequence	feedback	NaN	NaN	NaN	NaN	NaN	NaN	NaN	NaN	NaN	NaN	NaN	NaN	NaN
596.2904631000001	1.0007	sub-21	1	sequence	cue	Katze	NaN	NaN	NaN	NaN	NaN	NaN	NaN	NaN	NaN	NaN	NaN	NaN
597.2911856000001	2.0016	sub-21	1	sequence	blank	blank	NaN	NaN	NaN	NaN	NaN	NaN	NaN	NaN	NaN	NaN	NaN	NaN
599.2927472000001	0.3003	sub-21	1	sequence	fixation	dot	NaN	NaN	NaN	NaN	NaN	NaN	NaN	NaN	NaN	NaN	NaN	NaN
599.6113451000001	0.1152	sub-21	1	sequence	stimulus	Haus	NaN	NaN	32.0	NaN	NaN	2.0	1.0	NaN	NaN	NaN	NaN	NaN
599.7265044000005	0.0335	sub-21	1	sequence	interval	dot	NaN	NaN	NaN	NaN	NaN	NaN	NaN	NaN	NaN	NaN	NaN	NaN
599.7599736000002	0.1	sub-21	1	sequence	stimulus	Stuhl	NaN	NaN	32.0	NaN	NaN	5.0	2.0	NaN	NaN	NaN	NaN	NaN
599.8599500999999	0.0335	sub-21	1	sequence	interval	dot	NaN	NaN	NaN	NaN	NaN	NaN	NaN	NaN	NaN	NaN	NaN	NaN
599.8934233999998	0.1	sub-21	1	sequence	stimulus	Schuh	NaN	NaN	32.0	NaN	NaN	4.0	3.0	NaN	NaN	NaN	NaN	NaN
599.9934174	0.0335	sub-21	1	sequence	interval	dot	NaN	NaN	NaN	NaN	NaN	NaN	NaN	NaN	NaN	NaN	NaN	NaN
600.0269073999998	0.0999	sub-21	1	sequence	stimulus	Gesicht	NaN	NaN	32.0	NaN	NaN	1.0	4.0	NaN	NaN	NaN	NaN	NaN
600.1268332	0.0335	sub-21	1	sequence	interval	dot	NaN	NaN	NaN	NaN	NaN	NaN	NaN	NaN	NaN	NaN	NaN	NaN
600.1603524000002	0.0999	sub-21	1	sequence	stimulus	Katze	NaN	NaN	32.0	NaN	NaN	3.0	5.0	NaN	NaN	NaN	NaN	NaN
600.2603011000001	0.0334	sub-21	1	sequence	interval	dot	NaN	NaN	NaN	NaN	NaN	NaN	NaN	NaN	NaN	NaN	NaN	NaN
600.2936785000002	8.5383	sub-21	1	sequence	delay	dot	NaN	NaN	NaN	NaN	NaN	NaN	NaN	NaN	NaN	NaN	NaN	NaN
608.8141510000005	0.837	sub-21	1	sequence	choice	choice	right	NaN	NaN	0.8118155000001934	True	NaN	NaN	right	True	3.0	5.0	5.0
609.6513382000003	0.5002	sub-21	1	sequence	feedback	NaN	NaN	NaN	NaN	NaN	NaN	NaN	NaN	NaN	NaN	NaN	NaN	NaN
610.1516354000005	1.0007	sub-21	1	sequence	cue	Stuhl	NaN	NaN	NaN	NaN	NaN	NaN	NaN	NaN	NaN	NaN	NaN	NaN
611.1523572000006	2.0017	sub-21	1	sequence	blank	blank	NaN	NaN	NaN	NaN	NaN	NaN	NaN	NaN	NaN	NaN	NaN	NaN
613.1541033000003	0.3002	sub-21	1	sequence	fixation	dot	NaN	NaN	NaN	NaN	NaN	NaN	NaN	NaN	NaN	NaN	NaN	NaN
613.4866577000003	0.101	sub-21	1	sequence	stimulus	Katze	NaN	NaN	128.0	NaN	NaN	3.0	1.0	NaN	NaN	NaN	NaN	NaN
613.5876317000002	0.1336	sub-21	1	sequence	interval	dot	NaN	NaN	NaN	NaN	NaN	NaN	NaN	NaN	NaN	NaN	NaN	NaN
613.7211902999998	0.1	sub-21	1	sequence	stimulus	Gesicht	NaN	NaN	128.0	NaN	NaN	1.0	2.0	NaN	NaN	NaN	NaN	NaN
613.8211452000005	0.1336	sub-21	1	sequence	interval	dot	NaN	NaN	NaN	NaN	NaN	NaN	NaN	NaN	NaN	NaN	NaN	NaN
613.9546956000004	0.1	sub-21	1	sequence	stimulus	Schuh	NaN	NaN	128.0	NaN	NaN	4.0	3.0	NaN	NaN	NaN	NaN	NaN
614.0547299	0.1335	sub-21	1	sequence	interval	dot	NaN	NaN	NaN	NaN	NaN	NaN	NaN	NaN	NaN	NaN	NaN	NaN
614.1882194999998	0.1	sub-21	1	sequence	stimulus	Stuhl	NaN	NaN	128.0	NaN	NaN	5.0	4.0	NaN	NaN	NaN	NaN	NaN
614.2882005000001	0.1336	sub-21	1	sequence	interval	dot	NaN	NaN	NaN	NaN	NaN	NaN	NaN	NaN	NaN	NaN	NaN	NaN
614.4217537000004	0.1	sub-21	1	sequence	stimulus	Haus	NaN	NaN	128.0	NaN	NaN	2.0	5.0	NaN	NaN	NaN	NaN	NaN
614.5217197000002	0.1339	sub-21	1	sequence	interval	dot	NaN	NaN	NaN	NaN	NaN	NaN	NaN	NaN	NaN	NaN	NaN	NaN
614.6556635000006	8.0543	sub-21	1	sequence	delay	dot	NaN	NaN	NaN	NaN	NaN	NaN	NaN	NaN	NaN	NaN	NaN	NaN
622.6977889	1.2487	sub-21	1	sequence	choice	choice	left	NaN	NaN	1.2219286999998076	True	NaN	NaN	left	True	4.0	5.0	4.0
623.9467709999999	0.4997	sub-21	1	sequence	feedback	NaN	NaN	NaN	NaN	NaN	NaN	NaN	NaN	NaN	NaN	NaN	NaN	NaN
624.4467626000005	1.0004	sub-21	1	sequence	cue	Schuh	NaN	NaN	NaN	NaN	NaN	NaN	NaN	NaN	NaN	NaN	NaN	NaN
625.4471776	2.0017	sub-21	1	sequence	blank	blank	NaN	NaN	NaN	NaN	NaN	NaN	NaN	NaN	NaN	NaN	NaN	NaN
627.4488849999998	0.3003	sub-21	1	sequence	fixation	dot	NaN	NaN	NaN	NaN	NaN	NaN	NaN	NaN	NaN	NaN	NaN	NaN
627.7674572000005	0.115	sub-21	1	sequence	stimulus	Stuhl	NaN	NaN	512.0	NaN	NaN	5.0	1.0	NaN	NaN	NaN	NaN	NaN
627.8825039000003	0.5172	sub-21	1	sequence	interval	dot	NaN	NaN	NaN	NaN	NaN	NaN	NaN	NaN	NaN	NaN	NaN	NaN
628.3997168000005	0.1	sub-21	1	sequence	stimulus	Katze	NaN	NaN	512.0	NaN	NaN	3.0	2.0	NaN	NaN	NaN	NaN	NaN
628.4996938000004	0.5172	sub-21	1	sequence	interval	dot	NaN	NaN	NaN	NaN	NaN	NaN	NaN	NaN	NaN	NaN	NaN	NaN
629.0168983000003	0.0999	sub-21	1	sequence	stimulus	Gesicht	NaN	NaN	512.0	NaN	NaN	1.0	3.0	NaN	NaN	NaN	NaN	NaN
629.1168413000005	0.5173	sub-21	1	sequence	interval	dot	NaN	NaN	NaN	NaN	NaN	NaN	NaN	NaN	NaN	NaN	NaN	NaN
629.6341157000006	0.0999	sub-21	1	sequence	stimulus	Schuh	NaN	NaN	512.0	NaN	NaN	4.0	4.0	NaN	NaN	NaN	NaN	NaN
629.7339966999998	0.5172	sub-21	1	sequence	interval	dot	NaN	NaN	NaN	NaN	NaN	NaN	NaN	NaN	NaN	NaN	NaN	NaN
630.2512377000003	0.0999	sub-21	1	sequence	stimulus	Haus	NaN	NaN	512.0	NaN	NaN	2.0	5.0	NaN	NaN	NaN	NaN	NaN
630.3511748000001	0.5171	sub-21	1	sequence	interval	dot	NaN	NaN	NaN	NaN	NaN	NaN	NaN	NaN	NaN	NaN	NaN	NaN
630.8682456000006	6.153	sub-21	1	sequence	delay	dot	NaN	NaN	NaN	NaN	NaN	NaN	NaN	NaN	NaN	NaN	NaN	NaN
636.9975033999999	1.0434	sub-21	1	sequence	choice	choice	left	NaN	NaN	1.0066359000002194	True	NaN	NaN	left	True	4.0	5.0	4.0
638.0412002000003	0.5001	sub-21	1	sequence	feedback	NaN	NaN	NaN	NaN	NaN	NaN	NaN	NaN	NaN	NaN	NaN	NaN	NaN
638.5414897	1.0005	sub-21	1	sequence	cue	Stuhl	NaN	NaN	NaN	NaN	NaN	NaN	NaN	NaN	NaN	NaN	NaN	NaN
639.5419738999999	2.0017	sub-21	1	sequence	blank	blank	NaN	NaN	NaN	NaN	NaN	NaN	NaN	NaN	NaN	NaN	NaN	NaN
641.5436731999998	0.3004	sub-21	1	sequence	fixation	dot	NaN	NaN	NaN	NaN	NaN	NaN	NaN	NaN	NaN	NaN	NaN	NaN
641.8621614000003	0.1152	sub-21	1	sequence	stimulus	Katze	NaN	NaN	128.0	NaN	NaN	3.0	1.0	NaN	NaN	NaN	NaN	NaN
641.9774111000006	0.1335	sub-21	1	sequence	interval	dot	NaN	NaN	NaN	NaN	NaN	NaN	NaN	NaN	NaN	NaN	NaN	NaN
642.1109388000004	0.1	sub-21	1	sequence	stimulus	Schuh	NaN	NaN	128.0	NaN	NaN	4.0	2.0	NaN	NaN	NaN	NaN	NaN
642.2108893000004	0.1336	sub-21	1	sequence	interval	dot	NaN	NaN	NaN	NaN	NaN	NaN	NaN	NaN	NaN	NaN	NaN	NaN
642.3444985000006	0.1	sub-21	1	sequence	stimulus	Haus	NaN	NaN	128.0	NaN	NaN	2.0	3.0	NaN	NaN	NaN	NaN	NaN
642.4445148000004	0.1335	sub-21	1	sequence	interval	dot	NaN	NaN	NaN	NaN	NaN	NaN	NaN	NaN	NaN	NaN	NaN	NaN
642.5779837999999	0.1	sub-21	1	sequence	stimulus	Gesicht	NaN	NaN	128.0	NaN	NaN	1.0	4.0	NaN	NaN	NaN	NaN	NaN
642.6779338000006	0.1335	sub-21	1	sequence	interval	dot	NaN	NaN	NaN	NaN	NaN	NaN	NaN	NaN	NaN	NaN	NaN	NaN
642.8114817000005	0.1	sub-21	1	sequence	stimulus	Stuhl	NaN	NaN	128.0	NaN	NaN	5.0	5.0	NaN	NaN	NaN	NaN	NaN
642.9114638000001	0.1348	sub-21	1	sequence	interval	dot	NaN	NaN	NaN	NaN	NaN	NaN	NaN	NaN	NaN	NaN	NaN	NaN
643.0462822	8.0698	sub-21	1	sequence	delay	dot	NaN	NaN	NaN	NaN	NaN	NaN	NaN	NaN	NaN	NaN	NaN	NaN
651.0892298999997	1.0464	sub-21	1	sequence	choice	choice	left	NaN	NaN	1.015812000000551	True	NaN	NaN	left	True	5.0	4.0	5.0
652.1359042000004	0.5	sub-21	1	sequence	feedback	NaN	NaN	NaN	NaN	NaN	NaN	NaN	NaN	NaN	NaN	NaN	NaN	NaN
656.4565880999999	0.4995	sub-21	1	localizer	stimulus	Haus	NaN	0	1.3677105999995547	NaN	True	NaN	NaN	NaN	NaN	NaN	NaN	NaN
656.9395154000003	1.3677	sub-21	1	localizer	blank	interval	NaN	NaN	NaN	NaN	NaN	NaN	NaN	NaN	NaN	NaN	NaN	NaN
658.6082722000001	0.4995	sub-21	1	localizer	stimulus	Haus	NaN	0	1.9181910999996035	NaN	True	NaN	NaN	NaN	NaN	NaN	NaN	NaN
659.0912358000005	1.9182	sub-21	1	localizer	blank	interval	NaN	NaN	NaN	NaN	NaN	NaN	NaN	NaN	NaN	NaN	NaN	NaN
661.3106532000002	0.4994	sub-21	1	localizer	stimulus	Schuh	NaN	0	1.8516238000001977	NaN	True	NaN	NaN	NaN	NaN	NaN	NaN	NaN
661.7934243999998	1.8516	sub-21	1	localizer	blank	interval	NaN	NaN	NaN	NaN	NaN	NaN	NaN	NaN	NaN	NaN	NaN	NaN
663.9460067999999	0.5142	sub-21	1	localizer	stimulus	Haus	NaN	180	1.8532791999996334	0.6339202000008299	True	NaN	NaN	NaN	NaN	NaN	NaN	NaN
664.4269805000004	1.8533	sub-21	1	localizer	blank	interval	NaN	NaN	NaN	NaN	NaN	NaN	NaN	NaN	NaN	NaN	NaN	NaN
666.5814187000005	0.4995	sub-21	1	localizer	stimulus	Katze	NaN	0	3.803027299999485	NaN	True	NaN	NaN	NaN	NaN	NaN	NaN	NaN
667.0643586000006	3.803	sub-21	1	localizer	blank	interval	NaN	NaN	NaN	NaN	NaN	NaN	NaN	NaN	NaN	NaN	NaN	NaN
671.1684348999997	0.4996	sub-21	1	localizer	stimulus	Katze	NaN	0	1.9680279999993218	NaN	True	NaN	NaN	NaN	NaN	NaN	NaN	NaN
671.6515045000006	1.968	sub-21	1	localizer	blank	interval	NaN	NaN	NaN	NaN	NaN	NaN	NaN	NaN	NaN	NaN	NaN	NaN
673.9206795999999	0.4995	sub-21	1	localizer	stimulus	Schuh	NaN	0	2.8855501999996704	NaN	True	NaN	NaN	NaN	NaN	NaN	NaN	NaN
674.4036104000006	2.8856	sub-21	1	localizer	blank	interval	NaN	NaN	NaN	NaN	NaN	NaN	NaN	NaN	NaN	NaN	NaN	NaN
677.5902919999999	0.4995	sub-21	1	localizer	stimulus	Stuhl	NaN	0	2.084795700000541	NaN	True	NaN	NaN	NaN	NaN	NaN	NaN	NaN
678.0733658999998	2.0848	sub-21	1	localizer	blank	interval	NaN	NaN	NaN	NaN	NaN	NaN	NaN	NaN	NaN	NaN	NaN	NaN
680.459331	0.4995	sub-21	1	localizer	stimulus	Schuh	NaN	0	2.151680199999646	NaN	True	NaN	NaN	NaN	NaN	NaN	NaN	NaN
680.9422183000006	2.1517	sub-21	1	localizer	blank	interval	NaN	NaN	NaN	NaN	NaN	NaN	NaN	NaN	NaN	NaN	NaN	NaN
683.3951229000004	0.4996	sub-21	1	localizer	stimulus	Gesicht	NaN	0	1.7346652999995058	NaN	True	NaN	NaN	NaN	NaN	NaN	NaN	NaN
683.8780855000005	1.7347	sub-21	1	localizer	blank	interval	NaN	NaN	NaN	NaN	NaN	NaN	NaN	NaN	NaN	NaN	NaN	NaN
685.9139184000005	0.4995	sub-21	1	localizer	stimulus	Schuh	NaN	0	3.0187319999995452	NaN	True	NaN	NaN	NaN	NaN	NaN	NaN	NaN
686.3968970000005	3.0187	sub-21	1	localizer	blank	interval	NaN	NaN	NaN	NaN	NaN	NaN	NaN	NaN	NaN	NaN	NaN	NaN
689.7168020999998	0.4995	sub-21	1	localizer	stimulus	Schuh	NaN	180	2.5519594999996116	0.65512630000012	True	NaN	NaN	NaN	NaN	NaN	NaN	NaN
690.1997347000006	2.552	sub-21	1	localizer	blank	interval	NaN	NaN	NaN	NaN	NaN	NaN	NaN	NaN	NaN	NaN	NaN	NaN
693.0528435000006	0.4995	sub-21	1	localizer	stimulus	Katze	NaN	0	2.5685932999995202	NaN	True	NaN	NaN	NaN	NaN	NaN	NaN	NaN
693.5357959000003	2.5686	sub-21	1	localizer	blank	interval	NaN	NaN	NaN	NaN	NaN	NaN	NaN	NaN	NaN	NaN	NaN	NaN
696.4055345000006	0.4995	sub-21	1	localizer	stimulus	Stuhl	NaN	180	2.9689471000001504	0.654552899999544	True	NaN	NaN	NaN	NaN	NaN	NaN	NaN
696.8885227999999	2.9689	sub-21	1	localizer	blank	interval	NaN	NaN	NaN	NaN	NaN	NaN	NaN	NaN	NaN	NaN	NaN	NaN
700.1585326000004	0.4996	sub-21	1	localizer	stimulus	Stuhl	NaN	0	2.8855583000004117	NaN	True	NaN	NaN	NaN	NaN	NaN	NaN	NaN
700.6415102999999	2.8856	sub-21	1	localizer	blank	interval	NaN	NaN	NaN	NaN	NaN	NaN	NaN	NaN	NaN	NaN	NaN	NaN
703.8283744	0.4995	sub-21	1	localizer	stimulus	Katze	NaN	0	2.6521508999994694	NaN	True	NaN	NaN	NaN	NaN	NaN	NaN	NaN
704.3113343000005	2.6522	sub-21	1	localizer	blank	interval	NaN	NaN	NaN	NaN	NaN	NaN	NaN	NaN	NaN	NaN	NaN	NaN
707.2646083	0.4994	sub-21	1	localizer	stimulus	Haus	NaN	0	2.0680301000002146	NaN	True	NaN	NaN	NaN	NaN	NaN	NaN	NaN
707.7474976000003	2.068	sub-21	1	localizer	blank	interval	NaN	NaN	NaN	NaN	NaN	NaN	NaN	NaN	NaN	NaN	NaN	NaN
710.116599	0.4996	sub-21	1	localizer	stimulus	Stuhl	NaN	0	2.4017839999996795	NaN	True	NaN	NaN	NaN	NaN	NaN	NaN	NaN
710.5996107000001	2.4018	sub-21	1	localizer	blank	interval	NaN	NaN	NaN	NaN	NaN	NaN	NaN	NaN	NaN	NaN	NaN	NaN
713.3025588	0.4996	sub-21	1	localizer	stimulus	Gesicht	NaN	180	2.88549090000015	0.5975318000000698	True	NaN	NaN	NaN	NaN	NaN	NaN	NaN
713.7855528999999	2.8855	sub-21	1	localizer	blank	interval	NaN	NaN	NaN	NaN	NaN	NaN	NaN	NaN	NaN	NaN	NaN	NaN
716.9721888000004	0.4997	sub-21	1	localizer	stimulus	Haus	NaN	0	1.8180676000001768	NaN	True	NaN	NaN	NaN	NaN	NaN	NaN	NaN
717.4551302	1.8181	sub-21	1	localizer	blank	interval	NaN	NaN	NaN	NaN	NaN	NaN	NaN	NaN	NaN	NaN	NaN	NaN
719.5742821000003	0.4995	sub-21	1	localizer	stimulus	Gesicht	NaN	0	2.38502569999946	NaN	True	NaN	NaN	NaN	NaN	NaN	NaN	NaN
720.0573367000006	2.385	sub-21	1	localizer	blank	interval	NaN	NaN	NaN	NaN	NaN	NaN	NaN	NaN	NaN	NaN	NaN	NaN
722.7435053999998	0.4995	sub-21	1	localizer	stimulus	Katze	NaN	180	2.335241799999494	0.668427999999949	True	NaN	NaN	NaN	NaN	NaN	NaN	NaN
723.2264436000005	2.3352	sub-21	1	localizer	blank	interval	NaN	NaN	NaN	NaN	NaN	NaN	NaN	NaN	NaN	NaN	NaN	NaN
725.8627882999999	0.4997	sub-21	1	localizer	stimulus	Gesicht	NaN	0	2.0849832000003516	NaN	True	NaN	NaN	NaN	NaN	NaN	NaN	NaN
726.3457908	2.085	sub-21	1	localizer	blank	interval	NaN	NaN	NaN	NaN	NaN	NaN	NaN	NaN	NaN	NaN	NaN	NaN
728.7319004999999	0.4993	sub-21	1	localizer	stimulus	Gesicht	NaN	0	2.0013207000001785	NaN	True	NaN	NaN	NaN	NaN	NaN	NaN	NaN
729.2149293000002	2.0013	sub-21	1	localizer	blank	interval	NaN	NaN	NaN	NaN	NaN	NaN	NaN	NaN	NaN	NaN	NaN	NaN
731.5174617000002	0.4993	sub-21	1	localizer	stimulus	Stuhl	NaN	0	2.5185835000002044	NaN	True	NaN	NaN	NaN	NaN	NaN	NaN	NaN
732.0002438000001	2.5186	sub-21	1	localizer	blank	interval	NaN	NaN	NaN	NaN	NaN	NaN	NaN	NaN	NaN	NaN	NaN	NaN
738.0052987999998	1.0006	sub-21	1	sequence	cue	Haus	NaN	NaN	NaN	NaN	NaN	NaN	NaN	NaN	NaN	NaN	NaN	NaN
739.0059308999998	2.0016	sub-21	1	sequence	blank	blank	NaN	NaN	NaN	NaN	NaN	NaN	NaN	NaN	NaN	NaN	NaN	NaN
741.0074962999997	0.3003	sub-21	1	sequence	fixation	dot	NaN	NaN	NaN	NaN	NaN	NaN	NaN	NaN	NaN	NaN	NaN	NaN
741.3259902999998	0.1151	sub-21	1	sequence	stimulus	Katze	NaN	NaN	128.0	NaN	NaN	3.0	1.0	NaN	NaN	NaN	NaN	NaN
741.4410937000002	0.1336	sub-21	1	sequence	interval	dot	NaN	NaN	NaN	NaN	NaN	NaN	NaN	NaN	NaN	NaN	NaN	NaN
741.5746977999997	0.0999	sub-21	1	sequence	stimulus	Schuh	NaN	NaN	128.0	NaN	NaN	4.0	2.0	NaN	NaN	NaN	NaN	NaN
741.6746289000002	0.1335	sub-21	1	sequence	interval	dot	NaN	NaN	NaN	NaN	NaN	NaN	NaN	NaN	NaN	NaN	NaN	NaN
741.8081406000001	0.1001	sub-21	1	sequence	stimulus	Haus	NaN	NaN	128.0	NaN	NaN	2.0	3.0	NaN	NaN	NaN	NaN	NaN
741.9082184999997	0.1335	sub-21	1	sequence	interval	dot	NaN	NaN	NaN	NaN	NaN	NaN	NaN	NaN	NaN	NaN	NaN	NaN
742.0417158999999	0.1	sub-21	1	sequence	stimulus	Gesicht	NaN	NaN	128.0	NaN	NaN	1.0	4.0	NaN	NaN	NaN	NaN	NaN
742.1416711000002	0.1336	sub-21	1	sequence	interval	dot	NaN	NaN	NaN	NaN	NaN	NaN	NaN	NaN	NaN	NaN	NaN	NaN
742.2752494000006	0.0999	sub-21	1	sequence	stimulus	Stuhl	NaN	NaN	128.0	NaN	NaN	5.0	5.0	NaN	NaN	NaN	NaN	NaN
742.3751781999999	0.1335	sub-21	1	sequence	interval	dot	NaN	NaN	NaN	NaN	NaN	NaN	NaN	NaN	NaN	NaN	NaN	NaN
742.5086398000003	8.0714	sub-21	1	sequence	delay	dot	NaN	NaN	NaN	NaN	NaN	NaN	NaN	NaN	NaN	NaN	NaN	NaN
750.5631492000002	1.0864	sub-21	1	sequence	choice	choice	left	NaN	NaN	1.0560056000003897	True	NaN	NaN	left	True	3.0	4.0	3.0
751.6499318000006	0.5	sub-21	1	sequence	feedback	NaN	NaN	NaN	NaN	NaN	NaN	NaN	NaN	NaN	NaN	NaN	NaN	NaN
752.1501776000005	1.0004	sub-21	1	sequence	cue	Schuh	NaN	NaN	NaN	NaN	NaN	NaN	NaN	NaN	NaN	NaN	NaN	NaN
753.1506158000002	2.0016	sub-21	1	sequence	blank	blank	NaN	NaN	NaN	NaN	NaN	NaN	NaN	NaN	NaN	NaN	NaN	NaN
755.1522653000002	0.3002	sub-21	1	sequence	fixation	dot	NaN	NaN	NaN	NaN	NaN	NaN	NaN	NaN	NaN	NaN	NaN	NaN
755.4700327999999	0.0992	sub-21	1	sequence	stimulus	Katze	NaN	NaN	128.0	NaN	NaN	3.0	1.0	NaN	NaN	NaN	NaN	NaN
755.5691981	0.1336	sub-21	1	sequence	interval	dot	NaN	NaN	NaN	NaN	NaN	NaN	NaN	NaN	NaN	NaN	NaN	NaN
755.7027708000005	0.1	sub-21	1	sequence	stimulus	Gesicht	NaN	NaN	128.0	NaN	NaN	1.0	2.0	NaN	NaN	NaN	NaN	NaN
755.8027351000001	0.1335	sub-21	1	sequence	interval	dot	NaN	NaN	NaN	NaN	NaN	NaN	NaN	NaN	NaN	NaN	NaN	NaN
755.9362760000004	0.1	sub-21	1	sequence	stimulus	Schuh	NaN	NaN	128.0	NaN	NaN	4.0	3.0	NaN	NaN	NaN	NaN	NaN
756.0362567000002	0.1335	sub-21	1	sequence	interval	dot	NaN	NaN	NaN	NaN	NaN	NaN	NaN	NaN	NaN	NaN	NaN	NaN
756.1697781000003	0.1	sub-21	1	sequence	stimulus	Stuhl	NaN	NaN	128.0	NaN	NaN	5.0	4.0	NaN	NaN	NaN	NaN	NaN
756.2697717000001	0.1336	sub-21	1	sequence	interval	dot	NaN	NaN	NaN	NaN	NaN	NaN	NaN	NaN	NaN	NaN	NaN	NaN
756.4033454999999	0.0999	sub-21	1	sequence	stimulus	Haus	NaN	NaN	128.0	NaN	NaN	2.0	5.0	NaN	NaN	NaN	NaN	NaN
756.503283	0.1335	sub-21	1	sequence	interval	dot	NaN	NaN	NaN	NaN	NaN	NaN	NaN	NaN	NaN	NaN	NaN	NaN
756.6367381999999	8.0716	sub-21	1	sequence	delay	dot	NaN	NaN	NaN	NaN	NaN	NaN	NaN	NaN	NaN	NaN	NaN	NaN
764.6808605000006	0.93	sub-21	1	sequence	choice	choice	right	NaN	NaN	0.8957732999997461	True	NaN	NaN	right	True	5.0	3.0	3.0
765.6111360000004	0.5001	sub-21	1	sequence	feedback	NaN	NaN	NaN	NaN	NaN	NaN	NaN	NaN	NaN	NaN	NaN	NaN	NaN
766.1115034000004	1.0006	sub-21	1	sequence	cue	Schuh	NaN	NaN	NaN	NaN	NaN	NaN	NaN	NaN	NaN	NaN	NaN	NaN
767.1120746000006	2.0016	sub-21	1	sequence	blank	blank	NaN	NaN	NaN	NaN	NaN	NaN	NaN	NaN	NaN	NaN	NaN	NaN
769.1136458000001	0.3003	sub-21	1	sequence	fixation	dot	NaN	NaN	NaN	NaN	NaN	NaN	NaN	NaN	NaN	NaN	NaN	NaN
769.4316737999998	0.1156	sub-21	1	sequence	stimulus	Gesicht	NaN	NaN	32.0	NaN	NaN	1.0	1.0	NaN	NaN	NaN	NaN	NaN
769.5473029000004	0.0335	sub-21	1	sequence	interval	dot	NaN	NaN	NaN	NaN	NaN	NaN	NaN	NaN	NaN	NaN	NaN	NaN
769.5808347000002	0.0999	sub-21	1	sequence	stimulus	Stuhl	NaN	NaN	32.0	NaN	NaN	5.0	2.0	NaN	NaN	NaN	NaN	NaN
769.6807798999998	0.0335	sub-21	1	sequence	interval	dot	NaN	NaN	NaN	NaN	NaN	NaN	NaN	NaN	NaN	NaN	NaN	NaN
769.7142703999998	0.1	sub-21	1	sequence	stimulus	Schuh	NaN	NaN	32.0	NaN	NaN	4.0	3.0	NaN	NaN	NaN	NaN	NaN
769.8142626999997	0.0335	sub-21	1	sequence	interval	dot	NaN	NaN	NaN	NaN	NaN	NaN	NaN	NaN	NaN	NaN	NaN	NaN
769.8477687000004	0.1	sub-21	1	sequence	stimulus	Katze	NaN	NaN	32.0	NaN	NaN	3.0	4.0	NaN	NaN	NaN	NaN	NaN
769.9477304000002	0.0335	sub-21	1	sequence	interval	dot	NaN	NaN	NaN	NaN	NaN	NaN	NaN	NaN	NaN	NaN	NaN	NaN
769.9812201000004	0.1	sub-21	1	sequence	stimulus	Haus	NaN	NaN	32.0	NaN	NaN	2.0	5.0	NaN	NaN	NaN	NaN	NaN
770.0811788999999	0.0334	sub-21	1	sequence	interval	dot	NaN	NaN	NaN	NaN	NaN	NaN	NaN	NaN	NaN	NaN	NaN	NaN
770.1145840999998	8.555	sub-21	1	sequence	delay	dot	NaN	NaN	NaN	NaN	NaN	NaN	NaN	NaN	NaN	NaN	NaN	NaN
778.6431184000003	1.1459	sub-21	1	sequence	choice	choice	left	NaN	NaN	1.118470299999899	False	NaN	NaN	right	True	4.0	3.0	3.0
779.7892304000006	0.5	sub-21	1	sequence	feedback	NaN	NaN	NaN	NaN	NaN	NaN	NaN	NaN	NaN	NaN	NaN	NaN	NaN
780.2894582999998	1.0006	sub-21	1	sequence	cue	Stuhl	NaN	NaN	NaN	NaN	NaN	NaN	NaN	NaN	NaN	NaN	NaN	NaN
781.2900675999999	2.0016	sub-21	1	sequence	blank	blank	NaN	NaN	NaN	NaN	NaN	NaN	NaN	NaN	NaN	NaN	NaN	NaN
783.2916848000004	0.3003	sub-21	1	sequence	fixation	dot	NaN	NaN	NaN	NaN	NaN	NaN	NaN	NaN	NaN	NaN	NaN	NaN
783.6102436000001	0.1151	sub-21	1	sequence	stimulus	Schuh	NaN	NaN	512.0	NaN	NaN	4.0	1.0	NaN	NaN	NaN	NaN	NaN
783.7253373000003	0.5172	sub-21	1	sequence	interval	dot	NaN	NaN	NaN	NaN	NaN	NaN	NaN	NaN	NaN	NaN	NaN	NaN
784.2425137999999	0.1	sub-21	1	sequence	stimulus	Katze	NaN	NaN	512.0	NaN	NaN	3.0	2.0	NaN	NaN	NaN	NaN	NaN
784.3425262999999	0.5172	sub-21	1	sequence	interval	dot	NaN	NaN	NaN	NaN	NaN	NaN	NaN	NaN	NaN	NaN	NaN	NaN
784.8597078000003	0.1	sub-21	1	sequence	stimulus	Gesicht	NaN	NaN	512.0	NaN	NaN	1.0	3.0	NaN	NaN	NaN	NaN	NaN
784.9596603999998	0.5172	sub-21	1	sequence	interval	dot	NaN	NaN	NaN	NaN	NaN	NaN	NaN	NaN	NaN	NaN	NaN	NaN
785.4768647000001	0.1	sub-21	1	sequence	stimulus	Stuhl	NaN	NaN	512.0	NaN	NaN	5.0	4.0	NaN	NaN	NaN	NaN	NaN
785.5768305000001	0.5172	sub-21	1	sequence	interval	dot	NaN	NaN	NaN	NaN	NaN	NaN	NaN	NaN	NaN	NaN	NaN	NaN
786.0940283999998	0.1	sub-21	1	sequence	stimulus	Haus	NaN	NaN	512.0	NaN	NaN	2.0	5.0	NaN	NaN	NaN	NaN	NaN
786.1939864000005	0.5172	sub-21	1	sequence	interval	dot	NaN	NaN	NaN	NaN	NaN	NaN	NaN	NaN	NaN	NaN	NaN	NaN
786.7111503000006	6.1532	sub-21	1	sequence	delay	dot	NaN	NaN	NaN	NaN	NaN	NaN	NaN	NaN	NaN	NaN	NaN	NaN
792.8383309000001	0.8786	sub-21	1	sequence	choice	choice	right	NaN	NaN	0.851661900000181	True	NaN	NaN	right	True	5.0	4.0	4.0
793.7171558	0.5001	sub-21	1	sequence	feedback	NaN	NaN	NaN	NaN	NaN	NaN	NaN	NaN	NaN	NaN	NaN	NaN	NaN
794.2173696999998	1.0006	sub-21	1	sequence	cue	Stuhl	NaN	NaN	NaN	NaN	NaN	NaN	NaN	NaN	NaN	NaN	NaN	NaN
795.2179904000004	2.0016	sub-21	1	sequence	blank	blank	NaN	NaN	NaN	NaN	NaN	NaN	NaN	NaN	NaN	NaN	NaN	NaN
797.2196396999998	0.3003	sub-21	1	sequence	fixation	dot	NaN	NaN	NaN	NaN	NaN	NaN	NaN	NaN	NaN	NaN	NaN	NaN
797.5374139000005	0.0992	sub-21	1	sequence	stimulus	Gesicht	NaN	NaN	64.0	NaN	NaN	1.0	1.0	NaN	NaN	NaN	NaN	NaN
797.6365842000005	0.0669	sub-21	1	sequence	interval	dot	NaN	NaN	NaN	NaN	NaN	NaN	NaN	NaN	NaN	NaN	NaN	NaN
797.7034342000006	0.1	sub-21	1	sequence	stimulus	Katze	NaN	NaN	64.0	NaN	NaN	3.0	2.0	NaN	NaN	NaN	NaN	NaN
797.8033879000004	0.0668	sub-21	1	sequence	interval	dot	NaN	NaN	NaN	NaN	NaN	NaN	NaN	NaN	NaN	NaN	NaN	NaN
797.8702198999999	0.1	sub-21	1	sequence	stimulus	Stuhl	NaN	NaN	64.0	NaN	NaN	5.0	3.0	NaN	NaN	NaN	NaN	NaN
797.9702126000002	0.0669	sub-21	1	sequence	interval	dot	NaN	NaN	NaN	NaN	NaN	NaN	NaN	NaN	NaN	NaN	NaN	NaN
798.0370650000004	0.0999	sub-21	1	sequence	stimulus	Haus	NaN	NaN	64.0	NaN	NaN	2.0	4.0	NaN	NaN	NaN	NaN	NaN
798.1369882999998	0.0668	sub-21	1	sequence	interval	dot	NaN	NaN	NaN	NaN	NaN	NaN	NaN	NaN	NaN	NaN	NaN	NaN
798.2038198	0.1	sub-21	1	sequence	stimulus	Schuh	NaN	NaN	64.0	NaN	NaN	4.0	5.0	NaN	NaN	NaN	NaN	NaN
798.3038069000004	0.0667	sub-21	1	sequence	interval	dot	NaN	NaN	NaN	NaN	NaN	NaN	NaN	NaN	NaN	NaN	NaN	NaN
798.3705436	8.3716	sub-21	1	sequence	delay	dot	NaN	NaN	NaN	NaN	NaN	NaN	NaN	NaN	NaN	NaN	NaN	NaN
806.7220197000006	1.0062	sub-21	1	sequence	choice	choice	left	NaN	NaN	0.9740124999998444	True	NaN	NaN	left	True	3.0	4.0	3.0
807.7285167999999	0.5001	sub-21	1	sequence	feedback	NaN	NaN	NaN	NaN	NaN	NaN	NaN	NaN	NaN	NaN	NaN	NaN	NaN
808.2288386	1.0006	sub-21	1	sequence	cue	Katze	NaN	NaN	NaN	NaN	NaN	NaN	NaN	NaN	NaN	NaN	NaN	NaN
809.2294222	2.0017	sub-21	1	sequence	blank	blank	NaN	NaN	NaN	NaN	NaN	NaN	NaN	NaN	NaN	NaN	NaN	NaN
811.2310836000006	0.3003	sub-21	1	sequence	fixation	dot	NaN	NaN	NaN	NaN	NaN	NaN	NaN	NaN	NaN	NaN	NaN	NaN
811.5502315000003	0.1146	sub-21	1	sequence	stimulus	Gesicht	NaN	NaN	64.0	NaN	NaN	1.0	1.0	NaN	NaN	NaN	NaN	NaN
811.6648056000004	0.0669	sub-21	1	sequence	interval	dot	NaN	NaN	NaN	NaN	NaN	NaN	NaN	NaN	NaN	NaN	NaN	NaN
811.7316781	0.0999	sub-21	1	sequence	stimulus	Schuh	NaN	NaN	64.0	NaN	NaN	4.0	2.0	NaN	NaN	NaN	NaN	NaN
811.8316185000003	0.0668	sub-21	1	sequence	interval	dot	NaN	NaN	NaN	NaN	NaN	NaN	NaN	NaN	NaN	NaN	NaN	NaN
811.8984595000002	0.1	sub-21	1	sequence	stimulus	Katze	NaN	NaN	64.0	NaN	NaN	3.0	3.0	NaN	NaN	NaN	NaN	NaN
811.9984480000003	0.0669	sub-21	1	sequence	interval	dot	NaN	NaN	NaN	NaN	NaN	NaN	NaN	NaN	NaN	NaN	NaN	NaN
812.0653424000002	0.1	sub-21	1	sequence	stimulus	Haus	NaN	NaN	64.0	NaN	NaN	2.0	4.0	NaN	NaN	NaN	NaN	NaN
812.1653133999998	0.0668	sub-21	1	sequence	interval	dot	NaN	NaN	NaN	NaN	NaN	NaN	NaN	NaN	NaN	NaN	NaN	NaN
812.2320878999999	0.1	sub-21	1	sequence	stimulus	Stuhl	NaN	NaN	64.0	NaN	NaN	5.0	5.0	NaN	NaN	NaN	NaN	NaN
812.3320385000006	0.0667	sub-21	1	sequence	interval	dot	NaN	NaN	NaN	NaN	NaN	NaN	NaN	NaN	NaN	NaN	NaN	NaN
812.3987410999998	8.3882	sub-21	1	sequence	delay	dot	NaN	NaN	NaN	NaN	NaN	NaN	NaN	NaN	NaN	NaN	NaN	NaN
820.7621040000004	1.0109	sub-21	1	sequence	choice	choice	right	NaN	NaN	0.977089199999682	True	NaN	NaN	right	True	2.0	3.0	3.0
821.7732059999998	0.5	sub-21	1	sequence	feedback	NaN	NaN	NaN	NaN	NaN	NaN	NaN	NaN	NaN	NaN	NaN	NaN	NaN
822.2734279000006	1.0006	sub-21	1	sequence	cue	Gesicht	NaN	NaN	NaN	NaN	NaN	NaN	NaN	NaN	NaN	NaN	NaN	NaN
823.2740596000003	2.0016	sub-21	1	sequence	blank	blank	NaN	NaN	NaN	NaN	NaN	NaN	NaN	NaN	NaN	NaN	NaN	NaN
825.2756600000002	0.3002	sub-21	1	sequence	fixation	dot	NaN	NaN	NaN	NaN	NaN	NaN	NaN	NaN	NaN	NaN	NaN	NaN
825.5942028999998	0.1151	sub-21	1	sequence	stimulus	Stuhl	NaN	NaN	512.0	NaN	NaN	5.0	1.0	NaN	NaN	NaN	NaN	NaN
825.7092683000001	0.5173	sub-21	1	sequence	interval	dot	NaN	NaN	NaN	NaN	NaN	NaN	NaN	NaN	NaN	NaN	NaN	NaN
826.2265379999999	0.0999	sub-21	1	sequence	stimulus	Katze	NaN	NaN	512.0	NaN	NaN	3.0	2.0	NaN	NaN	NaN	NaN	NaN
826.3264423999999	0.5172	sub-21	1	sequence	interval	dot	NaN	NaN	NaN	NaN	NaN	NaN	NaN	NaN	NaN	NaN	NaN	NaN
826.8436782999997	0.1	sub-21	1	sequence	stimulus	Gesicht	NaN	NaN	512.0	NaN	NaN	1.0	3.0	NaN	NaN	NaN	NaN	NaN
826.9436954000003	0.5172	sub-21	1	sequence	interval	dot	NaN	NaN	NaN	NaN	NaN	NaN	NaN	NaN	NaN	NaN	NaN	NaN
827.4608798999998	0.0999	sub-21	1	sequence	stimulus	Schuh	NaN	NaN	512.0	NaN	NaN	4.0	4.0	NaN	NaN	NaN	NaN	NaN
827.5607877000002	0.5174	sub-21	1	sequence	interval	dot	NaN	NaN	NaN	NaN	NaN	NaN	NaN	NaN	NaN	NaN	NaN	NaN
828.0781453	0.1	sub-21	1	sequence	stimulus	Haus	NaN	NaN	512.0	NaN	NaN	2.0	5.0	NaN	NaN	NaN	NaN	NaN
828.1781130999998	0.5169	sub-21	1	sequence	interval	dot	NaN	NaN	NaN	NaN	NaN	NaN	NaN	NaN	NaN	NaN	NaN	NaN
828.6950434999999	6.1533	sub-21	1	sequence	delay	dot	NaN	NaN	NaN	NaN	NaN	NaN	NaN	NaN	NaN	NaN	NaN	NaN
834.8274219000004	1.057	sub-21	1	sequence	choice	choice	left	NaN	NaN	1.0355901000002632	True	NaN	NaN	left	True	3.0	5.0	3.0
835.8846598	0.5	sub-21	1	sequence	feedback	NaN	NaN	NaN	NaN	NaN	NaN	NaN	NaN	NaN	NaN	NaN	NaN	NaN
836.3849017000002	1.0006	sub-21	1	sequence	cue	Katze	NaN	NaN	NaN	NaN	NaN	NaN	NaN	NaN	NaN	NaN	NaN	NaN
837.3855414	2.0015	sub-21	1	sequence	blank	blank	NaN	NaN	NaN	NaN	NaN	NaN	NaN	NaN	NaN	NaN	NaN	NaN
839.3870913999999	0.3002	sub-21	1	sequence	fixation	dot	NaN	NaN	NaN	NaN	NaN	NaN	NaN	NaN	NaN	NaN	NaN	NaN
839.7048935000003	0.0992	sub-21	1	sequence	stimulus	Haus	NaN	NaN	32.0	NaN	NaN	2.0	1.0	NaN	NaN	NaN	NaN	NaN
839.8040705000003	0.0335	sub-21	1	sequence	interval	dot	NaN	NaN	NaN	NaN	NaN	NaN	NaN	NaN	NaN	NaN	NaN	NaN
839.8375702000003	0.0999	sub-21	1	sequence	stimulus	Stuhl	NaN	NaN	32.0	NaN	NaN	5.0	2.0	NaN	NaN	NaN	NaN	NaN
839.9375054000002	0.0335	sub-21	1	sequence	interval	dot	NaN	NaN	NaN	NaN	NaN	NaN	NaN	NaN	NaN	NaN	NaN	NaN
839.9709711000005	0.1	sub-21	1	sequence	stimulus	Schuh	NaN	NaN	32.0	NaN	NaN	4.0	3.0	NaN	NaN	NaN	NaN	NaN
840.0709332000006	0.0335	sub-21	1	sequence	interval	dot	NaN	NaN	NaN	NaN	NaN	NaN	NaN	NaN	NaN	NaN	NaN	NaN
840.1044232000004	0.0999	sub-21	1	sequence	stimulus	Gesicht	NaN	NaN	32.0	NaN	NaN	1.0	4.0	NaN	NaN	NaN	NaN	NaN
840.2043430000003	0.0335	sub-21	1	sequence	interval	dot	NaN	NaN	NaN	NaN	NaN	NaN	NaN	NaN	NaN	NaN	NaN	NaN
840.2378640000006	0.1	sub-21	1	sequence	stimulus	Katze	NaN	NaN	32.0	NaN	NaN	3.0	5.0	NaN	NaN	NaN	NaN	NaN
840.3378629999997	0.0333	sub-21	1	sequence	interval	dot	NaN	NaN	NaN	NaN	NaN	NaN	NaN	NaN	NaN	NaN	NaN	NaN
840.3711627000002	8.5385	sub-21	1	sequence	delay	dot	NaN	NaN	NaN	NaN	NaN	NaN	NaN	NaN	NaN	NaN	NaN	NaN
848.8930866999999	0.8193	sub-21	1	sequence	choice	choice	left	NaN	NaN	0.7903978000003917	True	NaN	NaN	left	True	5.0	4.0	5.0
849.7126251	0.4999	sub-21	1	sequence	feedback	NaN	NaN	NaN	NaN	NaN	NaN	NaN	NaN	NaN	NaN	NaN	NaN	NaN
850.2130180000004	13.4772	sub-21	1	other	break	break	NaN	NaN	NaN	NaN	NaN	NaN	NaN	NaN	NaN	NaN	NaN	NaN
867.5274212000004	0.4995	sub-21	1	localizer	stimulus	Haus	NaN	0	2.4518277999995917	NaN	True	NaN	NaN	NaN	NaN	NaN	NaN	NaN
868.0103573000006	2.4518	sub-21	1	localizer	blank	interval	NaN	NaN	NaN	NaN	NaN	NaN	NaN	NaN	NaN	NaN	NaN	NaN
870.7635603999997	0.4993	sub-21	1	localizer	stimulus	Schuh	NaN	0	2.652257300000201	NaN	True	NaN	NaN	NaN	NaN	NaN	NaN	NaN
871.2462824000004	2.6523	sub-21	1	localizer	blank	interval	NaN	NaN	NaN	NaN	NaN	NaN	NaN	NaN	NaN	NaN	NaN	NaN
874.1997517	0.4994	sub-21	1	localizer	stimulus	Gesicht	NaN	0	2.801904700000705	NaN	True	NaN	NaN	NaN	NaN	NaN	NaN	NaN
874.6826247999998	2.8019	sub-21	1	localizer	blank	interval	NaN	NaN	NaN	NaN	NaN	NaN	NaN	NaN	NaN	NaN	NaN	NaN
877.7857032000002	0.4994	sub-21	1	localizer	stimulus	Katze	NaN	0	2.6020032999995237	NaN	True	NaN	NaN	NaN	NaN	NaN	NaN	NaN
878.2685981000004	2.602	sub-21	1	localizer	blank	interval	NaN	NaN	NaN	NaN	NaN	NaN	NaN	NaN	NaN	NaN	NaN	NaN
881.1717441999999	0.4995	sub-21	1	localizer	stimulus	Stuhl	NaN	0	2.435179000000062	NaN	True	NaN	NaN	NaN	NaN	NaN	NaN	NaN
881.6547086	2.4352	sub-21	1	localizer	blank	interval	NaN	NaN	NaN	NaN	NaN	NaN	NaN	NaN	NaN	NaN	NaN	NaN
884.3911115000001	0.4994	sub-21	1	localizer	stimulus	Stuhl	NaN	180	2.401816899999176	0.5887714000000415	True	NaN	NaN	NaN	NaN	NaN	NaN	NaN
884.8739798000006	2.4018	sub-21	1	localizer	blank	interval	NaN	NaN	NaN	NaN	NaN	NaN	NaN	NaN	NaN	NaN	NaN	NaN
887.5769504	0.4995	sub-21	1	localizer	stimulus	Katze	NaN	0	2.4351522999995723	NaN	True	NaN	NaN	NaN	NaN	NaN	NaN	NaN
888.0598981000003	2.4352	sub-21	1	localizer	blank	interval	NaN	NaN	NaN	NaN	NaN	NaN	NaN	NaN	NaN	NaN	NaN	NaN
890.7962148000006	0.4995	sub-21	1	localizer	stimulus	Haus	NaN	180	2.4686604999997144	0.5998306999999841	True	NaN	NaN	NaN	NaN	NaN	NaN	NaN
891.2791821000001	2.4687	sub-21	1	localizer	blank	interval	NaN	NaN	NaN	NaN	NaN	NaN	NaN	NaN	NaN	NaN	NaN	NaN
894.0489175000002	0.4996	sub-21	1	localizer	stimulus	Haus	NaN	0	2.351661200000308	NaN	True	NaN	NaN	NaN	NaN	NaN	NaN	NaN
894.5319208000001	2.3517	sub-21	1	localizer	blank	interval	NaN	NaN	NaN	NaN	NaN	NaN	NaN	NaN	NaN	NaN	NaN	NaN
897.1847201999999	0.4995	sub-21	1	localizer	stimulus	Stuhl	NaN	0	2.468524200000502	NaN	True	NaN	NaN	NaN	NaN	NaN	NaN	NaN
897.6676661000001	2.4685	sub-21	1	localizer	blank	interval	NaN	NaN	NaN	NaN	NaN	NaN	NaN	NaN	NaN	NaN	NaN	NaN
900.4374115999999	0.4994	sub-21	1	localizer	stimulus	Schuh	NaN	0	1.9347652000005837	NaN	True	NaN	NaN	NaN	NaN	NaN	NaN	NaN
900.9203189	1.9348	sub-21	1	localizer	blank	interval	NaN	NaN	NaN	NaN	NaN	NaN	NaN	NaN	NaN	NaN	NaN	NaN
903.1562289000004	0.4995	sub-21	1	localizer	stimulus	Haus	NaN	0	2.8855283000001464	NaN	True	NaN	NaN	NaN	NaN	NaN	NaN	NaN
903.6391910000002	2.8855	sub-21	1	localizer	blank	interval	NaN	NaN	NaN	NaN	NaN	NaN	NaN	NaN	NaN	NaN	NaN	NaN
906.8258554000004	0.4995	sub-21	1	localizer	stimulus	Gesicht	NaN	180	2.2183555999999953	0.5301283999997395	True	NaN	NaN	NaN	NaN	NaN	NaN	NaN
907.3088465	2.2184	sub-21	1	localizer	blank	interval	NaN	NaN	NaN	NaN	NaN	NaN	NaN	NaN	NaN	NaN	NaN	NaN
909.8282699	0.4995	sub-21	1	localizer	stimulus	Stuhl	NaN	0	2.702026099999557	NaN	True	NaN	NaN	NaN	NaN	NaN	NaN	NaN
910.3112662000004	2.702	sub-21	1	localizer	blank	interval	NaN	NaN	NaN	NaN	NaN	NaN	NaN	NaN	NaN	NaN	NaN	NaN
913.3146376000004	0.4994	sub-21	1	localizer	stimulus	Haus	NaN	0	2.802158000000418	NaN	True	NaN	NaN	NaN	NaN	NaN	NaN	NaN
913.7976632	2.8022	sub-21	1	localizer	blank	interval	NaN	NaN	NaN	NaN	NaN	NaN	NaN	NaN	NaN	NaN	NaN	NaN
916.9009335	0.4995	sub-21	1	localizer	stimulus	Katze	NaN	0	3.102333300000396	NaN	True	NaN	NaN	NaN	NaN	NaN	NaN	NaN
917.3838581	3.1023	sub-21	1	localizer	blank	interval	NaN	NaN	NaN	NaN	NaN	NaN	NaN	NaN	NaN	NaN	NaN	NaN
920.7871636999998	0.4995	sub-21	1	localizer	stimulus	Schuh	NaN	0	3.0857100000001765	NaN	True	NaN	NaN	NaN	NaN	NaN	NaN	NaN
921.2701144000002	3.0857	sub-21	1	localizer	blank	interval	NaN	NaN	NaN	NaN	NaN	NaN	NaN	NaN	NaN	NaN	NaN	NaN
924.6569731	0.4995	sub-21	1	localizer	stimulus	Schuh	NaN	0	1.5177588000005926	NaN	True	NaN	NaN	NaN	NaN	NaN	NaN	NaN
925.1399136	1.5178	sub-21	1	localizer	blank	interval	NaN	NaN	NaN	NaN	NaN	NaN	NaN	NaN	NaN	NaN	NaN	NaN
926.9588164000006	0.4995	sub-21	1	localizer	stimulus	Katze	NaN	0	2.11824409999997	NaN	True	NaN	NaN	NaN	NaN	NaN	NaN	NaN
927.4417776	2.1182	sub-21	1	localizer	blank	interval	NaN	NaN	NaN	NaN	NaN	NaN	NaN	NaN	NaN	NaN	NaN	NaN
929.8611668000004	0.4995	sub-21	1	localizer	stimulus	Katze	NaN	180	2.5853227999996307	0.6948173999999199	True	NaN	NaN	NaN	NaN	NaN	NaN	NaN
930.3441251000004	2.5853	sub-21	1	localizer	blank	interval	NaN	NaN	NaN	NaN	NaN	NaN	NaN	NaN	NaN	NaN	NaN	NaN
933.2307439000006	0.4993	sub-21	1	localizer	stimulus	Gesicht	NaN	0	3.3173100000003615	NaN	True	NaN	NaN	NaN	NaN	NaN	NaN	NaN
933.7135256	3.3173	sub-21	1	localizer	blank	interval	NaN	NaN	NaN	NaN	NaN	NaN	NaN	NaN	NaN	NaN	NaN	NaN
937.3341034000003	0.4995	sub-21	1	localizer	stimulus	Schuh	NaN	180	2.7852441000004546	0.7418287999998938	True	NaN	NaN	NaN	NaN	NaN	NaN	NaN
937.817067	2.7852	sub-21	1	localizer	blank	interval	NaN	NaN	NaN	NaN	NaN	NaN	NaN	NaN	NaN	NaN	NaN	NaN
940.9034647	0.4995	sub-21	1	localizer	stimulus	Stuhl	NaN	0	3.0523818000000347	NaN	True	NaN	NaN	NaN	NaN	NaN	NaN	NaN
941.3863745	3.0524	sub-21	1	localizer	blank	interval	NaN	NaN	NaN	NaN	NaN	NaN	NaN	NaN	NaN	NaN	NaN	NaN
944.7399869	0.4994	sub-21	1	localizer	stimulus	Gesicht	NaN	0	2.268384199999673	NaN	True	NaN	NaN	NaN	NaN	NaN	NaN	NaN
945.2228417000006	2.2684	sub-21	1	localizer	blank	interval	NaN	NaN	NaN	NaN	NaN	NaN	NaN	NaN	NaN	NaN	NaN	NaN
947.7923675000002	0.4995	sub-21	1	localizer	stimulus	Gesicht	NaN	0	2.685399699999948	NaN	True	NaN	NaN	NaN	NaN	NaN	NaN	NaN
948.2752888000005	2.6854	sub-21	1	localizer	blank	interval	NaN	NaN	NaN	NaN	NaN	NaN	NaN	NaN	NaN	NaN	NaN	NaN
954.4471553000004	1.0006	sub-21	1	sequence	cue	Stuhl	NaN	NaN	NaN	NaN	NaN	NaN	NaN	NaN	NaN	NaN	NaN	NaN
955.4477390000002	2.0017	sub-21	1	sequence	blank	blank	NaN	NaN	NaN	NaN	NaN	NaN	NaN	NaN	NaN	NaN	NaN	NaN
957.4494184000004	0.2982	sub-21	1	sequence	fixation	dot	NaN	NaN	NaN	NaN	NaN	NaN	NaN	NaN	NaN	NaN	NaN	NaN
957.7671942000006	0.1139	sub-21	1	sequence	stimulus	Katze	NaN	NaN	128.0	NaN	NaN	3.0	1.0	NaN	NaN	NaN	NaN	NaN
957.8810706000004	0.1336	sub-21	1	sequence	interval	dot	NaN	NaN	NaN	NaN	NaN	NaN	NaN	NaN	NaN	NaN	NaN	NaN
958.0146297	0.1003	sub-21	1	sequence	stimulus	Schuh	NaN	NaN	128.0	NaN	NaN	4.0	2.0	NaN	NaN	NaN	NaN	NaN
958.1149077	0.1354	sub-21	1	sequence	interval	dot	NaN	NaN	NaN	NaN	NaN	NaN	NaN	NaN	NaN	NaN	NaN	NaN
958.2503114	0.0999	sub-21	1	sequence	stimulus	Haus	NaN	NaN	128.0	NaN	NaN	2.0	3.0	NaN	NaN	NaN	NaN	NaN
958.3502159999998	0.1337	sub-21	1	sequence	interval	dot	NaN	NaN	NaN	NaN	NaN	NaN	NaN	NaN	NaN	NaN	NaN	NaN
958.4839098000002	0.0999	sub-21	1	sequence	stimulus	Gesicht	NaN	NaN	128.0	NaN	NaN	1.0	4.0	NaN	NaN	NaN	NaN	NaN
958.5837773000004	0.1336	sub-21	1	sequence	interval	dot	NaN	NaN	NaN	NaN	NaN	NaN	NaN	NaN	NaN	NaN	NaN	NaN
958.7173430000004	0.1	sub-21	1	sequence	stimulus	Stuhl	NaN	NaN	128.0	NaN	NaN	5.0	5.0	NaN	NaN	NaN	NaN	NaN
958.8173754	0.1333	sub-21	1	sequence	interval	dot	NaN	NaN	NaN	NaN	NaN	NaN	NaN	NaN	NaN	NaN	NaN	NaN
958.9507121000006	8.0712	sub-21	1	sequence	delay	dot	NaN	NaN	NaN	NaN	NaN	NaN	NaN	NaN	NaN	NaN	NaN	NaN
967.008592	0.9494	sub-21	1	sequence	choice	choice	right	NaN	NaN	0.9260522999993556	True	NaN	NaN	right	True	4.0	5.0	5.0
967.9583401999998	0.4999	sub-21	1	sequence	feedback	NaN	NaN	NaN	NaN	NaN	NaN	NaN	NaN	NaN	NaN	NaN	NaN	NaN
968.4584866000004	1.0005	sub-21	1	sequence	cue	Katze	NaN	NaN	NaN	NaN	NaN	NaN	NaN	NaN	NaN	NaN	NaN	NaN
969.4590386999998	2.0016	sub-21	1	sequence	blank	blank	NaN	NaN	NaN	NaN	NaN	NaN	NaN	NaN	NaN	NaN	NaN	NaN
971.4606417000005	0.3002	sub-21	1	sequence	fixation	dot	NaN	NaN	NaN	NaN	NaN	NaN	NaN	NaN	NaN	NaN	NaN	NaN
971.7793591	0.1149	sub-21	1	sequence	stimulus	Haus	NaN	NaN	32.0	NaN	NaN	2.0	1.0	NaN	NaN	NaN	NaN	NaN
971.8942961000002	0.0335	sub-21	1	sequence	interval	dot	NaN	NaN	NaN	NaN	NaN	NaN	NaN	NaN	NaN	NaN	NaN	NaN
971.9277578	0.1	sub-21	1	sequence	stimulus	Stuhl	NaN	NaN	32.0	NaN	NaN	5.0	2.0	NaN	NaN	NaN	NaN	NaN
972.0277547000004	0.0335	sub-21	1	sequence	interval	dot	NaN	NaN	NaN	NaN	NaN	NaN	NaN	NaN	NaN	NaN	NaN	NaN
972.0612423000002	0.1	sub-21	1	sequence	stimulus	Schuh	NaN	NaN	32.0	NaN	NaN	4.0	3.0	NaN	NaN	NaN	NaN	NaN
972.1611994000004	0.0335	sub-21	1	sequence	interval	dot	NaN	NaN	NaN	NaN	NaN	NaN	NaN	NaN	NaN	NaN	NaN	NaN
972.1946640000006	0.1	sub-21	1	sequence	stimulus	Gesicht	NaN	NaN	32.0	NaN	NaN	1.0	4.0	NaN	NaN	NaN	NaN	NaN
972.2946355000004	0.0335	sub-21	1	sequence	interval	dot	NaN	NaN	NaN	NaN	NaN	NaN	NaN	NaN	NaN	NaN	NaN	NaN
972.3281158999998	0.0999	sub-21	1	sequence	stimulus	Katze	NaN	NaN	32.0	NaN	NaN	3.0	5.0	NaN	NaN	NaN	NaN	NaN
972.4280591000006	0.0334	sub-21	1	sequence	interval	dot	NaN	NaN	NaN	NaN	NaN	NaN	NaN	NaN	NaN	NaN	NaN	NaN
972.4614272	8.5219	sub-21	1	sequence	delay	dot	NaN	NaN	NaN	NaN	NaN	NaN	NaN	NaN	NaN	NaN	NaN	NaN
980.9702638999996	0.7323	sub-21	1	sequence	choice	choice	left	NaN	NaN	0.7168056000000433	True	NaN	NaN	left	True	5.0	4.0	5.0
981.7028126000004	0.4999	sub-21	1	sequence	feedback	NaN	NaN	NaN	NaN	NaN	NaN	NaN	NaN	NaN	NaN	NaN	NaN	NaN
982.2028214000002	1.0007	sub-21	1	sequence	cue	Schuh	NaN	NaN	NaN	NaN	NaN	NaN	NaN	NaN	NaN	NaN	NaN	NaN
983.2035007000004	2.0016	sub-21	1	sequence	blank	blank	NaN	NaN	NaN	NaN	NaN	NaN	NaN	NaN	NaN	NaN	NaN	NaN
985.2051153000002	0.3003	sub-21	1	sequence	fixation	dot	NaN	NaN	NaN	NaN	NaN	NaN	NaN	NaN	NaN	NaN	NaN	NaN
985.5236494	0.1151	sub-21	1	sequence	stimulus	Gesicht	NaN	NaN	64.0	NaN	NaN	1.0	1.0	NaN	NaN	NaN	NaN	NaN
985.6387962999996	0.0668	sub-21	1	sequence	interval	dot	NaN	NaN	NaN	NaN	NaN	NaN	NaN	NaN	NaN	NaN	NaN	NaN
985.7056060000004	0.1	sub-21	1	sequence	stimulus	Schuh	NaN	NaN	64.0	NaN	NaN	4.0	2.0	NaN	NaN	NaN	NaN	NaN
985.8055668000006	0.0669	sub-21	1	sequence	interval	dot	NaN	NaN	NaN	NaN	NaN	NaN	NaN	NaN	NaN	NaN	NaN	NaN
985.8724843	0.1	sub-21	1	sequence	stimulus	Katze	NaN	NaN	64.0	NaN	NaN	3.0	3.0	NaN	NaN	NaN	NaN	NaN
985.9724440999998	0.0668	sub-21	1	sequence	interval	dot	NaN	NaN	NaN	NaN	NaN	NaN	NaN	NaN	NaN	NaN	NaN	NaN
986.0392164000004	0.1	sub-21	1	sequence	stimulus	Haus	NaN	NaN	64.0	NaN	NaN	2.0	4.0	NaN	NaN	NaN	NaN	NaN
986.1392284000004	0.0668	sub-21	1	sequence	interval	dot	NaN	NaN	NaN	NaN	NaN	NaN	NaN	NaN	NaN	NaN	NaN	NaN
986.2060023000004	0.1	sub-21	1	sequence	stimulus	Stuhl	NaN	NaN	64.0	NaN	NaN	5.0	5.0	NaN	NaN	NaN	NaN	NaN
986.3059627000002	0.0667	sub-21	1	sequence	interval	dot	NaN	NaN	NaN	NaN	NaN	NaN	NaN	NaN	NaN	NaN	NaN	NaN
986.3726954000005	8.3883	sub-21	1	sequence	delay	dot	NaN	NaN	NaN	NaN	NaN	NaN	NaN	NaN	NaN	NaN	NaN	NaN
994.7500263000002	0.7471	sub-21	1	sequence	choice	choice	left	NaN	NaN	0.723120800000288	True	NaN	NaN	left	True	2.0	5.0	2.0
995.4973341000004	0.5	sub-21	1	sequence	feedback	NaN	NaN	NaN	NaN	NaN	NaN	NaN	NaN	NaN	NaN	NaN	NaN	NaN
995.9975644000006	1.0004	sub-21	1	sequence	cue	Haus	NaN	NaN	NaN	NaN	NaN	NaN	NaN	NaN	NaN	NaN	NaN	NaN
996.9979912999996	2.0018	sub-21	1	sequence	blank	blank	NaN	NaN	NaN	NaN	NaN	NaN	NaN	NaN	NaN	NaN	NaN	NaN
998.9998164	0.3002	sub-21	1	sequence	fixation	dot	NaN	NaN	NaN	NaN	NaN	NaN	NaN	NaN	NaN	NaN	NaN	NaN
999.3174442999998	0.0993	sub-21	1	sequence	stimulus	Stuhl	NaN	NaN	512.0	NaN	NaN	5.0	1.0	NaN	NaN	NaN	NaN	NaN
999.4167126000002	0.5173	sub-21	1	sequence	interval	dot	NaN	NaN	NaN	NaN	NaN	NaN	NaN	NaN	NaN	NaN	NaN	NaN
999.9340135000002	0.0978	sub-21	1	sequence	stimulus	Katze	NaN	NaN	512.0	NaN	NaN	3.0	2.0	NaN	NaN	NaN	NaN	NaN
1000.0318451000004	0.5193	sub-21	1	sequence	interval	dot	NaN	NaN	NaN	NaN	NaN	NaN	NaN	NaN	NaN	NaN	NaN	NaN
1000.5511707000004	0.1	sub-21	1	sequence	stimulus	Gesicht	NaN	NaN	512.0	NaN	NaN	1.0	3.0	NaN	NaN	NaN	NaN	NaN
1000.6511339999996	0.5172	sub-21	1	sequence	interval	dot	NaN	NaN	NaN	NaN	NaN	NaN	NaN	NaN	NaN	NaN	NaN	NaN
1001.1683219000006	0.0999	sub-21	1	sequence	stimulus	Schuh	NaN	NaN	512.0	NaN	NaN	4.0	4.0	NaN	NaN	NaN	NaN	NaN
1001.2682483	0.5171	sub-21	1	sequence	interval	dot	NaN	NaN	NaN	NaN	NaN	NaN	NaN	NaN	NaN	NaN	NaN	NaN
1001.7853163	0.1	sub-21	1	sequence	stimulus	Haus	NaN	NaN	512.0	NaN	NaN	2.0	5.0	NaN	NaN	NaN	NaN	NaN
1001.8852674	0.5171	sub-21	1	sequence	interval	dot	NaN	NaN	NaN	NaN	NaN	NaN	NaN	NaN	NaN	NaN	NaN	NaN
1002.4023385	6.1533	sub-21	1	sequence	delay	dot	NaN	NaN	NaN	NaN	NaN	NaN	NaN	NaN	NaN	NaN	NaN	NaN
1008.5297253	0.7951	sub-21	1	sequence	choice	choice	left	NaN	NaN	0.7523935999997775	True	NaN	NaN	left	True	5.0	3.0	5.0
1009.3250374	0.5001	sub-21	1	sequence	feedback	NaN	NaN	NaN	NaN	NaN	NaN	NaN	NaN	NaN	NaN	NaN	NaN	NaN
1009.8254017	1.0005	sub-21	1	sequence	cue	Schuh	NaN	NaN	NaN	NaN	NaN	NaN	NaN	NaN	NaN	NaN	NaN	NaN
1010.8258713000004	2.0017	sub-21	1	sequence	blank	blank	NaN	NaN	NaN	NaN	NaN	NaN	NaN	NaN	NaN	NaN	NaN	NaN
1012.8275658000002	0.3002	sub-21	1	sequence	fixation	dot	NaN	NaN	NaN	NaN	NaN	NaN	NaN	NaN	NaN	NaN	NaN	NaN
1013.1453809000004	0.099	sub-21	1	sequence	stimulus	Gesicht	NaN	NaN	64.0	NaN	NaN	1.0	1.0	NaN	NaN	NaN	NaN	NaN
1013.2444228000004	0.0668	sub-21	1	sequence	interval	dot	NaN	NaN	NaN	NaN	NaN	NaN	NaN	NaN	NaN	NaN	NaN	NaN
1013.3112677999998	0.1	sub-21	1	sequence	stimulus	Katze	NaN	NaN	64.0	NaN	NaN	3.0	2.0	NaN	NaN	NaN	NaN	NaN
1013.4112295000004	0.0668	sub-21	1	sequence	interval	dot	NaN	NaN	NaN	NaN	NaN	NaN	NaN	NaN	NaN	NaN	NaN	NaN
1013.4780691000004	0.1	sub-21	1	sequence	stimulus	Stuhl	NaN	NaN	64.0	NaN	NaN	5.0	3.0	NaN	NaN	NaN	NaN	NaN
1013.5780384	0.0669	sub-21	1	sequence	interval	dot	NaN	NaN	NaN	NaN	NaN	NaN	NaN	NaN	NaN	NaN	NaN	NaN
1013.6449162	0.0999	sub-21	1	sequence	stimulus	Haus	NaN	NaN	64.0	NaN	NaN	2.0	4.0	NaN	NaN	NaN	NaN	NaN
1013.7448285	0.0668	sub-21	1	sequence	interval	dot	NaN	NaN	NaN	NaN	NaN	NaN	NaN	NaN	NaN	NaN	NaN	NaN
1013.8116728000005	0.1	sub-21	1	sequence	stimulus	Schuh	NaN	NaN	64.0	NaN	NaN	4.0	5.0	NaN	NaN	NaN	NaN	NaN
1013.9116302000002	0.0668	sub-21	1	sequence	interval	dot	NaN	NaN	NaN	NaN	NaN	NaN	NaN	NaN	NaN	NaN	NaN	NaN
1013.9783852	8.3717	sub-21	1	sequence	delay	dot	NaN	NaN	NaN	NaN	NaN	NaN	NaN	NaN	NaN	NaN	NaN	NaN
1022.3354002000004	0.6671	sub-21	1	sequence	choice	choice	right	NaN	NaN	0.6379981000000043	True	NaN	NaN	right	True	2.0	5.0	5.0
1023.0027957000002	0.5001	sub-21	1	sequence	feedback	NaN	NaN	NaN	NaN	NaN	NaN	NaN	NaN	NaN	NaN	NaN	NaN	NaN
1023.5030336	1.0006	sub-21	1	sequence	cue	Stuhl	NaN	NaN	NaN	NaN	NaN	NaN	NaN	NaN	NaN	NaN	NaN	NaN
1024.5036029000005	2.0016	sub-21	1	sequence	blank	blank	NaN	NaN	NaN	NaN	NaN	NaN	NaN	NaN	NaN	NaN	NaN	NaN
1026.5051862	0.3002	sub-21	1	sequence	fixation	dot	NaN	NaN	NaN	NaN	NaN	NaN	NaN	NaN	NaN	NaN	NaN	NaN
1026.8241588	0.1147	sub-21	1	sequence	stimulus	Gesicht	NaN	NaN	32.0	NaN	NaN	1.0	1.0	NaN	NaN	NaN	NaN	NaN
1026.9388144000004	0.0335	sub-21	1	sequence	interval	dot	NaN	NaN	NaN	NaN	NaN	NaN	NaN	NaN	NaN	NaN	NaN	NaN
1026.9723399000004	0.1	sub-21	1	sequence	stimulus	Stuhl	NaN	NaN	32.0	NaN	NaN	5.0	2.0	NaN	NaN	NaN	NaN	NaN
1027.0723185000006	0.0335	sub-21	1	sequence	interval	dot	NaN	NaN	NaN	NaN	NaN	NaN	NaN	NaN	NaN	NaN	NaN	NaN
1027.1057878	0.1	sub-21	1	sequence	stimulus	Schuh	NaN	NaN	32.0	NaN	NaN	4.0	3.0	NaN	NaN	NaN	NaN	NaN
1027.2057548000002	0.0335	sub-21	1	sequence	interval	dot	NaN	NaN	NaN	NaN	NaN	NaN	NaN	NaN	NaN	NaN	NaN	NaN
1027.2392426000006	0.0999	sub-21	1	sequence	stimulus	Katze	NaN	NaN	32.0	NaN	NaN	3.0	4.0	NaN	NaN	NaN	NaN	NaN
1027.3391570000003	0.0335	sub-21	1	sequence	interval	dot	NaN	NaN	NaN	NaN	NaN	NaN	NaN	NaN	NaN	NaN	NaN	NaN
1027.3726735	0.0999	sub-21	1	sequence	stimulus	Haus	NaN	NaN	32.0	NaN	NaN	2.0	5.0	NaN	NaN	NaN	NaN	NaN
1027.4726197	0.0334	sub-21	1	sequence	interval	dot	NaN	NaN	NaN	NaN	NaN	NaN	NaN	NaN	NaN	NaN	NaN	NaN
1027.5059738	8.5219	sub-21	1	sequence	delay	dot	NaN	NaN	NaN	NaN	NaN	NaN	NaN	NaN	NaN	NaN	NaN	NaN
1036.0111244	0.9027	sub-21	1	sequence	choice	choice	right	NaN	NaN	0.8801364000000831	True	NaN	NaN	right	True	5.0	2.0	2.0
1036.9140427000002	0.5	sub-21	1	sequence	feedback	NaN	NaN	NaN	NaN	NaN	NaN	NaN	NaN	NaN	NaN	NaN	NaN	NaN
1037.4142141000002	1.0008	sub-21	1	sequence	cue	Haus	NaN	NaN	NaN	NaN	NaN	NaN	NaN	NaN	NaN	NaN	NaN	NaN
1038.4149951999998	2.0016	sub-21	1	sequence	blank	blank	NaN	NaN	NaN	NaN	NaN	NaN	NaN	NaN	NaN	NaN	NaN	NaN
1040.4165932000003	0.3002	sub-21	1	sequence	fixation	dot	NaN	NaN	NaN	NaN	NaN	NaN	NaN	NaN	NaN	NaN	NaN	NaN
1040.7348441000004	0.1154	sub-21	1	sequence	stimulus	Schuh	NaN	NaN	512.0	NaN	NaN	4.0	1.0	NaN	NaN	NaN	NaN	NaN
1040.850241	0.5172	sub-21	1	sequence	interval	dot	NaN	NaN	NaN	NaN	NaN	NaN	NaN	NaN	NaN	NaN	NaN	NaN
1041.3674898999998	0.0999	sub-21	1	sequence	stimulus	Katze	NaN	NaN	512.0	NaN	NaN	3.0	2.0	NaN	NaN	NaN	NaN	NaN
1041.4673776	0.5173	sub-21	1	sequence	interval	dot	NaN	NaN	NaN	NaN	NaN	NaN	NaN	NaN	NaN	NaN	NaN	NaN
1041.98463	0.1001	sub-21	1	sequence	stimulus	Gesicht	NaN	NaN	512.0	NaN	NaN	1.0	3.0	NaN	NaN	NaN	NaN	NaN
1042.0847192	0.5171	sub-21	1	sequence	interval	dot	NaN	NaN	NaN	NaN	NaN	NaN	NaN	NaN	NaN	NaN	NaN	NaN
1042.6018568999998	0.0999	sub-21	1	sequence	stimulus	Stuhl	NaN	NaN	512.0	NaN	NaN	5.0	4.0	NaN	NaN	NaN	NaN	NaN
1042.7018039000004	0.5173	sub-21	1	sequence	interval	dot	NaN	NaN	NaN	NaN	NaN	NaN	NaN	NaN	NaN	NaN	NaN	NaN
1043.2190584	0.0998	sub-21	1	sequence	stimulus	Haus	NaN	NaN	512.0	NaN	NaN	2.0	5.0	NaN	NaN	NaN	NaN	NaN
1043.3188552	0.517	sub-21	1	sequence	interval	dot	NaN	NaN	NaN	NaN	NaN	NaN	NaN	NaN	NaN	NaN	NaN	NaN
1043.8358562000003	6.1533	sub-21	1	sequence	delay	dot	NaN	NaN	NaN	NaN	NaN	NaN	NaN	NaN	NaN	NaN	NaN	NaN
1049.972855	0.7355	sub-21	1	sequence	choice	choice	right	NaN	NaN	0.7029429000003802	True	NaN	NaN	right	True	3.0	5.0	5.0
1050.7086368	0.5	sub-21	1	sequence	feedback	NaN	NaN	NaN	NaN	NaN	NaN	NaN	NaN	NaN	NaN	NaN	NaN	NaN
1051.2088143	1.0005	sub-21	1	sequence	cue	Stuhl	NaN	NaN	NaN	NaN	NaN	NaN	NaN	NaN	NaN	NaN	NaN	NaN
1052.2093335	2.0016	sub-21	1	sequence	blank	blank	NaN	NaN	NaN	NaN	NaN	NaN	NaN	NaN	NaN	NaN	NaN	NaN
1054.2109512000006	0.3002	sub-21	1	sequence	fixation	dot	NaN	NaN	NaN	NaN	NaN	NaN	NaN	NaN	NaN	NaN	NaN	NaN
1054.5297393	0.1149	sub-21	1	sequence	stimulus	Katze	NaN	NaN	128.0	NaN	NaN	3.0	1.0	NaN	NaN	NaN	NaN	NaN
1054.6446594	0.1335	sub-21	1	sequence	interval	dot	NaN	NaN	NaN	NaN	NaN	NaN	NaN	NaN	NaN	NaN	NaN	NaN
1054.7781882999998	0.0999	sub-21	1	sequence	stimulus	Gesicht	NaN	NaN	128.0	NaN	NaN	1.0	2.0	NaN	NaN	NaN	NaN	NaN
1054.8781218000004	0.1336	sub-21	1	sequence	interval	dot	NaN	NaN	NaN	NaN	NaN	NaN	NaN	NaN	NaN	NaN	NaN	NaN
1055.0116797	0.1	sub-21	1	sequence	stimulus	Schuh	NaN	NaN	128.0	NaN	NaN	4.0	3.0	NaN	NaN	NaN	NaN	NaN
1055.1116435000004	0.1336	sub-21	1	sequence	interval	dot	NaN	NaN	NaN	NaN	NaN	NaN	NaN	NaN	NaN	NaN	NaN	NaN
1055.2452232000005	0.1	sub-21	1	sequence	stimulus	Stuhl	NaN	NaN	128.0	NaN	NaN	5.0	4.0	NaN	NaN	NaN	NaN	NaN
1055.3451893	0.1335	sub-21	1	sequence	interval	dot	NaN	NaN	NaN	NaN	NaN	NaN	NaN	NaN	NaN	NaN	NaN	NaN
1055.4787387000006	0.0999	sub-21	1	sequence	stimulus	Haus	NaN	NaN	128.0	NaN	NaN	2.0	5.0	NaN	NaN	NaN	NaN	NaN
1055.5786856000004	0.1335	sub-21	1	sequence	interval	dot	NaN	NaN	NaN	NaN	NaN	NaN	NaN	NaN	NaN	NaN	NaN	NaN
1055.7121361	8.055	sub-21	1	sequence	delay	dot	NaN	NaN	NaN	NaN	NaN	NaN	NaN	NaN	NaN	NaN	NaN	NaN
1063.7525566000004	0.7837	sub-21	1	sequence	choice	choice	left	NaN	NaN	0.7649136999998518	True	NaN	NaN	left	True	4.0	3.0	4.0
1064.5365190000002	0.5	sub-21	1	sequence	feedback	NaN	NaN	NaN	NaN	NaN	NaN	NaN	NaN	NaN	NaN	NaN	NaN	NaN
1068.8570234	0.4995	sub-21	1	localizer	stimulus	Stuhl	NaN	0	2.735439500000439	NaN	True	NaN	NaN	NaN	NaN	NaN	NaN	NaN
1069.3399736	2.7354	sub-21	1	localizer	blank	interval	NaN	NaN	NaN	NaN	NaN	NaN	NaN	NaN	NaN	NaN	NaN	NaN
1072.3765207000006	0.4995	sub-21	1	localizer	stimulus	Schuh	NaN	0	3.085684699999547	NaN	True	NaN	NaN	NaN	NaN	NaN	NaN	NaN
1072.8595031000004	3.0857	sub-21	1	localizer	blank	interval	NaN	NaN	NaN	NaN	NaN	NaN	NaN	NaN	NaN	NaN	NaN	NaN
1076.2462993999998	0.4995	sub-21	1	localizer	stimulus	Schuh	NaN	180	2.4685006000001977	0.5416846999996778	True	NaN	NaN	NaN	NaN	NaN	NaN	NaN
1076.7292881000003	2.4685	sub-21	1	localizer	blank	interval	NaN	NaN	NaN	NaN	NaN	NaN	NaN	NaN	NaN	NaN	NaN	NaN
1079.5006746	0.5144	sub-21	1	localizer	stimulus	Gesicht	NaN	0	1.9015654000002087	NaN	True	NaN	NaN	NaN	NaN	NaN	NaN	NaN
1079.9818944	1.9016	sub-21	1	localizer	blank	interval	NaN	NaN	NaN	NaN	NaN	NaN	NaN	NaN	NaN	NaN	NaN	NaN
1082.1845252000005	0.4996	sub-21	1	localizer	stimulus	Gesicht	NaN	0	1.868193200000178	NaN	True	NaN	NaN	NaN	NaN	NaN	NaN	NaN
1082.6675182	1.8682	sub-21	1	localizer	blank	interval	NaN	NaN	NaN	NaN	NaN	NaN	NaN	NaN	NaN	NaN	NaN	NaN
1084.8368274000004	0.4994	sub-21	1	localizer	stimulus	Katze	NaN	180	2.9022913999995126	0.5511882999999216	True	NaN	NaN	NaN	NaN	NaN	NaN	NaN
1085.3195796	2.9023	sub-21	1	localizer	blank	interval	NaN	NaN	NaN	NaN	NaN	NaN	NaN	NaN	NaN	NaN	NaN	NaN
1088.5229243000003	0.4995	sub-21	1	localizer	stimulus	Schuh	NaN	0	2.418504700000085	NaN	True	NaN	NaN	NaN	NaN	NaN	NaN	NaN
1089.0058712	2.4185	sub-21	1	localizer	blank	interval	NaN	NaN	NaN	NaN	NaN	NaN	NaN	NaN	NaN	NaN	NaN	NaN
1091.7255467000005	0.4995	sub-21	1	localizer	stimulus	Haus	NaN	0	2.08487359999981	NaN	True	NaN	NaN	NaN	NaN	NaN	NaN	NaN
1092.2084890000006	2.0849	sub-21	1	localizer	blank	interval	NaN	NaN	NaN	NaN	NaN	NaN	NaN	NaN	NaN	NaN	NaN	NaN
1094.5945355000003	0.4995	sub-21	1	localizer	stimulus	Haus	NaN	0	2.1515719000001354	NaN	True	NaN	NaN	NaN	NaN	NaN	NaN	NaN
1095.0774888000003	2.1516	sub-21	1	localizer	blank	interval	NaN	NaN	NaN	NaN	NaN	NaN	NaN	NaN	NaN	NaN	NaN	NaN
1097.5302351	0.4995	sub-21	1	localizer	stimulus	Katze	NaN	0	2.735430400000041	NaN	True	NaN	NaN	NaN	NaN	NaN	NaN	NaN
1098.0131682	2.7354	sub-21	1	localizer	blank	interval	NaN	NaN	NaN	NaN	NaN	NaN	NaN	NaN	NaN	NaN	NaN	NaN
1101.0499273000005	0.4993	sub-21	1	localizer	stimulus	Katze	NaN	0	1.9515780000001541	NaN	True	NaN	NaN	NaN	NaN	NaN	NaN	NaN
1101.5326992	1.9516	sub-21	1	localizer	blank	interval	NaN	NaN	NaN	NaN	NaN	NaN	NaN	NaN	NaN	NaN	NaN	NaN
1103.7853345000003	0.4995	sub-21	1	localizer	stimulus	Stuhl	NaN	180	2.70197300000018	0.5626420999997208	True	NaN	NaN	NaN	NaN	NaN	NaN	NaN
1104.2683427000002	2.702	sub-21	1	localizer	blank	interval	NaN	NaN	NaN	NaN	NaN	NaN	NaN	NaN	NaN	NaN	NaN	NaN
1107.2714567000005	0.4995	sub-21	1	localizer	stimulus	Stuhl	NaN	0	2.4352077999992616	NaN	True	NaN	NaN	NaN	NaN	NaN	NaN	NaN
1107.7543553000005	2.4352	sub-21	1	localizer	blank	interval	NaN	NaN	NaN	NaN	NaN	NaN	NaN	NaN	NaN	NaN	NaN	NaN
1110.4907388	0.4994	sub-21	1	localizer	stimulus	Katze	NaN	0	2.8188233999999284	NaN	True	NaN	NaN	NaN	NaN	NaN	NaN	NaN
1110.9736730000004	2.8188	sub-21	1	localizer	blank	interval	NaN	NaN	NaN	NaN	NaN	NaN	NaN	NaN	NaN	NaN	NaN	NaN
1114.0936665	0.4995	sub-21	1	localizer	stimulus	Haus	NaN	0	2.3517809999993915	NaN	True	NaN	NaN	NaN	NaN	NaN	NaN	NaN
1114.5765735000004	2.3518	sub-21	1	localizer	blank	interval	NaN	NaN	NaN	NaN	NaN	NaN	NaN	NaN	NaN	NaN	NaN	NaN
1117.2295140000006	0.4995	sub-21	1	localizer	stimulus	Schuh	NaN	0	3.4527725999998893	NaN	True	NaN	NaN	NaN	NaN	NaN	NaN	NaN
1117.7124441000003	3.4528	sub-21	1	localizer	blank	interval	NaN	NaN	NaN	NaN	NaN	NaN	NaN	NaN	NaN	NaN	NaN	NaN
