onset	duration	subject	session	condition	trial_type	stim_label	key_down	orientation	interval_time	response_time	accuracy	stim_index	serial_position	key_expected	key_pressed	choice_left	choice_right	choice_correct
1.2582404000004317	1.2255	sub-07	1	instruction	instruction	language_selection	german	NaN	NaN	NaN	NaN	NaN	NaN	NaN	NaN	NaN	NaN	NaN
28.63891950000016	0.4993	sub-07	1	localizer	stimulus	Schuh	NaN	180	2.3518436000003966	-10.449201999999786	1.0	NaN	NaN	NaN	NaN	NaN	NaN	NaN
29.121734800000013	2.3518	sub-07	1	localizer	blank	interval	NaN	NaN	NaN	NaN	NaN	NaN	NaN	NaN	NaN	NaN	NaN	NaN
31.774771299999884	0.4994	sub-07	1	localizer	stimulus	Stuhl	NaN	0	2.1348189999998795	NaN	True	NaN	NaN	NaN	NaN	NaN	NaN	NaN
32.25770929999999	2.1348	sub-07	1	localizer	blank	interval	NaN	NaN	NaN	NaN	NaN	NaN	NaN	NaN	NaN	NaN	NaN	NaN
34.69357690000015	0.4996	sub-07	1	localizer	stimulus	Katze	NaN	0	2.5519475999999486	NaN	True	NaN	NaN	NaN	NaN	NaN	NaN	NaN
35.17652220000036	2.5519	sub-07	1	localizer	blank	interval	NaN	NaN	NaN	NaN	NaN	NaN	NaN	NaN	NaN	NaN	NaN	NaN
38.029578600000605	0.4996	sub-07	1	localizer	stimulus	Katze	NaN	0	2.668726400000196	NaN	True	NaN	NaN	NaN	NaN	NaN	NaN	NaN
38.51260550000006	2.6687	sub-07	1	localizer	blank	interval	NaN	NaN	NaN	NaN	NaN	NaN	NaN	NaN	NaN	NaN	NaN	NaN
41.482423800000106	0.4994	sub-07	1	localizer	stimulus	Gesicht	NaN	0	2.5851257000003898	NaN	True	NaN	NaN	NaN	NaN	NaN	NaN	NaN
41.96566979999989	2.5851	sub-07	1	localizer	blank	interval	NaN	NaN	NaN	NaN	NaN	NaN	NaN	NaN	NaN	NaN	NaN	NaN
44.85190950000015	0.4995	sub-07	1	localizer	stimulus	Katze	NaN	0	3.4691812000000937	NaN	True	NaN	NaN	NaN	NaN	NaN	NaN	NaN
45.334843399999954	3.4692	sub-07	1	localizer	blank	interval	NaN	NaN	NaN	NaN	NaN	NaN	NaN	NaN	NaN	NaN	NaN	NaN
49.10545309999998	0.4992	sub-07	1	localizer	stimulus	Schuh	NaN	0	3.1860162000002674	-10.771570099999735	False	NaN	NaN	NaN	NaN	NaN	NaN	NaN
49.588175599999886	3.186	sub-07	1	localizer	blank	interval	NaN	NaN	NaN	NaN	NaN	NaN	NaN	NaN	NaN	NaN	NaN	NaN
53.07528410000032	0.4994	sub-07	1	localizer	stimulus	Gesicht	NaN	0	1.9347547999996095	NaN	True	NaN	NaN	NaN	NaN	NaN	NaN	NaN
53.558056800000486	1.9348	sub-07	1	localizer	blank	interval	NaN	NaN	NaN	NaN	NaN	NaN	NaN	NaN	NaN	NaN	NaN	NaN
55.794101299999966	0.4994	sub-07	1	localizer	stimulus	Gesicht	NaN	0	3.068970100000108	NaN	True	NaN	NaN	NaN	NaN	NaN	NaN	NaN
56.27696050000032	3.069	sub-07	1	localizer	blank	interval	NaN	NaN	NaN	NaN	NaN	NaN	NaN	NaN	NaN	NaN	NaN	NaN
59.64711869999974	0.4996	sub-07	1	localizer	stimulus	Stuhl	NaN	180	3.3358949999992547	-10.665360499999224	True	NaN	NaN	NaN	NaN	NaN	NaN	NaN
60.130082600000605	3.3359	sub-07	1	localizer	blank	interval	NaN	NaN	NaN	NaN	NaN	NaN	NaN	NaN	NaN	NaN	NaN	NaN
63.76728189999994	0.4993	sub-07	1	localizer	stimulus	Schuh	NaN	0	3.202826400000049	NaN	True	NaN	NaN	NaN	NaN	NaN	NaN	NaN
64.25005450000026	3.2028	sub-07	1	localizer	blank	interval	NaN	NaN	NaN	NaN	NaN	NaN	NaN	NaN	NaN	NaN	NaN	NaN
67.75405219999993	0.4992	sub-07	1	localizer	stimulus	Katze	NaN	180	2.985606899999766	-10.627731499999754	True	NaN	NaN	NaN	NaN	NaN	NaN	NaN
68.23673620000045	2.9856	sub-07	1	localizer	blank	interval	NaN	NaN	NaN	NaN	NaN	NaN	NaN	NaN	NaN	NaN	NaN	NaN
71.5233804999998	0.4997	sub-07	1	localizer	stimulus	Stuhl	NaN	0	2.968823300000622	NaN	True	NaN	NaN	NaN	NaN	NaN	NaN	NaN
72.00639339999998	2.9688	sub-07	1	localizer	blank	interval	NaN	NaN	NaN	NaN	NaN	NaN	NaN	NaN	NaN	NaN	NaN	NaN
75.27640549999978	0.4995	sub-07	1	localizer	stimulus	Gesicht	NaN	0	1.9681848000000173	NaN	True	NaN	NaN	NaN	NaN	NaN	NaN	NaN
75.75943129999996	1.9682	sub-07	1	localizer	blank	interval	NaN	NaN	NaN	NaN	NaN	NaN	NaN	NaN	NaN	NaN	NaN	NaN
78.02865560000009	0.4994	sub-07	1	localizer	stimulus	Haus	NaN	180	2.318343200000527	-10.678584299999784	True	NaN	NaN	NaN	NaN	NaN	NaN	NaN
78.5115894999999	2.3183	sub-07	1	localizer	blank	interval	NaN	NaN	NaN	NaN	NaN	NaN	NaN	NaN	NaN	NaN	NaN	NaN
81.13110490000054	0.4996	sub-07	1	localizer	stimulus	Schuh	NaN	0	3.669494300000224	NaN	True	NaN	NaN	NaN	NaN	NaN	NaN	NaN
81.61415959999977	3.6695	sub-07	1	localizer	blank	interval	NaN	NaN	NaN	NaN	NaN	NaN	NaN	NaN	NaN	NaN	NaN	NaN
85.58480529999997	0.4997	sub-07	1	localizer	stimulus	Haus	NaN	0	2.418414199999461	NaN	True	NaN	NaN	NaN	NaN	NaN	NaN	NaN
86.06787450000047	2.4184	sub-07	1	localizer	blank	interval	NaN	NaN	NaN	NaN	NaN	NaN	NaN	NaN	NaN	NaN	NaN	NaN
88.7873024999999	0.4995	sub-07	1	localizer	stimulus	Katze	NaN	0	3.669644100000383	NaN	True	NaN	NaN	NaN	NaN	NaN	NaN	NaN
89.27022940000006	3.6696	sub-07	1	localizer	blank	interval	NaN	NaN	NaN	NaN	NaN	NaN	NaN	NaN	NaN	NaN	NaN	NaN
93.2409636000002	0.4995	sub-07	1	localizer	stimulus	Haus	NaN	0	2.034512399999585	NaN	True	NaN	NaN	NaN	NaN	NaN	NaN	NaN
93.72420010000042	2.0345	sub-07	1	localizer	blank	interval	NaN	NaN	NaN	NaN	NaN	NaN	NaN	NaN	NaN	NaN	NaN	NaN
96.05984499999975	0.4995	sub-07	1	localizer	stimulus	Stuhl	NaN	0	2.9520817000002353	NaN	True	NaN	NaN	NaN	NaN	NaN	NaN	NaN
96.54286320000028	2.9521	sub-07	1	localizer	blank	interval	NaN	NaN	NaN	NaN	NaN	NaN	NaN	NaN	NaN	NaN	NaN	NaN
99.7961935000003	0.4995	sub-07	1	localizer	stimulus	Stuhl	NaN	0	3.0189846000002802	NaN	True	NaN	NaN	NaN	NaN	NaN	NaN	NaN
100.27911459999996	3.019	sub-07	1	localizer	blank	interval	NaN	NaN	NaN	NaN	NaN	NaN	NaN	NaN	NaN	NaN	NaN	NaN
103.59928330000002	0.4995	sub-07	1	localizer	stimulus	Haus	NaN	0	2.4300514000006075	NaN	True	NaN	NaN	NaN	NaN	NaN	NaN	NaN
104.08748999999987	2.4301	sub-07	1	localizer	blank	interval	NaN	NaN	NaN	NaN	NaN	NaN	NaN	NaN	NaN	NaN	NaN	NaN
106.81863609999982	0.4995	sub-07	1	localizer	stimulus	Haus	NaN	0	2.768621499999412	NaN	True	NaN	NaN	NaN	NaN	NaN	NaN	NaN
107.30172670000049	2.7686	sub-07	1	localizer	blank	interval	NaN	NaN	NaN	NaN	NaN	NaN	NaN	NaN	NaN	NaN	NaN	NaN
110.37143370000013	0.4996	sub-07	1	localizer	stimulus	Gesicht	NaN	180	2.4186302999996627	-10.686228699999448	True	NaN	NaN	NaN	NaN	NaN	NaN	NaN
110.85433840000042	2.4186	sub-07	1	localizer	blank	interval	NaN	NaN	NaN	NaN	NaN	NaN	NaN	NaN	NaN	NaN	NaN	NaN
113.57405889999971	0.5	sub-07	1	localizer	stimulus	Schuh	NaN	0	2.6519052000003143	NaN	True	NaN	NaN	NaN	NaN	NaN	NaN	NaN
114.0570361	2.6519	sub-07	1	localizer	blank	interval	NaN	NaN	NaN	NaN	NaN	NaN	NaN	NaN	NaN	NaN	NaN	NaN
120.19539450000048	1.0005	sub-07	1	sequence	cue	Katze	NaN	NaN	NaN	NaN	NaN	NaN	NaN	NaN	NaN	NaN	NaN	NaN
121.19594880000022	2.0016	sub-07	1	sequence	blank	blank	NaN	NaN	NaN	NaN	NaN	NaN	NaN	NaN	NaN	NaN	NaN	NaN
123.1975824000001	0.3002	sub-07	1	sequence	fixation	dot	NaN	NaN	NaN	NaN	NaN	NaN	NaN	NaN	NaN	NaN	NaN	NaN
123.54624119999971	0.1018	sub-07	1	sequence	stimulus	Stuhl	NaN	NaN	64.0	NaN	NaN	5.0	1.0	NaN	NaN	NaN	NaN	NaN
123.64806409999984	0.0667	sub-07	1	sequence	interval	dot	NaN	NaN	NaN	NaN	NaN	NaN	NaN	NaN	NaN	NaN	NaN	NaN
123.71480580000024	0.1	sub-07	1	sequence	stimulus	Schuh	NaN	NaN	64.0	NaN	NaN	4.0	2.0	NaN	NaN	NaN	NaN	NaN
123.81475760000012	0.0669	sub-07	1	sequence	interval	dot	NaN	NaN	NaN	NaN	NaN	NaN	NaN	NaN	NaN	NaN	NaN	NaN
123.88165879999995	0.1	sub-07	1	sequence	stimulus	Haus	NaN	NaN	64.0	NaN	NaN	2.0	3.0	NaN	NaN	NaN	NaN	NaN
123.98165560000052	0.0668	sub-07	1	sequence	interval	dot	NaN	NaN	NaN	NaN	NaN	NaN	NaN	NaN	NaN	NaN	NaN	NaN
124.04844349999983	0.1	sub-07	1	sequence	stimulus	Katze	NaN	NaN	64.0	NaN	NaN	3.0	4.0	NaN	NaN	NaN	NaN	NaN
124.14845770000012	0.0668	sub-07	1	sequence	interval	dot	NaN	NaN	NaN	NaN	NaN	NaN	NaN	NaN	NaN	NaN	NaN	NaN
124.21525160000056	0.1	sub-07	1	sequence	stimulus	Gesicht	NaN	NaN	64.0	NaN	NaN	1.0	5.0	NaN	NaN	NaN	NaN	NaN
124.31525570000032	0.0666	sub-07	1	sequence	interval	dot	NaN	NaN	NaN	NaN	NaN	NaN	NaN	NaN	NaN	NaN	NaN	NaN
124.3818997999997	8.3717	sub-07	1	sequence	delay	dot	NaN	NaN	NaN	NaN	NaN	NaN	NaN	NaN	NaN	NaN	NaN	NaN
132.7347391000003	0.9721	sub-07	1	sequence	choice	choice	left	NaN	NaN	-10.348146799999997	True	NaN	NaN	left	1.0	4.0	5.0	4.0
133.7072444000005	0.4995	sub-07	1	sequence	feedback	NaN	NaN	NaN	NaN	NaN	NaN	NaN	NaN	NaN	NaN	NaN	NaN	NaN
134.20701720000034	1.0004	sub-07	1	sequence	cue	Haus	NaN	NaN	NaN	NaN	NaN	NaN	NaN	NaN	NaN	NaN	NaN	NaN
135.20745309999984	2.0015	sub-07	1	sequence	blank	blank	NaN	NaN	NaN	NaN	NaN	NaN	NaN	NaN	NaN	NaN	NaN	NaN
137.20896660000017	0.3003	sub-07	1	sequence	fixation	dot	NaN	NaN	NaN	NaN	NaN	NaN	NaN	NaN	NaN	NaN	NaN	NaN
137.5269631000001	0.099	sub-07	1	sequence	stimulus	Katze	NaN	NaN	32.0	NaN	NaN	3.0	1.0	NaN	NaN	NaN	NaN	NaN
137.62600250000014	0.0333	sub-07	1	sequence	interval	dot	NaN	NaN	NaN	NaN	NaN	NaN	NaN	NaN	NaN	NaN	NaN	NaN
137.65934110000035	0.1001	sub-07	1	sequence	stimulus	Gesicht	NaN	NaN	32.0	NaN	NaN	1.0	2.0	NaN	NaN	NaN	NaN	NaN
137.75942730000045	0.0334	sub-07	1	sequence	interval	dot	NaN	NaN	NaN	NaN	NaN	NaN	NaN	NaN	NaN	NaN	NaN	NaN
137.79286599999978	0.1	sub-07	1	sequence	stimulus	Schuh	NaN	NaN	32.0	NaN	NaN	4.0	3.0	NaN	NaN	NaN	NaN	NaN
137.8929109999999	0.0335	sub-07	1	sequence	interval	dot	NaN	NaN	NaN	NaN	NaN	NaN	NaN	NaN	NaN	NaN	NaN	NaN
137.92642460000025	0.0999	sub-07	1	sequence	stimulus	Haus	NaN	NaN	32.0	NaN	NaN	2.0	4.0	NaN	NaN	NaN	NaN	NaN
138.02632429999994	0.0334	sub-07	1	sequence	interval	dot	NaN	NaN	NaN	NaN	NaN	NaN	NaN	NaN	NaN	NaN	NaN	NaN
138.05976809999993	0.0999	sub-07	1	sequence	stimulus	Stuhl	NaN	NaN	32.0	NaN	NaN	5.0	5.0	NaN	NaN	NaN	NaN	NaN
138.15971030000037	0.0332	sub-07	1	sequence	interval	dot	NaN	NaN	NaN	NaN	NaN	NaN	NaN	NaN	NaN	NaN	NaN	NaN
138.1929398000002	8.522	sub-07	1	sequence	delay	dot	NaN	NaN	NaN	NaN	NaN	NaN	NaN	NaN	NaN	NaN	NaN	NaN
146.6963679999999	1.2721	sub-07	1	sequence	choice	choice	right	NaN	NaN	-10.053139099999498	True	NaN	NaN	right	True	2.0	4.0	4.0
147.9687457	0.4996	sub-07	1	sequence	feedback	NaN	NaN	NaN	NaN	NaN	NaN	NaN	NaN	NaN	NaN	NaN	NaN	NaN
148.46850660000018	1.0004	sub-07	1	sequence	cue	Haus	NaN	NaN	NaN	NaN	NaN	NaN	NaN	NaN	NaN	NaN	NaN	NaN
149.46886670000004	2.0017	sub-07	1	sequence	blank	blank	NaN	NaN	NaN	NaN	NaN	NaN	NaN	NaN	NaN	NaN	NaN	NaN
151.47057330000007	0.3002	sub-07	1	sequence	fixation	dot	NaN	NaN	NaN	NaN	NaN	NaN	NaN	NaN	NaN	NaN	NaN	NaN
151.78934310000022	0.1148	sub-07	1	sequence	stimulus	Katze	NaN	NaN	32.0	NaN	NaN	3.0	1.0	NaN	NaN	NaN	NaN	NaN
151.9041588	0.0335	sub-07	1	sequence	interval	dot	NaN	NaN	NaN	NaN	NaN	NaN	NaN	NaN	NaN	NaN	NaN	NaN
151.93770229999973	0.0999	sub-07	1	sequence	stimulus	Gesicht	NaN	NaN	32.0	NaN	NaN	1.0	2.0	NaN	NaN	NaN	NaN	NaN
152.0375834000006	0.0334	sub-07	1	sequence	interval	dot	NaN	NaN	NaN	NaN	NaN	NaN	NaN	NaN	NaN	NaN	NaN	NaN
152.07102860000032	0.1	sub-07	1	sequence	stimulus	Haus	NaN	NaN	32.0	NaN	NaN	2.0	3.0	NaN	NaN	NaN	NaN	NaN
152.17100630000004	0.0334	sub-07	1	sequence	interval	dot	NaN	NaN	NaN	NaN	NaN	NaN	NaN	NaN	NaN	NaN	NaN	NaN
152.20445449999988	0.1	sub-07	1	sequence	stimulus	Stuhl	NaN	NaN	32.0	NaN	NaN	5.0	4.0	NaN	NaN	NaN	NaN	NaN
152.3044719999998	0.0334	sub-07	1	sequence	interval	dot	NaN	NaN	NaN	NaN	NaN	NaN	NaN	NaN	NaN	NaN	NaN	NaN
152.33790670000053	0.1	sub-07	1	sequence	stimulus	Schuh	NaN	NaN	32.0	NaN	NaN	4.0	5.0	NaN	NaN	NaN	NaN	NaN
152.43790910000007	0.0333	sub-07	1	sequence	interval	dot	NaN	NaN	NaN	NaN	NaN	NaN	NaN	NaN	NaN	NaN	NaN	NaN
152.47123699999975	8.5385	sub-07	1	sequence	delay	dot	NaN	NaN	NaN	NaN	NaN	NaN	NaN	NaN	NaN	NaN	NaN	NaN
160.99614889999975	0.9501	sub-07	1	sequence	choice	choice	right	NaN	NaN	-10.364020699999855	True	NaN	NaN	right	True	4.0	3.0	3.0
161.94653470000048	0.4998	sub-07	1	sequence	feedback	NaN	NaN	NaN	NaN	NaN	NaN	NaN	NaN	NaN	NaN	NaN	NaN	NaN
162.4465895000003	1.0003	sub-07	1	sequence	cue	Gesicht	NaN	NaN	NaN	NaN	NaN	NaN	NaN	NaN	NaN	NaN	NaN	NaN
163.4468710000001	2.0015	sub-07	1	sequence	blank	blank	NaN	NaN	NaN	NaN	NaN	NaN	NaN	NaN	NaN	NaN	NaN	NaN
165.44840300000033	0.3004	sub-07	1	sequence	fixation	dot	NaN	NaN	NaN	NaN	NaN	NaN	NaN	NaN	NaN	NaN	NaN	NaN
165.7669689000004	0.1152	sub-07	1	sequence	stimulus	Stuhl	NaN	NaN	64.0	NaN	NaN	5.0	1.0	NaN	NaN	NaN	NaN	NaN
165.8821598000004	0.0668	sub-07	1	sequence	interval	dot	NaN	NaN	NaN	NaN	NaN	NaN	NaN	NaN	NaN	NaN	NaN	NaN
165.94898710000052	0.1001	sub-07	1	sequence	stimulus	Katze	NaN	NaN	64.0	NaN	NaN	3.0	2.0	NaN	NaN	NaN	NaN	NaN
166.04912160000003	0.0668	sub-07	1	sequence	interval	dot	NaN	NaN	NaN	NaN	NaN	NaN	NaN	NaN	NaN	NaN	NaN	NaN
166.1158876999998	0.0999	sub-07	1	sequence	stimulus	Schuh	NaN	NaN	64.0	NaN	NaN	4.0	3.0	NaN	NaN	NaN	NaN	NaN
166.2158148999997	0.067	sub-07	1	sequence	interval	dot	NaN	NaN	NaN	NaN	NaN	NaN	NaN	NaN	NaN	NaN	NaN	NaN
166.2828016000003	0.0998	sub-07	1	sequence	stimulus	Gesicht	NaN	NaN	64.0	NaN	NaN	1.0	4.0	NaN	NaN	NaN	NaN	NaN
166.3825977000006	0.067	sub-07	1	sequence	interval	dot	NaN	NaN	NaN	NaN	NaN	NaN	NaN	NaN	NaN	NaN	NaN	NaN
166.44961239999975	0.0998	sub-07	1	sequence	stimulus	Haus	NaN	NaN	64.0	NaN	NaN	2.0	5.0	NaN	NaN	NaN	NaN	NaN
166.54944299999988	0.0667	sub-07	1	sequence	interval	dot	NaN	NaN	NaN	NaN	NaN	NaN	NaN	NaN	NaN	NaN	NaN	NaN
166.61609980000048	8.3885	sub-07	1	sequence	delay	dot	NaN	NaN	NaN	NaN	NaN	NaN	NaN	NaN	NaN	NaN	NaN	NaN
174.98397840000052	1.007	sub-07	1	sequence	choice	choice	right	NaN	NaN	-10.319004400000267	True	NaN	NaN	right	True	3.0	4.0	4.0
175.99124120000033	0.4997	sub-07	1	sequence	feedback	NaN	NaN	NaN	NaN	NaN	NaN	NaN	NaN	NaN	NaN	NaN	NaN	NaN
176.49112280000008	1.0006	sub-07	1	sequence	cue	Katze	NaN	NaN	NaN	NaN	NaN	NaN	NaN	NaN	NaN	NaN	NaN	NaN
177.49169429999984	2.0014	sub-07	1	sequence	blank	blank	NaN	NaN	NaN	NaN	NaN	NaN	NaN	NaN	NaN	NaN	NaN	NaN
179.4930532999997	0.3002	sub-07	1	sequence	fixation	dot	NaN	NaN	NaN	NaN	NaN	NaN	NaN	NaN	NaN	NaN	NaN	NaN
179.81086070000038	0.0993	sub-07	1	sequence	stimulus	Gesicht	NaN	NaN	512.0	NaN	NaN	1.0	1.0	NaN	NaN	NaN	NaN	NaN
179.91013889999977	0.5173	sub-07	1	sequence	interval	dot	NaN	NaN	NaN	NaN	NaN	NaN	NaN	NaN	NaN	NaN	NaN	NaN
180.42741339999972	0.0999	sub-07	1	sequence	stimulus	Stuhl	NaN	NaN	512.0	NaN	NaN	5.0	2.0	NaN	NaN	NaN	NaN	NaN
180.52733590000025	0.5172	sub-07	1	sequence	interval	dot	NaN	NaN	NaN	NaN	NaN	NaN	NaN	NaN	NaN	NaN	NaN	NaN
181.04452690000016	0.1	sub-07	1	sequence	stimulus	Haus	NaN	NaN	512.0	NaN	NaN	2.0	3.0	NaN	NaN	NaN	NaN	NaN
181.14449969999987	0.5171	sub-07	1	sequence	interval	dot	NaN	NaN	NaN	NaN	NaN	NaN	NaN	NaN	NaN	NaN	NaN	NaN
181.66162030000032	0.0999	sub-07	1	sequence	stimulus	Schuh	NaN	NaN	512.0	NaN	NaN	4.0	4.0	NaN	NaN	NaN	NaN	NaN
181.76153650000012	0.5172	sub-07	1	sequence	interval	dot	NaN	NaN	NaN	NaN	NaN	NaN	NaN	NaN	NaN	NaN	NaN	NaN
182.27871510000023	0.1001	sub-07	1	sequence	stimulus	Katze	NaN	NaN	512.0	NaN	NaN	3.0	5.0	NaN	NaN	NaN	NaN	NaN
182.3788612999997	0.517	sub-07	1	sequence	interval	dot	NaN	NaN	NaN	NaN	NaN	NaN	NaN	NaN	NaN	NaN	NaN	NaN
182.8958849999999	6.1536	sub-07	1	sequence	delay	dot	NaN	NaN	NaN	NaN	NaN	NaN	NaN	NaN	NaN	NaN	NaN	NaN
189.02347680000003	0.9455	sub-07	1	sequence	choice	choice	right	NaN	NaN	-10.395922600000633	True	NaN	NaN	right	True	3.0	5.0	5.0
189.96921310000016	0.4997	sub-07	1	sequence	feedback	NaN	NaN	NaN	NaN	NaN	NaN	NaN	NaN	NaN	NaN	NaN	NaN	NaN
190.4691898000001	1.0005	sub-07	1	sequence	cue	Stuhl	NaN	NaN	NaN	NaN	NaN	NaN	NaN	NaN	NaN	NaN	NaN	NaN
191.46967760000007	2.0015	sub-07	1	sequence	blank	blank	NaN	NaN	NaN	NaN	NaN	NaN	NaN	NaN	NaN	NaN	NaN	NaN
193.4711747000001	0.3002	sub-07	1	sequence	fixation	dot	NaN	NaN	NaN	NaN	NaN	NaN	NaN	NaN	NaN	NaN	NaN	NaN
193.7888640000001	0.0992	sub-07	1	sequence	stimulus	Katze	NaN	NaN	128.0	NaN	NaN	3.0	1.0	NaN	NaN	NaN	NaN	NaN
193.8880306000001	0.1336	sub-07	1	sequence	interval	dot	NaN	NaN	NaN	NaN	NaN	NaN	NaN	NaN	NaN	NaN	NaN	NaN
194.02164600000012	0.0999	sub-07	1	sequence	stimulus	Haus	NaN	NaN	128.0	NaN	NaN	2.0	2.0	NaN	NaN	NaN	NaN	NaN
194.1215748000004	0.1336	sub-07	1	sequence	interval	dot	NaN	NaN	NaN	NaN	NaN	NaN	NaN	NaN	NaN	NaN	NaN	NaN
194.2552037000005	0.0998	sub-07	1	sequence	stimulus	Schuh	NaN	NaN	128.0	NaN	NaN	4.0	3.0	NaN	NaN	NaN	NaN	NaN
194.3550212	0.1337	sub-07	1	sequence	interval	dot	NaN	NaN	NaN	NaN	NaN	NaN	NaN	NaN	NaN	NaN	NaN	NaN
194.48873939999976	0.1	sub-07	1	sequence	stimulus	Gesicht	NaN	NaN	128.0	NaN	NaN	1.0	4.0	NaN	NaN	NaN	NaN	NaN
194.5886930000006	0.1335	sub-07	1	sequence	interval	dot	NaN	NaN	NaN	NaN	NaN	NaN	NaN	NaN	NaN	NaN	NaN	NaN
194.7221844000005	0.1	sub-07	1	sequence	stimulus	Stuhl	NaN	NaN	128.0	NaN	NaN	5.0	5.0	NaN	NaN	NaN	NaN	NaN
194.82221620000016	0.1334	sub-07	1	sequence	interval	dot	NaN	NaN	NaN	NaN	NaN	NaN	NaN	NaN	NaN	NaN	NaN	NaN
194.95561069999985	8.055	sub-07	1	sequence	delay	dot	NaN	NaN	NaN	NaN	NaN	NaN	NaN	NaN	NaN	NaN	NaN	NaN
202.98521600000004	1.045	sub-07	1	sequence	choice	choice	left	NaN	NaN	-10.285433600000031	True	NaN	NaN	left	True	5.0	4.0	5.0
204.0304575	0.4999	sub-07	1	sequence	feedback	NaN	NaN	NaN	NaN	NaN	NaN	NaN	NaN	NaN	NaN	NaN	NaN	NaN
204.53061440000056	1.0003	sub-07	1	sequence	cue	Haus	NaN	NaN	NaN	NaN	NaN	NaN	NaN	NaN	NaN	NaN	NaN	NaN
205.53088490000027	2.0017	sub-07	1	sequence	blank	blank	NaN	NaN	NaN	NaN	NaN	NaN	NaN	NaN	NaN	NaN	NaN	NaN
207.5325647	0.3003	sub-07	1	sequence	fixation	dot	NaN	NaN	NaN	NaN	NaN	NaN	NaN	NaN	NaN	NaN	NaN	NaN
207.8510728000001	0.1151	sub-07	1	sequence	stimulus	Schuh	NaN	NaN	128.0	NaN	NaN	4.0	1.0	NaN	NaN	NaN	NaN	NaN
207.96619240000015	0.1335	sub-07	1	sequence	interval	dot	NaN	NaN	NaN	NaN	NaN	NaN	NaN	NaN	NaN	NaN	NaN	NaN
208.0997296000005	0.1	sub-07	1	sequence	stimulus	Stuhl	NaN	NaN	128.0	NaN	NaN	5.0	2.0	NaN	NaN	NaN	NaN	NaN
208.19969010000025	0.1336	sub-07	1	sequence	interval	dot	NaN	NaN	NaN	NaN	NaN	NaN	NaN	NaN	NaN	NaN	NaN	NaN
208.3332492999998	0.1001	sub-07	1	sequence	stimulus	Katze	NaN	NaN	128.0	NaN	NaN	3.0	3.0	NaN	NaN	NaN	NaN	NaN
208.4333062000005	0.1336	sub-07	1	sequence	interval	dot	NaN	NaN	NaN	NaN	NaN	NaN	NaN	NaN	NaN	NaN	NaN	NaN
208.56687620000048	0.0999	sub-07	1	sequence	stimulus	Haus	NaN	NaN	128.0	NaN	NaN	2.0	4.0	NaN	NaN	NaN	NaN	NaN
208.6667742	0.1336	sub-07	1	sequence	interval	dot	NaN	NaN	NaN	NaN	NaN	NaN	NaN	NaN	NaN	NaN	NaN	NaN
208.8003875000004	0.1	sub-07	1	sequence	stimulus	Gesicht	NaN	NaN	128.0	NaN	NaN	1.0	5.0	NaN	NaN	NaN	NaN	NaN
208.9004371000001	0.1335	sub-07	1	sequence	interval	dot	NaN	NaN	NaN	NaN	NaN	NaN	NaN	NaN	NaN	NaN	NaN	NaN
209.0339672	8.0546	sub-07	1	sequence	delay	dot	NaN	NaN	NaN	NaN	NaN	NaN	NaN	NaN	NaN	NaN	NaN	NaN
217.07692839999984	1.1982	sub-07	1	sequence	choice	choice	left	NaN	NaN	-10.123618699999495	True	NaN	NaN	left	True	4.0	3.0	4.0
218.2754061000005	0.4999	sub-07	1	sequence	feedback	NaN	NaN	NaN	NaN	NaN	NaN	NaN	NaN	NaN	NaN	NaN	NaN	NaN
218.7755403000001	1.0003	sub-07	1	sequence	cue	Gesicht	NaN	NaN	NaN	NaN	NaN	NaN	NaN	NaN	NaN	NaN	NaN	NaN
219.77583260000029	2.0015	sub-07	1	sequence	blank	blank	NaN	NaN	NaN	NaN	NaN	NaN	NaN	NaN	NaN	NaN	NaN	NaN
221.7773761999997	0.3003	sub-07	1	sequence	fixation	dot	NaN	NaN	NaN	NaN	NaN	NaN	NaN	NaN	NaN	NaN	NaN	NaN
222.0950474000001	0.0993	sub-07	1	sequence	stimulus	Katze	NaN	NaN	512.0	NaN	NaN	3.0	1.0	NaN	NaN	NaN	NaN	NaN
222.19434850000016	0.5171	sub-07	1	sequence	interval	dot	NaN	NaN	NaN	NaN	NaN	NaN	NaN	NaN	NaN	NaN	NaN	NaN
222.7114468	0.1	sub-07	1	sequence	stimulus	Gesicht	NaN	NaN	512.0	NaN	NaN	1.0	2.0	NaN	NaN	NaN	NaN	NaN
222.8114716	0.5173	sub-07	1	sequence	interval	dot	NaN	NaN	NaN	NaN	NaN	NaN	NaN	NaN	NaN	NaN	NaN	NaN
223.3287296999997	0.0998	sub-07	1	sequence	stimulus	Stuhl	NaN	NaN	512.0	NaN	NaN	5.0	3.0	NaN	NaN	NaN	NaN	NaN
223.42856370000027	0.5174	sub-07	1	sequence	interval	dot	NaN	NaN	NaN	NaN	NaN	NaN	NaN	NaN	NaN	NaN	NaN	NaN
223.94592610000015	0.0999	sub-07	1	sequence	stimulus	Haus	NaN	NaN	512.0	NaN	NaN	2.0	4.0	NaN	NaN	NaN	NaN	NaN
224.04584859999977	0.5171	sub-07	1	sequence	interval	dot	NaN	NaN	NaN	NaN	NaN	NaN	NaN	NaN	NaN	NaN	NaN	NaN
224.5629604000005	0.0999	sub-07	1	sequence	stimulus	Schuh	NaN	NaN	512.0	NaN	NaN	4.0	5.0	NaN	NaN	NaN	NaN	NaN
224.6628692000004	0.5172	sub-07	1	sequence	interval	dot	NaN	NaN	NaN	NaN	NaN	NaN	NaN	NaN	NaN	NaN	NaN	NaN
225.1801012000005	6.1366	sub-07	1	sequence	delay	dot	NaN	NaN	NaN	NaN	NaN	NaN	NaN	NaN	NaN	NaN	NaN	NaN
231.29853189999997	0.7375	sub-07	1	sequence	choice	choice	left	NaN	NaN	-10.590327399999296	True	NaN	NaN	left	True	2.0	5.0	2.0
232.03627529999997	0.4998	sub-07	1	sequence	feedback	NaN	NaN	NaN	NaN	NaN	NaN	NaN	NaN	NaN	NaN	NaN	NaN	NaN
236.3566916	0.4995	sub-07	1	localizer	stimulus	Gesicht	NaN	0	2.06817669999964	NaN	True	NaN	NaN	NaN	NaN	NaN	NaN	NaN
236.8396584000002	2.0682	sub-07	1	localizer	blank	interval	NaN	NaN	NaN	NaN	NaN	NaN	NaN	NaN	NaN	NaN	NaN	NaN
239.20889840000015	0.4997	sub-07	1	localizer	stimulus	Gesicht	NaN	180	2.151641599999465	-10.403672699999332	True	NaN	NaN	NaN	NaN	NaN	NaN	NaN
239.69197590000024	2.1516	sub-07	1	localizer	blank	interval	NaN	NaN	NaN	NaN	NaN	NaN	NaN	NaN	NaN	NaN	NaN	NaN
242.14462439999988	0.4995	sub-07	1	localizer	stimulus	Katze	NaN	0	1.3846875999997792	NaN	True	NaN	NaN	NaN	NaN	NaN	NaN	NaN
242.62754190000032	1.3847	sub-07	1	localizer	blank	interval	NaN	NaN	NaN	NaN	NaN	NaN	NaN	NaN	NaN	NaN	NaN	NaN
244.31301890000032	0.4996	sub-07	1	localizer	stimulus	Schuh	NaN	0	2.5186946000003445	NaN	True	NaN	NaN	NaN	NaN	NaN	NaN	NaN
244.79607099999976	2.5187	sub-07	1	localizer	blank	interval	NaN	NaN	NaN	NaN	NaN	NaN	NaN	NaN	NaN	NaN	NaN	NaN
247.61573300000052	0.4995	sub-07	1	localizer	stimulus	Haus	NaN	0	2.9352487999994707	NaN	True	NaN	NaN	NaN	NaN	NaN	NaN	NaN
248.09895380000037	2.9352	sub-07	1	localizer	blank	interval	NaN	NaN	NaN	NaN	NaN	NaN	NaN	NaN	NaN	NaN	NaN	NaN
251.33546530000055	0.4994	sub-07	1	localizer	stimulus	Katze	NaN	180	3.402663200000461	-10.720695899999557	True	NaN	NaN	NaN	NaN	NaN	NaN	NaN
251.8182982999997	3.4027	sub-07	1	localizer	blank	interval	NaN	NaN	NaN	NaN	NaN	NaN	NaN	NaN	NaN	NaN	NaN	NaN
255.52213780000056	0.4995	sub-07	1	localizer	stimulus	Gesicht	NaN	0	3.0023010000004433	NaN	True	NaN	NaN	NaN	NaN	NaN	NaN	NaN
256.0050474999998	3.0023	sub-07	1	localizer	blank	interval	NaN	NaN	NaN	NaN	NaN	NaN	NaN	NaN	NaN	NaN	NaN	NaN
259.3085808000005	0.4995	sub-07	1	localizer	stimulus	Stuhl	NaN	0	2.351881300000059	NaN	True	NaN	NaN	NaN	NaN	NaN	NaN	NaN
259.7915678999998	2.3519	sub-07	1	localizer	blank	interval	NaN	NaN	NaN	NaN	NaN	NaN	NaN	NaN	NaN	NaN	NaN	NaN
262.4445562000001	0.4995	sub-07	1	localizer	stimulus	Stuhl	NaN	0	1.734613800000261	NaN	True	NaN	NaN	NaN	NaN	NaN	NaN	NaN
262.9274083999999	1.7346	sub-07	1	localizer	blank	interval	NaN	NaN	NaN	NaN	NaN	NaN	NaN	NaN	NaN	NaN	NaN	NaN
264.9631664999997	0.4994	sub-07	1	localizer	stimulus	Katze	NaN	0	3.4360624999999345	NaN	True	NaN	NaN	NaN	NaN	NaN	NaN	NaN
265.44602209999994	3.4361	sub-07	1	localizer	blank	interval	NaN	NaN	NaN	NaN	NaN	NaN	NaN	NaN	NaN	NaN	NaN	NaN
269.18330270000024	0.4995	sub-07	1	localizer	stimulus	Katze	NaN	0	2.668522999999368	NaN	True	NaN	NaN	NaN	NaN	NaN	NaN	NaN
269.6663359000004	2.6685	sub-07	1	localizer	blank	interval	NaN	NaN	NaN	NaN	NaN	NaN	NaN	NaN	NaN	NaN	NaN	NaN
272.63595690000056	0.4996	sub-07	1	localizer	stimulus	Stuhl	NaN	0	1.8346950999994078	NaN	True	NaN	NaN	NaN	NaN	NaN	NaN	NaN
273.11887970000043	1.8347	sub-07	1	localizer	blank	interval	NaN	NaN	NaN	NaN	NaN	NaN	NaN	NaN	NaN	NaN	NaN	NaN
275.2547876999997	0.4995	sub-07	1	localizer	stimulus	Haus	NaN	180	2.6684979999999996	-10.59333069999957	True	NaN	NaN	NaN	NaN	NaN	NaN	NaN
275.7378325999998	2.6685	sub-07	1	localizer	blank	interval	NaN	NaN	NaN	NaN	NaN	NaN	NaN	NaN	NaN	NaN	NaN	NaN
278.70760750000045	0.4993	sub-07	1	localizer	stimulus	Schuh	NaN	0	2.2018975000000864	NaN	True	NaN	NaN	NaN	NaN	NaN	NaN	NaN
279.1904703	2.2019	sub-07	1	localizer	blank	interval	NaN	NaN	NaN	NaN	NaN	NaN	NaN	NaN	NaN	NaN	NaN	NaN
281.6932358000004	0.4996	sub-07	1	localizer	stimulus	Stuhl	NaN	180	2.4351856000002954	-10.632181799999673	True	NaN	NaN	NaN	NaN	NaN	NaN	NaN
282.17628520000017	2.4352	sub-07	1	localizer	blank	interval	NaN	NaN	NaN	NaN	NaN	NaN	NaN	NaN	NaN	NaN	NaN	NaN
284.9125200999997	0.4996	sub-07	1	localizer	stimulus	Gesicht	NaN	0	2.3853478999999425	NaN	True	NaN	NaN	NaN	NaN	NaN	NaN	NaN
285.39546190000056	2.3853	sub-07	1	localizer	blank	interval	NaN	NaN	NaN	NaN	NaN	NaN	NaN	NaN	NaN	NaN	NaN	NaN
288.0817926999998	0.4996	sub-07	1	localizer	stimulus	Haus	NaN	0	2.535243399999672	-10.740610500000004	False	NaN	NaN	NaN	NaN	NaN	NaN	NaN
288.56478640000023	2.5352	sub-07	1	localizer	blank	interval	NaN	NaN	NaN	NaN	NaN	NaN	NaN	NaN	NaN	NaN	NaN	NaN
291.4011408000006	0.4995	sub-07	1	localizer	stimulus	Haus	NaN	0	2.301565599999776	NaN	True	NaN	NaN	NaN	NaN	NaN	NaN	NaN
291.8841996000001	2.3016	sub-07	1	localizer	blank	interval	NaN	NaN	NaN	NaN	NaN	NaN	NaN	NaN	NaN	NaN	NaN	NaN
294.48693809999986	0.4994	sub-07	1	localizer	stimulus	Gesicht	NaN	0	2.335144699999546	NaN	True	NaN	NaN	NaN	NaN	NaN	NaN	NaN
294.9698702000005	2.3351	sub-07	1	localizer	blank	interval	NaN	NaN	NaN	NaN	NaN	NaN	NaN	NaN	NaN	NaN	NaN	NaN
297.6062429000003	0.4993	sub-07	1	localizer	stimulus	Schuh	NaN	0	3.5528551999996125	NaN	True	NaN	NaN	NaN	NaN	NaN	NaN	NaN
298.0891773000003	3.5529	sub-07	1	localizer	blank	interval	NaN	NaN	NaN	NaN	NaN	NaN	NaN	NaN	NaN	NaN	NaN	NaN
301.9429693000002	0.4998	sub-07	1	localizer	stimulus	Katze	NaN	0	2.2516927000006035	NaN	True	NaN	NaN	NaN	NaN	NaN	NaN	NaN
302.42603729999973	2.2517	sub-07	1	localizer	blank	interval	NaN	NaN	NaN	NaN	NaN	NaN	NaN	NaN	NaN	NaN	NaN	NaN
304.9788912000004	0.4993	sub-07	1	localizer	stimulus	Haus	NaN	0	2.0349082000002454	NaN	True	NaN	NaN	NaN	NaN	NaN	NaN	NaN
305.4617472	2.0349	sub-07	1	localizer	blank	interval	NaN	NaN	NaN	NaN	NaN	NaN	NaN	NaN	NaN	NaN	NaN	NaN
307.7977044999998	0.4996	sub-07	1	localizer	stimulus	Stuhl	NaN	0	2.385042899999462	NaN	True	NaN	NaN	NaN	NaN	NaN	NaN	NaN
308.28091550000045	2.385	sub-07	1	localizer	blank	interval	NaN	NaN	NaN	NaN	NaN	NaN	NaN	NaN	NaN	NaN	NaN	NaN
310.9669224	0.4995	sub-07	1	localizer	stimulus	Schuh	NaN	180	2.6352909999995973	-10.568754700000682	True	NaN	NaN	NaN	NaN	NaN	NaN	NaN
311.4499405000006	2.6353	sub-07	1	localizer	blank	interval	NaN	NaN	NaN	NaN	NaN	NaN	NaN	NaN	NaN	NaN	NaN	NaN
314.38638439999977	0.5016	sub-07	1	localizer	stimulus	Schuh	NaN	0	1.2171897000007448	NaN	True	NaN	NaN	NaN	NaN	NaN	NaN	NaN
314.86974629999986	1.2172	sub-07	1	localizer	blank	interval	NaN	NaN	NaN	NaN	NaN	NaN	NaN	NaN	NaN	NaN	NaN	NaN
319.57361540000056	1.0006	sub-07	1	sequence	cue	Haus	NaN	NaN	NaN	NaN	NaN	NaN	NaN	NaN	NaN	NaN	NaN	NaN
320.5741800000005	2.0014	sub-07	1	sequence	blank	blank	NaN	NaN	NaN	NaN	NaN	NaN	NaN	NaN	NaN	NaN	NaN	NaN
322.5755513000004	0.3002	sub-07	1	sequence	fixation	dot	NaN	NaN	NaN	NaN	NaN	NaN	NaN	NaN	NaN	NaN	NaN	NaN
322.89337570000043	0.0992	sub-07	1	sequence	stimulus	Katze	NaN	NaN	32.0	NaN	NaN	3.0	1.0	NaN	NaN	NaN	NaN	NaN
322.99258890000056	0.0334	sub-07	1	sequence	interval	dot	NaN	NaN	NaN	NaN	NaN	NaN	NaN	NaN	NaN	NaN	NaN	NaN
323.0260216000006	0.1001	sub-07	1	sequence	stimulus	Gesicht	NaN	NaN	32.0	NaN	NaN	1.0	2.0	NaN	NaN	NaN	NaN	NaN
323.12608400000045	0.0335	sub-07	1	sequence	interval	dot	NaN	NaN	NaN	NaN	NaN	NaN	NaN	NaN	NaN	NaN	NaN	NaN
323.1595576	0.0999	sub-07	1	sequence	stimulus	Haus	NaN	NaN	32.0	NaN	NaN	2.0	3.0	NaN	NaN	NaN	NaN	NaN
323.25942010000017	0.0335	sub-07	1	sequence	interval	dot	NaN	NaN	NaN	NaN	NaN	NaN	NaN	NaN	NaN	NaN	NaN	NaN
323.2928990999999	0.1	sub-07	1	sequence	stimulus	Stuhl	NaN	NaN	32.0	NaN	NaN	5.0	4.0	NaN	NaN	NaN	NaN	NaN
323.39286360000006	0.0335	sub-07	1	sequence	interval	dot	NaN	NaN	NaN	NaN	NaN	NaN	NaN	NaN	NaN	NaN	NaN	NaN
323.42633170000045	0.0999	sub-07	1	sequence	stimulus	Schuh	NaN	NaN	32.0	NaN	NaN	4.0	5.0	NaN	NaN	NaN	NaN	NaN
323.52627870000015	0.0334	sub-07	1	sequence	interval	dot	NaN	NaN	NaN	NaN	NaN	NaN	NaN	NaN	NaN	NaN	NaN	NaN
323.5596728999999	8.5385	sub-07	1	sequence	delay	dot	NaN	NaN	NaN	NaN	NaN	NaN	NaN	NaN	NaN	NaN	NaN	NaN
332.07238620000044	0.8453	sub-07	1	sequence	choice	choice	left	NaN	NaN	-10.49250209999991	True	NaN	NaN	left	True	3.0	4.0	3.0
332.9180885000005	0.4998	sub-07	1	sequence	feedback	NaN	NaN	NaN	NaN	NaN	NaN	NaN	NaN	NaN	NaN	NaN	NaN	NaN
333.4181059000002	1.0003	sub-07	1	sequence	cue	Haus	NaN	NaN	NaN	NaN	NaN	NaN	NaN	NaN	NaN	NaN	NaN	NaN
334.4184296000003	2.0015	sub-07	1	sequence	blank	blank	NaN	NaN	NaN	NaN	NaN	NaN	NaN	NaN	NaN	NaN	NaN	NaN
336.4199642000003	0.3002	sub-07	1	sequence	fixation	dot	NaN	NaN	NaN	NaN	NaN	NaN	NaN	NaN	NaN	NaN	NaN	NaN
336.73787809999976	0.099	sub-07	1	sequence	stimulus	Stuhl	NaN	NaN	64.0	NaN	NaN	5.0	1.0	NaN	NaN	NaN	NaN	NaN
336.8369055000003	0.067	sub-07	1	sequence	interval	dot	NaN	NaN	NaN	NaN	NaN	NaN	NaN	NaN	NaN	NaN	NaN	NaN
336.9038578999998	0.0999	sub-07	1	sequence	stimulus	Katze	NaN	NaN	64.0	NaN	NaN	3.0	2.0	NaN	NaN	NaN	NaN	NaN
337.00374160000047	0.0668	sub-07	1	sequence	interval	dot	NaN	NaN	NaN	NaN	NaN	NaN	NaN	NaN	NaN	NaN	NaN	NaN
337.0705574000003	0.0999	sub-07	1	sequence	stimulus	Schuh	NaN	NaN	64.0	NaN	NaN	4.0	3.0	NaN	NaN	NaN	NaN	NaN
337.1705047000005	0.067	sub-07	1	sequence	interval	dot	NaN	NaN	NaN	NaN	NaN	NaN	NaN	NaN	NaN	NaN	NaN	NaN
337.2375042000004	0.0999	sub-07	1	sequence	stimulus	Gesicht	NaN	NaN	64.0	NaN	NaN	1.0	4.0	NaN	NaN	NaN	NaN	NaN
337.3373848000001	0.0669	sub-07	1	sequence	interval	dot	NaN	NaN	NaN	NaN	NaN	NaN	NaN	NaN	NaN	NaN	NaN	NaN
337.4042797000002	0.1001	sub-07	1	sequence	stimulus	Haus	NaN	NaN	64.0	NaN	NaN	2.0	5.0	NaN	NaN	NaN	NaN	NaN
337.5044168000004	0.0665	sub-07	1	sequence	interval	dot	NaN	NaN	NaN	NaN	NaN	NaN	NaN	NaN	NaN	NaN	NaN	NaN
337.57086830000026	8.3721	sub-07	1	sequence	delay	dot	NaN	NaN	NaN	NaN	NaN	NaN	NaN	NaN	NaN	NaN	NaN	NaN
345.93009729999994	0.999	sub-07	1	sequence	choice	choice	right	NaN	NaN	-10.32187950000025	True	NaN	NaN	right	True	3.0	5.0	5.0
346.9293889999999	0.4997	sub-07	1	sequence	feedback	NaN	NaN	NaN	NaN	NaN	NaN	NaN	NaN	NaN	NaN	NaN	NaN	NaN
347.4293472999998	1.0005	sub-07	1	sequence	cue	Katze	NaN	NaN	NaN	NaN	NaN	NaN	NaN	NaN	NaN	NaN	NaN	NaN
348.4298762999997	2.0017	sub-07	1	sequence	blank	blank	NaN	NaN	NaN	NaN	NaN	NaN	NaN	NaN	NaN	NaN	NaN	NaN
350.431552	0.3001	sub-07	1	sequence	fixation	dot	NaN	NaN	NaN	NaN	NaN	NaN	NaN	NaN	NaN	NaN	NaN	NaN
350.7500393999999	0.1151	sub-07	1	sequence	stimulus	Gesicht	NaN	NaN	512.0	NaN	NaN	1.0	1.0	NaN	NaN	NaN	NaN	NaN
350.86512930000026	0.517	sub-07	1	sequence	interval	dot	NaN	NaN	NaN	NaN	NaN	NaN	NaN	NaN	NaN	NaN	NaN	NaN
351.3820986999999	0.1	sub-07	1	sequence	stimulus	Stuhl	NaN	NaN	512.0	NaN	NaN	5.0	2.0	NaN	NaN	NaN	NaN	NaN
351.4820737	0.5172	sub-07	1	sequence	interval	dot	NaN	NaN	NaN	NaN	NaN	NaN	NaN	NaN	NaN	NaN	NaN	NaN
351.9993095	0.1	sub-07	1	sequence	stimulus	Haus	NaN	NaN	512.0	NaN	NaN	2.0	3.0	NaN	NaN	NaN	NaN	NaN
352.0992866000006	0.5172	sub-07	1	sequence	interval	dot	NaN	NaN	NaN	NaN	NaN	NaN	NaN	NaN	NaN	NaN	NaN	NaN
352.61646850000034	0.1	sub-07	1	sequence	stimulus	Schuh	NaN	NaN	512.0	NaN	NaN	4.0	4.0	NaN	NaN	NaN	NaN	NaN
352.7164577000003	0.5172	sub-07	1	sequence	interval	dot	NaN	NaN	NaN	NaN	NaN	NaN	NaN	NaN	NaN	NaN	NaN	NaN
353.23370049999994	0.1	sub-07	1	sequence	stimulus	Katze	NaN	NaN	512.0	NaN	NaN	3.0	5.0	NaN	NaN	NaN	NaN	NaN
353.3336932000002	0.5171	sub-07	1	sequence	interval	dot	NaN	NaN	NaN	NaN	NaN	NaN	NaN	NaN	NaN	NaN	NaN	NaN
353.85077640000054	6.1366	sub-07	1	sequence	delay	dot	NaN	NaN	NaN	NaN	NaN	NaN	NaN	NaN	NaN	NaN	NaN	NaN
359.96983230000023	0.8203	sub-07	1	sequence	choice	choice	left	NaN	NaN	-10.50871509999979	True	NaN	NaN	left	True	5.0	4.0	5.0
360.79043420000016	0.4999	sub-07	1	sequence	feedback	NaN	NaN	NaN	NaN	NaN	NaN	NaN	NaN	NaN	NaN	NaN	NaN	NaN
361.2905602000001	1.0004	sub-07	1	sequence	cue	Gesicht	NaN	NaN	NaN	NaN	NaN	NaN	NaN	NaN	NaN	NaN	NaN	NaN
362.2909504999998	2.0016	sub-07	1	sequence	blank	blank	NaN	NaN	NaN	NaN	NaN	NaN	NaN	NaN	NaN	NaN	NaN	NaN
364.2925657000005	0.3003	sub-07	1	sequence	fixation	dot	NaN	NaN	NaN	NaN	NaN	NaN	NaN	NaN	NaN	NaN	NaN	NaN
364.61231659999976	0.114	sub-07	1	sequence	stimulus	Katze	NaN	NaN	512.0	NaN	NaN	3.0	1.0	NaN	NaN	NaN	NaN	NaN
364.7263035000005	0.5173	sub-07	1	sequence	interval	dot	NaN	NaN	NaN	NaN	NaN	NaN	NaN	NaN	NaN	NaN	NaN	NaN
365.2435846999997	0.0999	sub-07	1	sequence	stimulus	Gesicht	NaN	NaN	512.0	NaN	NaN	1.0	2.0	NaN	NaN	NaN	NaN	NaN
365.3435089000004	0.5171	sub-07	1	sequence	interval	dot	NaN	NaN	NaN	NaN	NaN	NaN	NaN	NaN	NaN	NaN	NaN	NaN
365.86059829999977	0.1	sub-07	1	sequence	stimulus	Stuhl	NaN	NaN	512.0	NaN	NaN	5.0	3.0	NaN	NaN	NaN	NaN	NaN
365.9605953	0.5173	sub-07	1	sequence	interval	dot	NaN	NaN	NaN	NaN	NaN	NaN	NaN	NaN	NaN	NaN	NaN	NaN
366.4779307999997	0.0998	sub-07	1	sequence	stimulus	Haus	NaN	NaN	512.0	NaN	NaN	2.0	4.0	NaN	NaN	NaN	NaN	NaN
366.5777533	0.5173	sub-07	1	sequence	interval	dot	NaN	NaN	NaN	NaN	NaN	NaN	NaN	NaN	NaN	NaN	NaN	NaN
367.0950626000004	0.1	sub-07	1	sequence	stimulus	Schuh	NaN	NaN	512.0	NaN	NaN	4.0	5.0	NaN	NaN	NaN	NaN	NaN
367.1950806000005	0.5169	sub-07	1	sequence	interval	dot	NaN	NaN	NaN	NaN	NaN	NaN	NaN	NaN	NaN	NaN	NaN	NaN
367.7120302000003	6.137	sub-07	1	sequence	delay	dot	NaN	NaN	NaN	NaN	NaN	NaN	NaN	NaN	NaN	NaN	NaN	NaN
373.8275523000002	0.8908	sub-07	1	sequence	choice	choice	right	NaN	NaN	-10.436025799999696	True	NaN	NaN	right	True	3.0	2.0	2.0
374.71862109999984	0.4997	sub-07	1	sequence	feedback	NaN	NaN	NaN	NaN	NaN	NaN	NaN	NaN	NaN	NaN	NaN	NaN	NaN
375.2185825000006	1.0002	sub-07	1	sequence	cue	Schuh	NaN	NaN	NaN	NaN	NaN	NaN	NaN	NaN	NaN	NaN	NaN	NaN
376.2187926000006	2.0016	sub-07	1	sequence	blank	blank	NaN	NaN	NaN	NaN	NaN	NaN	NaN	NaN	NaN	NaN	NaN	NaN
378.2204044	0.3003	sub-07	1	sequence	fixation	dot	NaN	NaN	NaN	NaN	NaN	NaN	NaN	NaN	NaN	NaN	NaN	NaN
378.5391539000002	0.115	sub-07	1	sequence	stimulus	Katze	NaN	NaN	32.0	NaN	NaN	3.0	1.0	NaN	NaN	NaN	NaN	NaN
378.65411140000015	0.0338	sub-07	1	sequence	interval	dot	NaN	NaN	NaN	NaN	NaN	NaN	NaN	NaN	NaN	NaN	NaN	NaN
378.6879069000006	0.0996	sub-07	1	sequence	stimulus	Gesicht	NaN	NaN	32.0	NaN	NaN	1.0	2.0	NaN	NaN	NaN	NaN	NaN
378.7875337000005	0.0335	sub-07	1	sequence	interval	dot	NaN	NaN	NaN	NaN	NaN	NaN	NaN	NaN	NaN	NaN	NaN	NaN
378.8210263000001	0.1	sub-07	1	sequence	stimulus	Schuh	NaN	NaN	32.0	NaN	NaN	4.0	3.0	NaN	NaN	NaN	NaN	NaN
378.9210615000002	0.0334	sub-07	1	sequence	interval	dot	NaN	NaN	NaN	NaN	NaN	NaN	NaN	NaN	NaN	NaN	NaN	NaN
378.95446530000027	0.1	sub-07	1	sequence	stimulus	Haus	NaN	NaN	32.0	NaN	NaN	2.0	4.0	NaN	NaN	NaN	NaN	NaN
379.0544642000005	0.0334	sub-07	1	sequence	interval	dot	NaN	NaN	NaN	NaN	NaN	NaN	NaN	NaN	NaN	NaN	NaN	NaN
379.0878414999997	0.1001	sub-07	1	sequence	stimulus	Stuhl	NaN	NaN	32.0	NaN	NaN	5.0	5.0	NaN	NaN	NaN	NaN	NaN
379.1879521999999	0.0332	sub-07	1	sequence	interval	dot	NaN	NaN	NaN	NaN	NaN	NaN	NaN	NaN	NaN	NaN	NaN	NaN
379.2211795000003	8.5388	sub-07	1	sequence	delay	dot	NaN	NaN	NaN	NaN	NaN	NaN	NaN	NaN	NaN	NaN	NaN	NaN
387.7373064000003	0.8924	sub-07	1	sequence	choice	choice	right	NaN	NaN	-10.442033100000115	True	NaN	NaN	right	True	5.0	3.0	3.0
388.6299104999998	0.4996	sub-07	1	sequence	feedback	NaN	NaN	NaN	NaN	NaN	NaN	NaN	NaN	NaN	NaN	NaN	NaN	NaN
389.1296186999998	1.0005	sub-07	1	sequence	cue	Haus	NaN	NaN	NaN	NaN	NaN	NaN	NaN	NaN	NaN	NaN	NaN	NaN
390.1300965	2.0015	sub-07	1	sequence	blank	blank	NaN	NaN	NaN	NaN	NaN	NaN	NaN	NaN	NaN	NaN	NaN	NaN
392.1316428	0.3002	sub-07	1	sequence	fixation	dot	NaN	NaN	NaN	NaN	NaN	NaN	NaN	NaN	NaN	NaN	NaN	NaN
392.4501764000006	0.1151	sub-07	1	sequence	stimulus	Katze	NaN	NaN	128.0	NaN	NaN	3.0	1.0	NaN	NaN	NaN	NaN	NaN
392.5653075999999	0.1337	sub-07	1	sequence	interval	dot	NaN	NaN	NaN	NaN	NaN	NaN	NaN	NaN	NaN	NaN	NaN	NaN
392.69901279999976	0.0998	sub-07	1	sequence	stimulus	Haus	NaN	NaN	128.0	NaN	NaN	2.0	2.0	NaN	NaN	NaN	NaN	NaN
392.7988131000002	0.1336	sub-07	1	sequence	interval	dot	NaN	NaN	NaN	NaN	NaN	NaN	NaN	NaN	NaN	NaN	NaN	NaN
392.9323742000006	0.1	sub-07	1	sequence	stimulus	Schuh	NaN	NaN	128.0	NaN	NaN	4.0	3.0	NaN	NaN	NaN	NaN	NaN
393.0323343999999	0.1336	sub-07	1	sequence	interval	dot	NaN	NaN	NaN	NaN	NaN	NaN	NaN	NaN	NaN	NaN	NaN	NaN
393.1659276999999	0.0999	sub-07	1	sequence	stimulus	Gesicht	NaN	NaN	128.0	NaN	NaN	1.0	4.0	NaN	NaN	NaN	NaN	NaN
393.2658250000004	0.1354	sub-07	1	sequence	interval	dot	NaN	NaN	NaN	NaN	NaN	NaN	NaN	NaN	NaN	NaN	NaN	NaN
393.4011995999999	0.1148	sub-07	1	sequence	stimulus	Stuhl	NaN	NaN	128.0	NaN	NaN	5.0	5.0	NaN	NaN	NaN	NaN	NaN
393.5160489	0.1334	sub-07	1	sequence	interval	dot	NaN	NaN	NaN	NaN	NaN	NaN	NaN	NaN	NaN	NaN	NaN	NaN
393.6494607000004	8.0717	sub-07	1	sequence	delay	dot	NaN	NaN	NaN	NaN	NaN	NaN	NaN	NaN	NaN	NaN	NaN	NaN
401.6989690999999	1.0585	sub-07	1	sequence	choice	choice	right	NaN	NaN	-10.26826709999932	False	NaN	NaN	left	True	2.0	3.0	2.0
402.7577701999999	0.4998	sub-07	1	sequence	feedback	NaN	NaN	NaN	NaN	NaN	NaN	NaN	NaN	NaN	NaN	NaN	NaN	NaN
403.2578048000005	1.0003	sub-07	1	sequence	cue	Haus	NaN	NaN	NaN	NaN	NaN	NaN	NaN	NaN	NaN	NaN	NaN	NaN
404.2581222999997	2.0018	sub-07	1	sequence	blank	blank	NaN	NaN	NaN	NaN	NaN	NaN	NaN	NaN	NaN	NaN	NaN	NaN
406.2598969999999	0.3002	sub-07	1	sequence	fixation	dot	NaN	NaN	NaN	NaN	NaN	NaN	NaN	NaN	NaN	NaN	NaN	NaN
406.5924537000001	0.1011	sub-07	1	sequence	stimulus	Schuh	NaN	NaN	128.0	NaN	NaN	4.0	1.0	NaN	NaN	NaN	NaN	NaN
406.6935824000002	0.1336	sub-07	1	sequence	interval	dot	NaN	NaN	NaN	NaN	NaN	NaN	NaN	NaN	NaN	NaN	NaN	NaN
406.82718680000016	0.0999	sub-07	1	sequence	stimulus	Stuhl	NaN	NaN	128.0	NaN	NaN	5.0	2.0	NaN	NaN	NaN	NaN	NaN
406.9270858	0.1336	sub-07	1	sequence	interval	dot	NaN	NaN	NaN	NaN	NaN	NaN	NaN	NaN	NaN	NaN	NaN	NaN
407.06068550000055	0.0999	sub-07	1	sequence	stimulus	Katze	NaN	NaN	128.0	NaN	NaN	3.0	3.0	NaN	NaN	NaN	NaN	NaN
407.1605974000004	0.1336	sub-07	1	sequence	interval	dot	NaN	NaN	NaN	NaN	NaN	NaN	NaN	NaN	NaN	NaN	NaN	NaN
407.29422950000026	0.0999	sub-07	1	sequence	stimulus	Haus	NaN	NaN	128.0	NaN	NaN	2.0	4.0	NaN	NaN	NaN	NaN	NaN
407.3940890000004	0.1336	sub-07	1	sequence	interval	dot	NaN	NaN	NaN	NaN	NaN	NaN	NaN	NaN	NaN	NaN	NaN	NaN
407.52767420000055	0.1	sub-07	1	sequence	stimulus	Gesicht	NaN	NaN	128.0	NaN	NaN	1.0	5.0	NaN	NaN	NaN	NaN	NaN
407.62765110000055	0.1334	sub-07	1	sequence	interval	dot	NaN	NaN	NaN	NaN	NaN	NaN	NaN	NaN	NaN	NaN	NaN	NaN
407.761055	8.0714	sub-07	1	sequence	delay	dot	NaN	NaN	NaN	NaN	NaN	NaN	NaN	NaN	NaN	NaN	NaN	NaN
415.8166621	0.7687	sub-07	1	sequence	choice	choice	left	NaN	NaN	-10.547402300000613	True	NaN	NaN	left	True	4.0	1.0	4.0
416.58563200000026	0.4998	sub-07	1	sequence	feedback	NaN	NaN	NaN	NaN	NaN	NaN	NaN	NaN	NaN	NaN	NaN	NaN	NaN
417.08569220000027	1.0003	sub-07	1	sequence	cue	Haus	NaN	NaN	NaN	NaN	NaN	NaN	NaN	NaN	NaN	NaN	NaN	NaN
418.08595570000034	2.0016	sub-07	1	sequence	blank	blank	NaN	NaN	NaN	NaN	NaN	NaN	NaN	NaN	NaN	NaN	NaN	NaN
420.0875587999999	0.3003	sub-07	1	sequence	fixation	dot	NaN	NaN	NaN	NaN	NaN	NaN	NaN	NaN	NaN	NaN	NaN	NaN
420.4064681	0.1148	sub-07	1	sequence	stimulus	Stuhl	NaN	NaN	64.0	NaN	NaN	5.0	1.0	NaN	NaN	NaN	NaN	NaN
420.5212409000005	0.0668	sub-07	1	sequence	interval	dot	NaN	NaN	NaN	NaN	NaN	NaN	NaN	NaN	NaN	NaN	NaN	NaN
420.5880820000002	0.1	sub-07	1	sequence	stimulus	Schuh	NaN	NaN	64.0	NaN	NaN	4.0	2.0	NaN	NaN	NaN	NaN	NaN
420.6881002999999	0.0668	sub-07	1	sequence	interval	dot	NaN	NaN	NaN	NaN	NaN	NaN	NaN	NaN	NaN	NaN	NaN	NaN
420.75493780000033	0.0999	sub-07	1	sequence	stimulus	Haus	NaN	NaN	64.0	NaN	NaN	2.0	3.0	NaN	NaN	NaN	NaN	NaN
420.8548644000002	0.0669	sub-07	1	sequence	interval	dot	NaN	NaN	NaN	NaN	NaN	NaN	NaN	NaN	NaN	NaN	NaN	NaN
420.92179860000033	0.0999	sub-07	1	sequence	stimulus	Katze	NaN	NaN	64.0	NaN	NaN	3.0	4.0	NaN	NaN	NaN	NaN	NaN
421.02170579999984	0.0668	sub-07	1	sequence	interval	dot	NaN	NaN	NaN	NaN	NaN	NaN	NaN	NaN	NaN	NaN	NaN	NaN
421.0885374999998	0.1	sub-07	1	sequence	stimulus	Gesicht	NaN	NaN	64.0	NaN	NaN	1.0	5.0	NaN	NaN	NaN	NaN	NaN
421.1885076999997	0.0666	sub-07	1	sequence	interval	dot	NaN	NaN	NaN	NaN	NaN	NaN	NaN	NaN	NaN	NaN	NaN	NaN
421.25512810000055	8.3887	sub-07	1	sequence	delay	dot	NaN	NaN	NaN	NaN	NaN	NaN	NaN	NaN	NaN	NaN	NaN	NaN
429.62238979999984	0.841	sub-07	1	sequence	choice	choice	right	NaN	NaN	-10.486196599999856	True	NaN	NaN	right	True	1.0	3.0	3.0
430.4636682	0.4998	sub-07	1	sequence	feedback	NaN	NaN	NaN	NaN	NaN	NaN	NaN	NaN	NaN	NaN	NaN	NaN	NaN
430.96392060000016	16.8134	sub-07	1	other	break	break	NaN	NaN	NaN	NaN	NaN	NaN	NaN	NaN	NaN	NaN	NaN	NaN
451.6141720000005	0.4994	sub-07	1	localizer	stimulus	Katze	NaN	0	2.35175919999989	NaN	True	NaN	NaN	NaN	NaN	NaN	NaN	NaN
452.0970102000001	2.3518	sub-07	1	localizer	blank	interval	NaN	NaN	NaN	NaN	NaN	NaN	NaN	NaN	NaN	NaN	NaN	NaN
454.74997410000014	0.4994	sub-07	1	localizer	stimulus	Haus	NaN	0	2.235064599999532	NaN	True	NaN	NaN	NaN	NaN	NaN	NaN	NaN
455.23277940000025	2.2351	sub-07	1	localizer	blank	interval	NaN	NaN	NaN	NaN	NaN	NaN	NaN	NaN	NaN	NaN	NaN	NaN
457.76892450000014	0.4996	sub-07	1	localizer	stimulus	Schuh	NaN	0	2.7187544999997613	NaN	True	NaN	NaN	NaN	NaN	NaN	NaN	NaN
458.25189690000025	2.7188	sub-07	1	localizer	blank	interval	NaN	NaN	NaN	NaN	NaN	NaN	NaN	NaN	NaN	NaN	NaN	NaN
461.2717670000002	0.4999	sub-07	1	localizer	stimulus	Stuhl	NaN	180	2.101676800000007	-10.578178599999774	True	NaN	NaN	NaN	NaN	NaN	NaN	NaN
461.7547052	2.1017	sub-07	1	localizer	blank	interval	NaN	NaN	NaN	NaN	NaN	NaN	NaN	NaN	NaN	NaN	NaN	NaN
464.1574649000004	0.4994	sub-07	1	localizer	stimulus	Haus	NaN	0	2.1682700999999724	NaN	True	NaN	NaN	NaN	NaN	NaN	NaN	NaN
464.64041330000055	2.1683	sub-07	1	localizer	blank	interval	NaN	NaN	NaN	NaN	NaN	NaN	NaN	NaN	NaN	NaN	NaN	NaN
467.10984009999993	0.4995	sub-07	1	localizer	stimulus	Haus	NaN	0	1.9183950999994863	NaN	True	NaN	NaN	NaN	NaN	NaN	NaN	NaN
467.5928645000004	1.9184	sub-07	1	localizer	blank	interval	NaN	NaN	NaN	NaN	NaN	NaN	NaN	NaN	NaN	NaN	NaN	NaN
469.8121044	0.4996	sub-07	1	localizer	stimulus	Gesicht	NaN	0	2.218294700000115	NaN	True	NaN	NaN	NaN	NaN	NaN	NaN	NaN
470.29523549999976	2.2183	sub-07	1	localizer	blank	interval	NaN	NaN	NaN	NaN	NaN	NaN	NaN	NaN	NaN	NaN	NaN	NaN
472.8146667000001	0.4993	sub-07	1	localizer	stimulus	Gesicht	NaN	0	3.352571800000078	NaN	True	NaN	NaN	NaN	NaN	NaN	NaN	NaN
473.29740070000025	3.3526	sub-07	1	localizer	blank	interval	NaN	NaN	NaN	NaN	NaN	NaN	NaN	NaN	NaN	NaN	NaN	NaN
476.9511047000005	0.4995	sub-07	1	localizer	stimulus	Katze	NaN	0	2.0516261000002487	NaN	True	NaN	NaN	NaN	NaN	NaN	NaN	NaN
477.4340135000002	2.0516	sub-07	1	localizer	blank	interval	NaN	NaN	NaN	NaN	NaN	NaN	NaN	NaN	NaN	NaN	NaN	NaN
479.78668579999976	0.4995	sub-07	1	localizer	stimulus	Katze	NaN	0	2.4352607999999805	NaN	True	NaN	NaN	NaN	NaN	NaN	NaN	NaN
480.2696953000004	2.4353	sub-07	1	localizer	blank	interval	NaN	NaN	NaN	NaN	NaN	NaN	NaN	NaN	NaN	NaN	NaN	NaN
483.00605840000026	0.4995	sub-07	1	localizer	stimulus	Gesicht	NaN	0	2.034875799999952	NaN	True	NaN	NaN	NaN	NaN	NaN	NaN	NaN
483.4889754000005	2.0349	sub-07	1	localizer	blank	interval	NaN	NaN	NaN	NaN	NaN	NaN	NaN	NaN	NaN	NaN	NaN	NaN
485.82507129999976	0.4994	sub-07	1	localizer	stimulus	Haus	NaN	0	2.1183075000008103	NaN	True	NaN	NaN	NaN	NaN	NaN	NaN	NaN
486.30787359999977	2.1183	sub-07	1	localizer	blank	interval	NaN	NaN	NaN	NaN	NaN	NaN	NaN	NaN	NaN	NaN	NaN	NaN
488.7276197000001	0.4992	sub-07	1	localizer	stimulus	Stuhl	NaN	0	2.0516883000000234	NaN	True	NaN	NaN	NaN	NaN	NaN	NaN	NaN
489.2103668	2.0517	sub-07	1	localizer	blank	interval	NaN	NaN	NaN	NaN	NaN	NaN	NaN	NaN	NaN	NaN	NaN	NaN
491.5631389999999	0.4997	sub-07	1	localizer	stimulus	Schuh	NaN	180	2.7184023999998317	-10.565834699999868	True	NaN	NaN	NaN	NaN	NaN	NaN	NaN
492.0461713000004	2.7184	sub-07	1	localizer	blank	interval	NaN	NaN	NaN	NaN	NaN	NaN	NaN	NaN	NaN	NaN	NaN	NaN
495.0657228	0.4995	sub-07	1	localizer	stimulus	Gesicht	NaN	0	2.1683153000004154	NaN	True	NaN	NaN	NaN	NaN	NaN	NaN	NaN
495.5486860000001	2.1683	sub-07	1	localizer	blank	interval	NaN	NaN	NaN	NaN	NaN	NaN	NaN	NaN	NaN	NaN	NaN	NaN
498.0180687000002	0.4995	sub-07	1	localizer	stimulus	Stuhl	NaN	0	2.435068999999203	NaN	True	NaN	NaN	NaN	NaN	NaN	NaN	NaN
498.5011208000005	2.4351	sub-07	1	localizer	blank	interval	NaN	NaN	NaN	NaN	NaN	NaN	NaN	NaN	NaN	NaN	NaN	NaN
501.2374122000001	0.4994	sub-07	1	localizer	stimulus	Katze	NaN	0	1.7345314000003782	NaN	True	NaN	NaN	NaN	NaN	NaN	NaN	NaN
501.7203466000001	1.7345	sub-07	1	localizer	blank	interval	NaN	NaN	NaN	NaN	NaN	NaN	NaN	NaN	NaN	NaN	NaN	NaN
503.7560564000005	0.4995	sub-07	1	localizer	stimulus	Schuh	NaN	0	2.1348677999994266	NaN	True	NaN	NaN	NaN	NaN	NaN	NaN	NaN
504.23905360000026	2.1349	sub-07	1	localizer	blank	interval	NaN	NaN	NaN	NaN	NaN	NaN	NaN	NaN	NaN	NaN	NaN	NaN
506.6750855	0.4995	sub-07	1	localizer	stimulus	Katze	NaN	180	2.1016664999997374	-10.581572699999924	True	NaN	NaN	NaN	NaN	NaN	NaN	NaN
507.15806900000007	2.1017	sub-07	1	localizer	blank	interval	NaN	NaN	NaN	NaN	NaN	NaN	NaN	NaN	NaN	NaN	NaN	NaN
509.56104099999993	0.4994	sub-07	1	localizer	stimulus	Stuhl	NaN	0	2.8689240000003338	NaN	True	NaN	NaN	NaN	NaN	NaN	NaN	NaN
510.0439489999999	2.8689	sub-07	1	localizer	blank	interval	NaN	NaN	NaN	NaN	NaN	NaN	NaN	NaN	NaN	NaN	NaN	NaN
513.2139513000002	0.4995	sub-07	1	localizer	stimulus	Stuhl	NaN	0	2.5183075000004465	NaN	True	NaN	NaN	NaN	NaN	NaN	NaN	NaN
513.6969491	2.5183	sub-07	1	localizer	blank	interval	NaN	NaN	NaN	NaN	NaN	NaN	NaN	NaN	NaN	NaN	NaN	NaN
516.5164573000002	0.4995	sub-07	1	localizer	stimulus	Gesicht	NaN	180	2.501964500000213	-10.607652700000472	True	NaN	NaN	NaN	NaN	NaN	NaN	NaN
516.9993328	2.502	sub-07	1	localizer	blank	interval	NaN	NaN	NaN	NaN	NaN	NaN	NaN	NaN	NaN	NaN	NaN	NaN
519.8023443000002	0.4995	sub-07	1	localizer	stimulus	Schuh	NaN	0	2.9689525000003414	NaN	True	NaN	NaN	NaN	NaN	NaN	NaN	NaN
520.2853003999999	2.969	sub-07	1	localizer	blank	interval	NaN	NaN	NaN	NaN	NaN	NaN	NaN	NaN	NaN	NaN	NaN	NaN
523.5554258000002	0.4995	sub-07	1	localizer	stimulus	Schuh	NaN	0	2.55203739999979	NaN	True	NaN	NaN	NaN	NaN	NaN	NaN	NaN
524.0382847000001	2.552	sub-07	1	localizer	blank	interval	NaN	NaN	NaN	NaN	NaN	NaN	NaN	NaN	NaN	NaN	NaN	NaN
526.8914918	0.4994	sub-07	1	localizer	stimulus	Haus	NaN	180	2.685491600000205	-10.637524200000373	True	NaN	NaN	NaN	NaN	NaN	NaN	NaN
527.3743793000003	2.6855	sub-07	1	localizer	blank	interval	NaN	NaN	NaN	NaN	NaN	NaN	NaN	NaN	NaN	NaN	NaN	NaN
533.5464006000002	1.0006	sub-07	1	sequence	cue	Schuh	NaN	NaN	NaN	NaN	NaN	NaN	NaN	NaN	NaN	NaN	NaN	NaN
534.5469971000002	2.0014	sub-07	1	sequence	blank	blank	NaN	NaN	NaN	NaN	NaN	NaN	NaN	NaN	NaN	NaN	NaN	NaN
536.5484113000002	0.3002	sub-07	1	sequence	fixation	dot	NaN	NaN	NaN	NaN	NaN	NaN	NaN	NaN	NaN	NaN	NaN	NaN
536.8670118	0.115	sub-07	1	sequence	stimulus	Katze	NaN	NaN	512.0	NaN	NaN	3.0	1.0	NaN	NaN	NaN	NaN	NaN
536.9820460999999	0.5172	sub-07	1	sequence	interval	dot	NaN	NaN	NaN	NaN	NaN	NaN	NaN	NaN	NaN	NaN	NaN	NaN
537.4992484000004	0.1001	sub-07	1	sequence	stimulus	Gesicht	NaN	NaN	512.0	NaN	NaN	1.0	2.0	NaN	NaN	NaN	NaN	NaN
537.5993287000001	0.517	sub-07	1	sequence	interval	dot	NaN	NaN	NaN	NaN	NaN	NaN	NaN	NaN	NaN	NaN	NaN	NaN
538.1163722000001	0.1	sub-07	1	sequence	stimulus	Stuhl	NaN	NaN	512.0	NaN	NaN	5.0	3.0	NaN	NaN	NaN	NaN	NaN
538.2164182000006	0.5172	sub-07	1	sequence	interval	dot	NaN	NaN	NaN	NaN	NaN	NaN	NaN	NaN	NaN	NaN	NaN	NaN
538.7335735000006	0.0999	sub-07	1	sequence	stimulus	Haus	NaN	NaN	512.0	NaN	NaN	2.0	4.0	NaN	NaN	NaN	NaN	NaN
538.8334918	0.5172	sub-07	1	sequence	interval	dot	NaN	NaN	NaN	NaN	NaN	NaN	NaN	NaN	NaN	NaN	NaN	NaN
539.3507237000003	0.1011	sub-07	1	sequence	stimulus	Schuh	NaN	NaN	512.0	NaN	NaN	4.0	5.0	NaN	NaN	NaN	NaN	NaN
539.4518256000001	0.5159	sub-07	1	sequence	interval	dot	NaN	NaN	NaN	NaN	NaN	NaN	NaN	NaN	NaN	NaN	NaN	NaN
539.9677398000003	6.1534	sub-07	1	sequence	delay	dot	NaN	NaN	NaN	NaN	NaN	NaN	NaN	NaN	NaN	NaN	NaN	NaN
546.0998262000003	0.741	sub-07	1	sequence	choice	choice	right	NaN	NaN	-10.587902199999007	True	NaN	NaN	right	True	4.0	5.0	5.0
546.8411723999998	0.4994	sub-07	1	sequence	feedback	NaN	NaN	NaN	NaN	NaN	NaN	NaN	NaN	NaN	NaN	NaN	NaN	NaN
547.3408123999998	1.0004	sub-07	1	sequence	cue	Stuhl	NaN	NaN	NaN	NaN	NaN	NaN	NaN	NaN	NaN	NaN	NaN	NaN
548.3412641000004	2.0016	sub-07	1	sequence	blank	blank	NaN	NaN	NaN	NaN	NaN	NaN	NaN	NaN	NaN	NaN	NaN	NaN
550.3428351000002	0.3003	sub-07	1	sequence	fixation	dot	NaN	NaN	NaN	NaN	NaN	NaN	NaN	NaN	NaN	NaN	NaN	NaN
550.6616374000005	0.1151	sub-07	1	sequence	stimulus	Schuh	NaN	NaN	128.0	NaN	NaN	4.0	1.0	NaN	NaN	NaN	NaN	NaN
550.7767206999997	0.1335	sub-07	1	sequence	interval	dot	NaN	NaN	NaN	NaN	NaN	NaN	NaN	NaN	NaN	NaN	NaN	NaN
550.9102311000006	0.0999	sub-07	1	sequence	stimulus	Stuhl	NaN	NaN	128.0	NaN	NaN	5.0	2.0	NaN	NaN	NaN	NaN	NaN
551.0101728999998	0.1335	sub-07	1	sequence	interval	dot	NaN	NaN	NaN	NaN	NaN	NaN	NaN	NaN	NaN	NaN	NaN	NaN
551.1437182	0.1	sub-07	1	sequence	stimulus	Katze	NaN	NaN	128.0	NaN	NaN	3.0	3.0	NaN	NaN	NaN	NaN	NaN
551.2437254000006	0.1336	sub-07	1	sequence	interval	dot	NaN	NaN	NaN	NaN	NaN	NaN	NaN	NaN	NaN	NaN	NaN	NaN
551.3772792999998	0.1	sub-07	1	sequence	stimulus	Haus	NaN	NaN	128.0	NaN	NaN	2.0	4.0	NaN	NaN	NaN	NaN	NaN
551.4772333999999	0.1335	sub-07	1	sequence	interval	dot	NaN	NaN	NaN	NaN	NaN	NaN	NaN	NaN	NaN	NaN	NaN	NaN
551.6107759000006	0.0999	sub-07	1	sequence	stimulus	Gesicht	NaN	NaN	128.0	NaN	NaN	1.0	5.0	NaN	NaN	NaN	NaN	NaN
551.7107127999998	0.1334	sub-07	1	sequence	interval	dot	NaN	NaN	NaN	NaN	NaN	NaN	NaN	NaN	NaN	NaN	NaN	NaN
551.8441327999999	8.0548	sub-07	1	sequence	delay	dot	NaN	NaN	NaN	NaN	NaN	NaN	NaN	NaN	NaN	NaN	NaN	NaN
559.8795453000002	0.8388	sub-07	1	sequence	choice	choice	right	NaN	NaN	-10.494083900000078	True	NaN	NaN	right	True	3.0	2.0	2.0
560.7186081	0.5	sub-07	1	sequence	feedback	NaN	NaN	NaN	NaN	NaN	NaN	NaN	NaN	NaN	NaN	NaN	NaN	NaN
561.2187448000004	1.0004	sub-07	1	sequence	cue	Haus	NaN	NaN	NaN	NaN	NaN	NaN	NaN	NaN	NaN	NaN	NaN	NaN
562.2191751999999	2.0017	sub-07	1	sequence	blank	blank	NaN	NaN	NaN	NaN	NaN	NaN	NaN	NaN	NaN	NaN	NaN	NaN
564.2208570000003	0.3003	sub-07	1	sequence	fixation	dot	NaN	NaN	NaN	NaN	NaN	NaN	NaN	NaN	NaN	NaN	NaN	NaN
564.5385157999999	0.0993	sub-07	1	sequence	stimulus	Katze	NaN	NaN	128.0	NaN	NaN	3.0	1.0	NaN	NaN	NaN	NaN	NaN
564.6377903000002	0.1336	sub-07	1	sequence	interval	dot	NaN	NaN	NaN	NaN	NaN	NaN	NaN	NaN	NaN	NaN	NaN	NaN
564.7713795	0.0998	sub-07	1	sequence	stimulus	Haus	NaN	NaN	128.0	NaN	NaN	2.0	2.0	NaN	NaN	NaN	NaN	NaN
564.8712006000005	0.1337	sub-07	1	sequence	interval	dot	NaN	NaN	NaN	NaN	NaN	NaN	NaN	NaN	NaN	NaN	NaN	NaN
565.0048572000005	0.0999	sub-07	1	sequence	stimulus	Schuh	NaN	NaN	128.0	NaN	NaN	4.0	3.0	NaN	NaN	NaN	NaN	NaN
565.1047779999999	0.1334	sub-07	1	sequence	interval	dot	NaN	NaN	NaN	NaN	NaN	NaN	NaN	NaN	NaN	NaN	NaN	NaN
565.2382058000003	0.1001	sub-07	1	sequence	stimulus	Gesicht	NaN	NaN	128.0	NaN	NaN	1.0	4.0	NaN	NaN	NaN	NaN	NaN
565.3382816000003	0.1336	sub-07	1	sequence	interval	dot	NaN	NaN	NaN	NaN	NaN	NaN	NaN	NaN	NaN	NaN	NaN	NaN
565.4718400000002	0.0999	sub-07	1	sequence	stimulus	Stuhl	NaN	NaN	128.0	NaN	NaN	5.0	5.0	NaN	NaN	NaN	NaN	NaN
565.5717875999999	0.1334	sub-07	1	sequence	interval	dot	NaN	NaN	NaN	NaN	NaN	NaN	NaN	NaN	NaN	NaN	NaN	NaN
565.7052365	8.0549	sub-07	1	sequence	delay	dot	NaN	NaN	NaN	NaN	NaN	NaN	NaN	NaN	NaN	NaN	NaN	NaN
573.7372518000002	0.826	sub-07	1	sequence	choice	choice	left	NaN	NaN	-10.498551300000145	True	NaN	NaN	left	True	2.0	3.0	2.0
574.5634897	0.4998	sub-07	1	sequence	feedback	NaN	NaN	NaN	NaN	NaN	NaN	NaN	NaN	NaN	NaN	NaN	NaN	NaN
575.0634336000003	1.0004	sub-07	1	sequence	cue	Haus	NaN	NaN	NaN	NaN	NaN	NaN	NaN	NaN	NaN	NaN	NaN	NaN
576.0637928000006	2.0014	sub-07	1	sequence	blank	blank	NaN	NaN	NaN	NaN	NaN	NaN	NaN	NaN	NaN	NaN	NaN	NaN
578.0652440000003	0.3003	sub-07	1	sequence	fixation	dot	NaN	NaN	NaN	NaN	NaN	NaN	NaN	NaN	NaN	NaN	NaN	NaN
578.3839279000003	0.115	sub-07	1	sequence	stimulus	Katze	NaN	NaN	32.0	NaN	NaN	3.0	1.0	NaN	NaN	NaN	NaN	NaN
578.4989174000002	0.0335	sub-07	1	sequence	interval	dot	NaN	NaN	NaN	NaN	NaN	NaN	NaN	NaN	NaN	NaN	NaN	NaN
578.5324413999997	0.0999	sub-07	1	sequence	stimulus	Gesicht	NaN	NaN	32.0	NaN	NaN	1.0	2.0	NaN	NaN	NaN	NaN	NaN
578.6323747000006	0.0335	sub-07	1	sequence	interval	dot	NaN	NaN	NaN	NaN	NaN	NaN	NaN	NaN	NaN	NaN	NaN	NaN
578.6658583999997	0.1	sub-07	1	sequence	stimulus	Schuh	NaN	NaN	32.0	NaN	NaN	4.0	3.0	NaN	NaN	NaN	NaN	NaN
578.7658305000004	0.0335	sub-07	1	sequence	interval	dot	NaN	NaN	NaN	NaN	NaN	NaN	NaN	NaN	NaN	NaN	NaN	NaN
578.7993293999998	0.1	sub-07	1	sequence	stimulus	Haus	NaN	NaN	32.0	NaN	NaN	2.0	4.0	NaN	NaN	NaN	NaN	NaN
578.8993190000001	0.0335	sub-07	1	sequence	interval	dot	NaN	NaN	NaN	NaN	NaN	NaN	NaN	NaN	NaN	NaN	NaN	NaN
578.9327916000002	0.0999	sub-07	1	sequence	stimulus	Stuhl	NaN	NaN	32.0	NaN	NaN	5.0	5.0	NaN	NaN	NaN	NaN	NaN
579.0327101000003	0.0334	sub-07	1	sequence	interval	dot	NaN	NaN	NaN	NaN	NaN	NaN	NaN	NaN	NaN	NaN	NaN	NaN
579.0660791	8.522	sub-07	1	sequence	delay	dot	NaN	NaN	NaN	NaN	NaN	NaN	NaN	NaN	NaN	NaN	NaN	NaN
587.5689674000005	0.8721	sub-07	1	sequence	choice	choice	right	NaN	NaN	-10.446792799999455	True	NaN	NaN	right	True	5.0	4.0	4.0
588.4413552000005	0.5001	sub-07	1	sequence	feedback	NaN	NaN	NaN	NaN	NaN	NaN	NaN	NaN	NaN	NaN	NaN	NaN	NaN
588.9415673000003	1.0007	sub-07	1	sequence	cue	Schuh	NaN	NaN	NaN	NaN	NaN	NaN	NaN	NaN	NaN	NaN	NaN	NaN
589.9422313000005	2.0011	sub-07	1	sequence	blank	blank	NaN	NaN	NaN	NaN	NaN	NaN	NaN	NaN	NaN	NaN	NaN	NaN
591.9433312000001	0.3002	sub-07	1	sequence	fixation	dot	NaN	NaN	NaN	NaN	NaN	NaN	NaN	NaN	NaN	NaN	NaN	NaN
592.2621581000003	0.1148	sub-07	1	sequence	stimulus	Katze	NaN	NaN	32.0	NaN	NaN	3.0	1.0	NaN	NaN	NaN	NaN	NaN
592.3769856999998	0.0335	sub-07	1	sequence	interval	dot	NaN	NaN	NaN	NaN	NaN	NaN	NaN	NaN	NaN	NaN	NaN	NaN
592.4104732000005	0.1	sub-07	1	sequence	stimulus	Gesicht	NaN	NaN	32.0	NaN	NaN	1.0	2.0	NaN	NaN	NaN	NaN	NaN
592.5104573999997	0.0335	sub-07	1	sequence	interval	dot	NaN	NaN	NaN	NaN	NaN	NaN	NaN	NaN	NaN	NaN	NaN	NaN
592.54396	0.1	sub-07	1	sequence	stimulus	Haus	NaN	NaN	32.0	NaN	NaN	2.0	3.0	NaN	NaN	NaN	NaN	NaN
592.643943	0.0335	sub-07	1	sequence	interval	dot	NaN	NaN	NaN	NaN	NaN	NaN	NaN	NaN	NaN	NaN	NaN	NaN
592.6773984000001	0.1001	sub-07	1	sequence	stimulus	Stuhl	NaN	NaN	32.0	NaN	NaN	5.0	4.0	NaN	NaN	NaN	NaN	NaN
592.7774587000004	0.0336	sub-07	1	sequence	interval	dot	NaN	NaN	NaN	NaN	NaN	NaN	NaN	NaN	NaN	NaN	NaN	NaN
592.8110805000006	0.0998	sub-07	1	sequence	stimulus	Schuh	NaN	NaN	32.0	NaN	NaN	4.0	5.0	NaN	NaN	NaN	NaN	NaN
592.9108713000005	0.0333	sub-07	1	sequence	interval	dot	NaN	NaN	NaN	NaN	NaN	NaN	NaN	NaN	NaN	NaN	NaN	NaN
592.9441852999998	8.5219	sub-07	1	sequence	delay	dot	NaN	NaN	NaN	NaN	NaN	NaN	NaN	NaN	NaN	NaN	NaN	NaN
601.4526691000001	0.8495	sub-07	1	sequence	choice	choice	right	NaN	NaN	-10.469110900000487	True	NaN	NaN	right	True	3.0	5.0	5.0
602.3023842000002	0.5	sub-07	1	sequence	feedback	NaN	NaN	NaN	NaN	NaN	NaN	NaN	NaN	NaN	NaN	NaN	NaN	NaN
602.8025901000001	1.0003	sub-07	1	sequence	cue	Haus	NaN	NaN	NaN	NaN	NaN	NaN	NaN	NaN	NaN	NaN	NaN	NaN
603.8028706000005	2.0016	sub-07	1	sequence	blank	blank	NaN	NaN	NaN	NaN	NaN	NaN	NaN	NaN	NaN	NaN	NaN	NaN
605.8044741000003	0.3001	sub-07	1	sequence	fixation	dot	NaN	NaN	NaN	NaN	NaN	NaN	NaN	NaN	NaN	NaN	NaN	NaN
606.1222312	0.0991	sub-07	1	sequence	stimulus	Stuhl	NaN	NaN	64.0	NaN	NaN	5.0	1.0	NaN	NaN	NaN	NaN	NaN
606.2213588000004	0.0669	sub-07	1	sequence	interval	dot	NaN	NaN	NaN	NaN	NaN	NaN	NaN	NaN	NaN	NaN	NaN	NaN
606.2882411	0.0999	sub-07	1	sequence	stimulus	Schuh	NaN	NaN	64.0	NaN	NaN	4.0	2.0	NaN	NaN	NaN	NaN	NaN
606.3881332000001	0.067	sub-07	1	sequence	interval	dot	NaN	NaN	NaN	NaN	NaN	NaN	NaN	NaN	NaN	NaN	NaN	NaN
606.4551118999998	0.0999	sub-07	1	sequence	stimulus	Haus	NaN	NaN	64.0	NaN	NaN	2.0	3.0	NaN	NaN	NaN	NaN	NaN
606.5550247000001	0.0669	sub-07	1	sequence	interval	dot	NaN	NaN	NaN	NaN	NaN	NaN	NaN	NaN	NaN	NaN	NaN	NaN
606.6218804999999	0.0999	sub-07	1	sequence	stimulus	Katze	NaN	NaN	64.0	NaN	NaN	3.0	4.0	NaN	NaN	NaN	NaN	NaN
606.7217895000003	0.0668	sub-07	1	sequence	interval	dot	NaN	NaN	NaN	NaN	NaN	NaN	NaN	NaN	NaN	NaN	NaN	NaN
606.7885806000004	0.1	sub-07	1	sequence	stimulus	Gesicht	NaN	NaN	64.0	NaN	NaN	1.0	5.0	NaN	NaN	NaN	NaN	NaN
606.8885737999999	0.0667	sub-07	1	sequence	interval	dot	NaN	NaN	NaN	NaN	NaN	NaN	NaN	NaN	NaN	NaN	NaN	NaN
606.9552629	8.3719	sub-07	1	sequence	delay	dot	NaN	NaN	NaN	NaN	NaN	NaN	NaN	NaN	NaN	NaN	NaN	NaN
615.3102785000001	0.9532	sub-07	1	sequence	choice	choice	left	NaN	NaN	-10.370550099999493	True	NaN	NaN	left	True	3.0	4.0	3.0
616.2637603000003	0.4999	sub-07	1	sequence	feedback	NaN	NaN	NaN	NaN	NaN	NaN	NaN	NaN	NaN	NaN	NaN	NaN	NaN
616.7638308000005	1.0004	sub-07	1	sequence	cue	Haus	NaN	NaN	NaN	NaN	NaN	NaN	NaN	NaN	NaN	NaN	NaN	NaN
617.7642456000003	2.0014	sub-07	1	sequence	blank	blank	NaN	NaN	NaN	NaN	NaN	NaN	NaN	NaN	NaN	NaN	NaN	NaN
619.7656956000001	0.3002	sub-07	1	sequence	fixation	dot	NaN	NaN	NaN	NaN	NaN	NaN	NaN	NaN	NaN	NaN	NaN	NaN
620.0836138000004	0.099	sub-07	1	sequence	stimulus	Stuhl	NaN	NaN	64.0	NaN	NaN	5.0	1.0	NaN	NaN	NaN	NaN	NaN
620.1826061000002	0.0668	sub-07	1	sequence	interval	dot	NaN	NaN	NaN	NaN	NaN	NaN	NaN	NaN	NaN	NaN	NaN	NaN
620.2494248000003	0.1	sub-07	1	sequence	stimulus	Katze	NaN	NaN	64.0	NaN	NaN	3.0	2.0	NaN	NaN	NaN	NaN	NaN
620.3494177000002	0.0668	sub-07	1	sequence	interval	dot	NaN	NaN	NaN	NaN	NaN	NaN	NaN	NaN	NaN	NaN	NaN	NaN
620.4162498000005	0.1	sub-07	1	sequence	stimulus	Schuh	NaN	NaN	64.0	NaN	NaN	4.0	3.0	NaN	NaN	NaN	NaN	NaN
620.5162036000002	0.0669	sub-07	1	sequence	interval	dot	NaN	NaN	NaN	NaN	NaN	NaN	NaN	NaN	NaN	NaN	NaN	NaN
620.5830709000002	0.0999	sub-07	1	sequence	stimulus	Gesicht	NaN	NaN	64.0	NaN	NaN	1.0	4.0	NaN	NaN	NaN	NaN	NaN
620.6830138000005	0.0669	sub-07	1	sequence	interval	dot	NaN	NaN	NaN	NaN	NaN	NaN	NaN	NaN	NaN	NaN	NaN	NaN
620.7498786000006	0.0999	sub-07	1	sequence	stimulus	Haus	NaN	NaN	64.0	NaN	NaN	2.0	5.0	NaN	NaN	NaN	NaN	NaN
620.8497882000001	0.0668	sub-07	1	sequence	interval	dot	NaN	NaN	NaN	NaN	NaN	NaN	NaN	NaN	NaN	NaN	NaN	NaN
620.9165982000004	8.3716	sub-07	1	sequence	delay	dot	NaN	NaN	NaN	NaN	NaN	NaN	NaN	NaN	NaN	NaN	NaN	NaN
629.2720727000005	1.1528	sub-07	1	sequence	choice	choice	left	NaN	NaN	-10.171534600000086	True	NaN	NaN	left	True	5.0	2.0	5.0
630.4251616000001	0.4999	sub-07	1	sequence	feedback	NaN	NaN	NaN	NaN	NaN	NaN	NaN	NaN	NaN	NaN	NaN	NaN	NaN
630.9252888999999	1.0003	sub-07	1	sequence	cue	Katze	NaN	NaN	NaN	NaN	NaN	NaN	NaN	NaN	NaN	NaN	NaN	NaN
631.9256067000006	2.0016	sub-07	1	sequence	blank	blank	NaN	NaN	NaN	NaN	NaN	NaN	NaN	NaN	NaN	NaN	NaN	NaN
633.9272357999998	0.3002	sub-07	1	sequence	fixation	dot	NaN	NaN	NaN	NaN	NaN	NaN	NaN	NaN	NaN	NaN	NaN	NaN
634.2459031999997	0.1149	sub-07	1	sequence	stimulus	Gesicht	NaN	NaN	512.0	NaN	NaN	1.0	1.0	NaN	NaN	NaN	NaN	NaN
634.3607901000005	0.5175	sub-07	1	sequence	interval	dot	NaN	NaN	NaN	NaN	NaN	NaN	NaN	NaN	NaN	NaN	NaN	NaN
634.8782642000006	0.0996	sub-07	1	sequence	stimulus	Stuhl	NaN	NaN	512.0	NaN	NaN	5.0	2.0	NaN	NaN	NaN	NaN	NaN
634.9778928000005	0.5172	sub-07	1	sequence	interval	dot	NaN	NaN	NaN	NaN	NaN	NaN	NaN	NaN	NaN	NaN	NaN	NaN
635.4951425999998	0.0999	sub-07	1	sequence	stimulus	Haus	NaN	NaN	512.0	NaN	NaN	2.0	3.0	NaN	NaN	NaN	NaN	NaN
635.5950688000003	0.5172	sub-07	1	sequence	interval	dot	NaN	NaN	NaN	NaN	NaN	NaN	NaN	NaN	NaN	NaN	NaN	NaN
636.1122887000001	0.0999	sub-07	1	sequence	stimulus	Schuh	NaN	NaN	512.0	NaN	NaN	4.0	4.0	NaN	NaN	NaN	NaN	NaN
636.2122113000005	0.5174	sub-07	1	sequence	interval	dot	NaN	NaN	NaN	NaN	NaN	NaN	NaN	NaN	NaN	NaN	NaN	NaN
636.7296397999999	0.0998	sub-07	1	sequence	stimulus	Katze	NaN	NaN	512.0	NaN	NaN	3.0	5.0	NaN	NaN	NaN	NaN	NaN
636.8294563999998	0.5171	sub-07	1	sequence	interval	dot	NaN	NaN	NaN	NaN	NaN	NaN	NaN	NaN	NaN	NaN	NaN	NaN
637.3465912000001	6.1366	sub-07	1	sequence	delay	dot	NaN	NaN	NaN	NaN	NaN	NaN	NaN	NaN	NaN	NaN	NaN	NaN
643.4676982000001	1.1853	sub-07	1	sequence	choice	choice	left	NaN	NaN	-10.14202429999932	True	NaN	NaN	left	True	5.0	3.0	5.0
644.6532400000006	0.4998	sub-07	1	sequence	feedback	NaN	NaN	NaN	NaN	NaN	NaN	NaN	NaN	NaN	NaN	NaN	NaN	NaN
648.9735096000004	0.4994	sub-07	1	localizer	stimulus	Haus	NaN	180	2.8188814999994065	-10.608107799999743	True	NaN	NaN	NaN	NaN	NaN	NaN	NaN
649.4564384000005	2.8189	sub-07	1	localizer	blank	interval	NaN	NaN	NaN	NaN	NaN	NaN	NaN	NaN	NaN	NaN	NaN	NaN
652.5765105999999	0.5001	sub-07	1	localizer	stimulus	Haus	NaN	0	1.9178569000005155	NaN	True	NaN	NaN	NaN	NaN	NaN	NaN	NaN
653.059679	1.9179	sub-07	1	localizer	blank	interval	NaN	NaN	NaN	NaN	NaN	NaN	NaN	NaN	NaN	NaN	NaN	NaN
655.2785764999999	0.4994	sub-07	1	localizer	stimulus	Stuhl	NaN	0	2.8189341000006607	NaN	True	NaN	NaN	NaN	NaN	NaN	NaN	NaN
655.7615176999998	2.8189	sub-07	1	localizer	blank	interval	NaN	NaN	NaN	NaN	NaN	NaN	NaN	NaN	NaN	NaN	NaN	NaN
658.8815304	0.4995	sub-07	1	localizer	stimulus	Gesicht	NaN	180	2.368417299999237	-10.46812670000054	True	NaN	NaN	NaN	NaN	NaN	NaN	NaN
659.3645191000005	2.3684	sub-07	1	localizer	blank	interval	NaN	NaN	NaN	NaN	NaN	NaN	NaN	NaN	NaN	NaN	NaN	NaN
662.0340776000003	0.4994	sub-07	1	localizer	stimulus	Gesicht	NaN	0	2.635331700000279	NaN	True	NaN	NaN	NaN	NaN	NaN	NaN	NaN
662.516963	2.6353	sub-07	1	localizer	blank	interval	NaN	NaN	NaN	NaN	NaN	NaN	NaN	NaN	NaN	NaN	NaN	NaN
665.4535049000006	0.4996	sub-07	1	localizer	stimulus	Katze	NaN	0	2.4518189999998867	NaN	True	NaN	NaN	NaN	NaN	NaN	NaN	NaN
665.9364498000004	2.4518	sub-07	1	localizer	blank	interval	NaN	NaN	NaN	NaN	NaN	NaN	NaN	NaN	NaN	NaN	NaN	NaN
668.6894487	0.4995	sub-07	1	localizer	stimulus	Schuh	NaN	0	3.4362270999999964	NaN	True	NaN	NaN	NaN	NaN	NaN	NaN	NaN
669.1723639000002	3.4362	sub-07	1	localizer	blank	interval	NaN	NaN	NaN	NaN	NaN	NaN	NaN	NaN	NaN	NaN	NaN	NaN
672.9096384000004	0.4995	sub-07	1	localizer	stimulus	Haus	NaN	0	2.2849177999996755	NaN	True	NaN	NaN	NaN	NaN	NaN	NaN	NaN
673.3926306000003	2.2849	sub-07	1	localizer	blank	interval	NaN	NaN	NaN	NaN	NaN	NaN	NaN	NaN	NaN	NaN	NaN	NaN
675.9787787000005	0.4994	sub-07	1	localizer	stimulus	Gesicht	NaN	0	3.3693528000003425	NaN	True	NaN	NaN	NaN	NaN	NaN	NaN	NaN
676.4615960000001	3.3694	sub-07	1	localizer	blank	interval	NaN	NaN	NaN	NaN	NaN	NaN	NaN	NaN	NaN	NaN	NaN	NaN
680.1320067000006	0.4997	sub-07	1	localizer	stimulus	Stuhl	NaN	0	1.6343545999998241	NaN	True	NaN	NaN	NaN	NaN	NaN	NaN	NaN
680.6151003000004	1.6344	sub-07	1	localizer	blank	interval	NaN	NaN	NaN	NaN	NaN	NaN	NaN	NaN	NaN	NaN	NaN	NaN
682.5505871000005	0.4995	sub-07	1	localizer	stimulus	Schuh	NaN	180	3.152407399999902	-10.52115540000068	True	NaN	NaN	NaN	NaN	NaN	NaN	NaN
683.0335798000006	3.1524	sub-07	1	localizer	blank	interval	NaN	NaN	NaN	NaN	NaN	NaN	NaN	NaN	NaN	NaN	NaN	NaN
686.4871863999997	0.4994	sub-07	1	localizer	stimulus	Stuhl	NaN	0	3.0190364999998565	NaN	True	NaN	NaN	NaN	NaN	NaN	NaN	NaN
686.9700447000005	3.019	sub-07	1	localizer	blank	interval	NaN	NaN	NaN	NaN	NaN	NaN	NaN	NaN	NaN	NaN	NaN	NaN
690.2904169000003	0.4993	sub-07	1	localizer	stimulus	Katze	NaN	180	2.7856285999996544	-10.525429199999962	True	NaN	NaN	NaN	NaN	NaN	NaN	NaN
690.7731640000002	2.7856	sub-07	1	localizer	blank	interval	NaN	NaN	NaN	NaN	NaN	NaN	NaN	NaN	NaN	NaN	NaN	NaN
693.8600136000005	0.4995	sub-07	1	localizer	stimulus	Katze	NaN	0	2.7685912999995708	NaN	True	NaN	NaN	NaN	NaN	NaN	NaN	NaN
694.3429284000003	2.7686	sub-07	1	localizer	blank	interval	NaN	NaN	NaN	NaN	NaN	NaN	NaN	NaN	NaN	NaN	NaN	NaN
697.4126624999999	0.4995	sub-07	1	localizer	stimulus	Gesicht	NaN	0	2.3353301999995892	NaN	True	NaN	NaN	NaN	NaN	NaN	NaN	NaN
697.8955690000003	2.3353	sub-07	1	localizer	blank	interval	NaN	NaN	NaN	NaN	NaN	NaN	NaN	NaN	NaN	NaN	NaN	NaN
700.5318523000005	0.4997	sub-07	1	localizer	stimulus	Schuh	NaN	0	2.6185433999999077	NaN	True	NaN	NaN	NaN	NaN	NaN	NaN	NaN
701.0149074000001	2.6185	sub-07	1	localizer	blank	interval	NaN	NaN	NaN	NaN	NaN	NaN	NaN	NaN	NaN	NaN	NaN	NaN
703.9346204000003	0.4994	sub-07	1	localizer	stimulus	Gesicht	NaN	0	2.501830500000324	NaN	True	NaN	NaN	NaN	NaN	NaN	NaN	NaN
704.4175667999998	2.5018	sub-07	1	localizer	blank	interval	NaN	NaN	NaN	NaN	NaN	NaN	NaN	NaN	NaN	NaN	NaN	NaN
707.2206066999997	0.4994	sub-07	1	localizer	stimulus	Haus	NaN	0	2.268336299999646	NaN	True	NaN	NaN	NaN	NaN	NaN	NaN	NaN
707.7035762000005	2.2683	sub-07	1	localizer	blank	interval	NaN	NaN	NaN	NaN	NaN	NaN	NaN	NaN	NaN	NaN	NaN	NaN
710.2732671000003	0.4994	sub-07	1	localizer	stimulus	Schuh	NaN	0	2.6021006000000853	NaN	True	NaN	NaN	NaN	NaN	NaN	NaN	NaN
710.7559548999998	2.6021	sub-07	1	localizer	blank	interval	NaN	NaN	NaN	NaN	NaN	NaN	NaN	NaN	NaN	NaN	NaN	NaN
713.6592946999999	0.4996	sub-07	1	localizer	stimulus	Schuh	NaN	0	3.3024132999998983	NaN	True	NaN	NaN	NaN	NaN	NaN	NaN	NaN
714.1422748000005	3.3024	sub-07	1	localizer	blank	interval	NaN	NaN	NaN	NaN	NaN	NaN	NaN	NaN	NaN	NaN	NaN	NaN
717.7458082000003	0.4995	sub-07	1	localizer	stimulus	Katze	NaN	0	1.8680382000002282	NaN	True	NaN	NaN	NaN	NaN	NaN	NaN	NaN
718.2286893	1.868	sub-07	1	localizer	blank	interval	NaN	NaN	NaN	NaN	NaN	NaN	NaN	NaN	NaN	NaN	NaN	NaN
720.3979702000006	0.4995	sub-07	1	localizer	stimulus	Stuhl	NaN	180	1.351522699999805	-10.488515400000324	True	NaN	NaN	NaN	NaN	NaN	NaN	NaN
720.8809603	1.3515	sub-07	1	localizer	blank	interval	NaN	NaN	NaN	NaN	NaN	NaN	NaN	NaN	NaN	NaN	NaN	NaN
722.5331243	0.4995	sub-07	1	localizer	stimulus	Stuhl	NaN	0	2.1682185999998183	NaN	True	NaN	NaN	NaN	NaN	NaN	NaN	NaN
723.0160778	2.1682	sub-07	1	localizer	blank	interval	NaN	NaN	NaN	NaN	NaN	NaN	NaN	NaN	NaN	NaN	NaN	NaN
725.4852676999999	0.4996	sub-07	1	localizer	stimulus	Haus	NaN	0	2.8021662999999535	NaN	True	NaN	NaN	NaN	NaN	NaN	NaN	NaN
725.9682793000002	2.8022	sub-07	1	localizer	blank	interval	NaN	NaN	NaN	NaN	NaN	NaN	NaN	NaN	NaN	NaN	NaN	NaN
729.0715861999997	0.4995	sub-07	1	localizer	stimulus	Katze	NaN	0	2.6355147000003853	NaN	True	NaN	NaN	NaN	NaN	NaN	NaN	NaN
729.5545093999999	2.6355	sub-07	1	localizer	blank	interval	NaN	NaN	NaN	NaN	NaN	NaN	NaN	NaN	NaN	NaN	NaN	NaN
735.6763676	1.0005	sub-07	1	sequence	cue	Haus	NaN	NaN	NaN	NaN	NaN	NaN	NaN	NaN	NaN	NaN	NaN	NaN
736.6768846000004	2.0016	sub-07	1	sequence	blank	blank	NaN	NaN	NaN	NaN	NaN	NaN	NaN	NaN	NaN	NaN	NaN	NaN
738.6784852999999	0.3003	sub-07	1	sequence	fixation	dot	NaN	NaN	NaN	NaN	NaN	NaN	NaN	NaN	NaN	NaN	NaN	NaN
738.9972468000005	0.115	sub-07	1	sequence	stimulus	Katze	NaN	NaN	32.0	NaN	NaN	3.0	1.0	NaN	NaN	NaN	NaN	NaN
739.1122012000005	0.0335	sub-07	1	sequence	interval	dot	NaN	NaN	NaN	NaN	NaN	NaN	NaN	NaN	NaN	NaN	NaN	NaN
739.1456626999998	0.1007	sub-07	1	sequence	stimulus	Gesicht	NaN	NaN	32.0	NaN	NaN	1.0	2.0	NaN	NaN	NaN	NaN	NaN
739.2464000999998	0.0328	sub-07	1	sequence	interval	dot	NaN	NaN	NaN	NaN	NaN	NaN	NaN	NaN	NaN	NaN	NaN	NaN
739.2791728000002	0.0998	sub-07	1	sequence	stimulus	Schuh	NaN	NaN	32.0	NaN	NaN	4.0	3.0	NaN	NaN	NaN	NaN	NaN
739.3790017000001	0.0337	sub-07	1	sequence	interval	dot	NaN	NaN	NaN	NaN	NaN	NaN	NaN	NaN	NaN	NaN	NaN	NaN
739.4126573000003	0.0999	sub-07	1	sequence	stimulus	Haus	NaN	NaN	32.0	NaN	NaN	2.0	4.0	NaN	NaN	NaN	NaN	NaN
739.5125146	0.0335	sub-07	1	sequence	interval	dot	NaN	NaN	NaN	NaN	NaN	NaN	NaN	NaN	NaN	NaN	NaN	NaN
739.5460198000001	0.1	sub-07	1	sequence	stimulus	Stuhl	NaN	NaN	32.0	NaN	NaN	5.0	5.0	NaN	NaN	NaN	NaN	NaN
739.6460636000002	0.0332	sub-07	1	sequence	interval	dot	NaN	NaN	NaN	NaN	NaN	NaN	NaN	NaN	NaN	NaN	NaN	NaN
739.6792750000004	8.5387	sub-07	1	sequence	delay	dot	NaN	NaN	NaN	NaN	NaN	NaN	NaN	NaN	NaN	NaN	NaN	NaN
748.193483	0.8773	sub-07	1	sequence	choice	choice	left	NaN	NaN	-10.45277150000038	True	NaN	NaN	left	True	4.0	5.0	4.0
749.0711461999999	0.4997	sub-07	1	sequence	feedback	NaN	NaN	NaN	NaN	NaN	NaN	NaN	NaN	NaN	NaN	NaN	NaN	NaN
749.5709591000004	1.0004	sub-07	1	sequence	cue	Stuhl	NaN	NaN	NaN	NaN	NaN	NaN	NaN	NaN	NaN	NaN	NaN	NaN
750.5713907999998	2.0017	sub-07	1	sequence	blank	blank	NaN	NaN	NaN	NaN	NaN	NaN	NaN	NaN	NaN	NaN	NaN	NaN
752.5731308000004	0.3003	sub-07	1	sequence	fixation	dot	NaN	NaN	NaN	NaN	NaN	NaN	NaN	NaN	NaN	NaN	NaN	NaN
752.8908256000004	0.0993	sub-07	1	sequence	stimulus	Katze	NaN	NaN	32.0	NaN	NaN	3.0	1.0	NaN	NaN	NaN	NaN	NaN
752.9901133000003	0.0335	sub-07	1	sequence	interval	dot	NaN	NaN	NaN	NaN	NaN	NaN	NaN	NaN	NaN	NaN	NaN	NaN
753.0236344000004	0.0999	sub-07	1	sequence	stimulus	Gesicht	NaN	NaN	32.0	NaN	NaN	1.0	2.0	NaN	NaN	NaN	NaN	NaN
753.1235741	0.0335	sub-07	1	sequence	interval	dot	NaN	NaN	NaN	NaN	NaN	NaN	NaN	NaN	NaN	NaN	NaN	NaN
753.1570788999998	0.0999	sub-07	1	sequence	stimulus	Haus	NaN	NaN	32.0	NaN	NaN	2.0	3.0	NaN	NaN	NaN	NaN	NaN
753.2570100000003	0.0336	sub-07	1	sequence	interval	dot	NaN	NaN	NaN	NaN	NaN	NaN	NaN	NaN	NaN	NaN	NaN	NaN
753.2905771000005	0.0999	sub-07	1	sequence	stimulus	Stuhl	NaN	NaN	32.0	NaN	NaN	5.0	4.0	NaN	NaN	NaN	NaN	NaN
753.3904625000005	0.0335	sub-07	1	sequence	interval	dot	NaN	NaN	NaN	NaN	NaN	NaN	NaN	NaN	NaN	NaN	NaN	NaN
753.4239204000005	0.1	sub-07	1	sequence	stimulus	Schuh	NaN	NaN	32.0	NaN	NaN	4.0	5.0	NaN	NaN	NaN	NaN	NaN
753.5238821000003	0.0334	sub-07	1	sequence	interval	dot	NaN	NaN	NaN	NaN	NaN	NaN	NaN	NaN	NaN	NaN	NaN	NaN
753.5573171000005	8.5385	sub-07	1	sequence	delay	dot	NaN	NaN	NaN	NaN	NaN	NaN	NaN	NaN	NaN	NaN	NaN	NaN
762.0772333000004	0.9046	sub-07	1	sequence	choice	choice	right	NaN	NaN	-10.417563099999825	True	NaN	NaN	right	True	5.0	4.0	4.0
762.9819475000004	0.5001	sub-07	1	sequence	feedback	NaN	NaN	NaN	NaN	NaN	NaN	NaN	NaN	NaN	NaN	NaN	NaN	NaN
763.4822218999998	1.0005	sub-07	1	sequence	cue	Haus	NaN	NaN	NaN	NaN	NaN	NaN	NaN	NaN	NaN	NaN	NaN	NaN
764.4827777	2.0016	sub-07	1	sequence	blank	blank	NaN	NaN	NaN	NaN	NaN	NaN	NaN	NaN	NaN	NaN	NaN	NaN
766.4843646999998	0.3003	sub-07	1	sequence	fixation	dot	NaN	NaN	NaN	NaN	NaN	NaN	NaN	NaN	NaN	NaN	NaN	NaN
766.8169656	0.101	sub-07	1	sequence	stimulus	Schuh	NaN	NaN	128.0	NaN	NaN	4.0	1.0	NaN	NaN	NaN	NaN	NaN
766.9179199	0.1336	sub-07	1	sequence	interval	dot	NaN	NaN	NaN	NaN	NaN	NaN	NaN	NaN	NaN	NaN	NaN	NaN
767.0514791000005	0.1001	sub-07	1	sequence	stimulus	Stuhl	NaN	NaN	128.0	NaN	NaN	5.0	2.0	NaN	NaN	NaN	NaN	NaN
767.1515737999998	0.1334	sub-07	1	sequence	interval	dot	NaN	NaN	NaN	NaN	NaN	NaN	NaN	NaN	NaN	NaN	NaN	NaN
767.2850156000004	0.1	sub-07	1	sequence	stimulus	Katze	NaN	NaN	128.0	NaN	NaN	3.0	3.0	NaN	NaN	NaN	NaN	NaN
767.3850134000004	0.1336	sub-07	1	sequence	interval	dot	NaN	NaN	NaN	NaN	NaN	NaN	NaN	NaN	NaN	NaN	NaN	NaN
767.5185928999999	0.0999	sub-07	1	sequence	stimulus	Haus	NaN	NaN	128.0	NaN	NaN	2.0	4.0	NaN	NaN	NaN	NaN	NaN
767.6184777999997	0.1336	sub-07	1	sequence	interval	dot	NaN	NaN	NaN	NaN	NaN	NaN	NaN	NaN	NaN	NaN	NaN	NaN
767.7520328999999	0.0999	sub-07	1	sequence	stimulus	Gesicht	NaN	NaN	128.0	NaN	NaN	1.0	5.0	NaN	NaN	NaN	NaN	NaN
767.8519815999998	0.1335	sub-07	1	sequence	interval	dot	NaN	NaN	NaN	NaN	NaN	NaN	NaN	NaN	NaN	NaN	NaN	NaN
767.9854516000005	8.0717	sub-07	1	sequence	delay	dot	NaN	NaN	NaN	NaN	NaN	NaN	NaN	NaN	NaN	NaN	NaN	NaN
776.0388525999997	0.7544	sub-07	1	sequence	choice	choice	right	NaN	NaN	-10.564390199999252	True	NaN	NaN	right	True	3.0	4.0	4.0
776.7934624999998	0.4999	sub-07	1	sequence	feedback	NaN	NaN	NaN	NaN	NaN	NaN	NaN	NaN	NaN	NaN	NaN	NaN	NaN
777.2935640000005	1.0003	sub-07	1	sequence	cue	Gesicht	NaN	NaN	NaN	NaN	NaN	NaN	NaN	NaN	NaN	NaN	NaN	NaN
778.2938500999999	2.0017	sub-07	1	sequence	blank	blank	NaN	NaN	NaN	NaN	NaN	NaN	NaN	NaN	NaN	NaN	NaN	NaN
780.2955419999998	0.3002	sub-07	1	sequence	fixation	dot	NaN	NaN	NaN	NaN	NaN	NaN	NaN	NaN	NaN	NaN	NaN	NaN
780.6140194	0.115	sub-07	1	sequence	stimulus	Stuhl	NaN	NaN	64.0	NaN	NaN	5.0	1.0	NaN	NaN	NaN	NaN	NaN
780.7290379000005	0.0669	sub-07	1	sequence	interval	dot	NaN	NaN	NaN	NaN	NaN	NaN	NaN	NaN	NaN	NaN	NaN	NaN
780.7959107000006	0.1	sub-07	1	sequence	stimulus	Katze	NaN	NaN	64.0	NaN	NaN	3.0	2.0	NaN	NaN	NaN	NaN	NaN
780.8959077999998	0.0668	sub-07	1	sequence	interval	dot	NaN	NaN	NaN	NaN	NaN	NaN	NaN	NaN	NaN	NaN	NaN	NaN
780.9627393000001	0.1	sub-07	1	sequence	stimulus	Schuh	NaN	NaN	64.0	NaN	NaN	4.0	3.0	NaN	NaN	NaN	NaN	NaN
781.0627009999998	0.0668	sub-07	1	sequence	interval	dot	NaN	NaN	NaN	NaN	NaN	NaN	NaN	NaN	NaN	NaN	NaN	NaN
781.1295184999999	0.1	sub-07	1	sequence	stimulus	Gesicht	NaN	NaN	64.0	NaN	NaN	1.0	4.0	NaN	NaN	NaN	NaN	NaN
781.2294984999999	0.0668	sub-07	1	sequence	interval	dot	NaN	NaN	NaN	NaN	NaN	NaN	NaN	NaN	NaN	NaN	NaN	NaN
781.2963338999998	0.1	sub-07	1	sequence	stimulus	Haus	NaN	NaN	64.0	NaN	NaN	2.0	5.0	NaN	NaN	NaN	NaN	NaN
781.3963037000003	0.0668	sub-07	1	sequence	interval	dot	NaN	NaN	NaN	NaN	NaN	NaN	NaN	NaN	NaN	NaN	NaN	NaN
781.4630613999998	8.3718	sub-07	1	sequence	delay	dot	NaN	NaN	NaN	NaN	NaN	NaN	NaN	NaN	NaN	NaN	NaN	NaN
789.8185642999997	1.0526	sub-07	1	sequence	choice	choice	left	NaN	NaN	-10.269588299999668	True	NaN	NaN	left	True	4.0	5.0	4.0
790.8714231000004	0.5	sub-07	1	sequence	feedback	NaN	NaN	NaN	NaN	NaN	NaN	NaN	NaN	NaN	NaN	NaN	NaN	NaN
791.3715713000001	1.0004	sub-07	1	sequence	cue	Gesicht	NaN	NaN	NaN	NaN	NaN	NaN	NaN	NaN	NaN	NaN	NaN	NaN
792.3719613000003	2.0017	sub-07	1	sequence	blank	blank	NaN	NaN	NaN	NaN	NaN	NaN	NaN	NaN	NaN	NaN	NaN	NaN
794.3736645999998	0.3003	sub-07	1	sequence	fixation	dot	NaN	NaN	NaN	NaN	NaN	NaN	NaN	NaN	NaN	NaN	NaN	NaN
794.6915428000002	0.0991	sub-07	1	sequence	stimulus	Stuhl	NaN	NaN	64.0	NaN	NaN	5.0	1.0	NaN	NaN	NaN	NaN	NaN
794.7906783999997	0.0669	sub-07	1	sequence	interval	dot	NaN	NaN	NaN	NaN	NaN	NaN	NaN	NaN	NaN	NaN	NaN	NaN
794.8575440000004	0.0999	sub-07	1	sequence	stimulus	Schuh	NaN	NaN	64.0	NaN	NaN	4.0	2.0	NaN	NaN	NaN	NaN	NaN
794.9574757	0.0668	sub-07	1	sequence	interval	dot	NaN	NaN	NaN	NaN	NaN	NaN	NaN	NaN	NaN	NaN	NaN	NaN
795.0243183000002	0.0999	sub-07	1	sequence	stimulus	Haus	NaN	NaN	64.0	NaN	NaN	2.0	3.0	NaN	NaN	NaN	NaN	NaN
795.1242586999997	0.0668	sub-07	1	sequence	interval	dot	NaN	NaN	NaN	NaN	NaN	NaN	NaN	NaN	NaN	NaN	NaN	NaN
795.1911076000006	0.0999	sub-07	1	sequence	stimulus	Katze	NaN	NaN	64.0	NaN	NaN	3.0	4.0	NaN	NaN	NaN	NaN	NaN
795.2910133000005	0.0668	sub-07	1	sequence	interval	dot	NaN	NaN	NaN	NaN	NaN	NaN	NaN	NaN	NaN	NaN	NaN	NaN
795.3578615000006	0.1	sub-07	1	sequence	stimulus	Gesicht	NaN	NaN	64.0	NaN	NaN	1.0	5.0	NaN	NaN	NaN	NaN	NaN
795.4578915000002	0.0666	sub-07	1	sequence	interval	dot	NaN	NaN	NaN	NaN	NaN	NaN	NaN	NaN	NaN	NaN	NaN	NaN
795.5245214000006	8.3719	sub-07	1	sequence	delay	dot	NaN	NaN	NaN	NaN	NaN	NaN	NaN	NaN	NaN	NaN	NaN	NaN
803.8843599000002	0.7315	sub-07	1	sequence	choice	choice	right	NaN	NaN	-10.587781899999754	True	NaN	NaN	right	True	4.0	5.0	5.0
804.6160891999998	0.4999	sub-07	1	sequence	feedback	NaN	NaN	NaN	NaN	NaN	NaN	NaN	NaN	NaN	NaN	NaN	NaN	NaN
805.1162190000005	1.0002	sub-07	1	sequence	cue	Schuh	NaN	NaN	NaN	NaN	NaN	NaN	NaN	NaN	NaN	NaN	NaN	NaN
806.1164360000002	2.0015	sub-07	1	sequence	blank	blank	NaN	NaN	NaN	NaN	NaN	NaN	NaN	NaN	NaN	NaN	NaN	NaN
808.1179221000002	0.3002	sub-07	1	sequence	fixation	dot	NaN	NaN	NaN	NaN	NaN	NaN	NaN	NaN	NaN	NaN	NaN	NaN
808.4359243999997	0.099	sub-07	1	sequence	stimulus	Gesicht	NaN	NaN	512.0	NaN	NaN	1.0	1.0	NaN	NaN	NaN	NaN	NaN
808.5349520999998	0.5173	sub-07	1	sequence	interval	dot	NaN	NaN	NaN	NaN	NaN	NaN	NaN	NaN	NaN	NaN	NaN	NaN
809.0522350000001	0.0998	sub-07	1	sequence	stimulus	Stuhl	NaN	NaN	512.0	NaN	NaN	5.0	2.0	NaN	NaN	NaN	NaN	NaN
809.1520830999998	0.5172	sub-07	1	sequence	interval	dot	NaN	NaN	NaN	NaN	NaN	NaN	NaN	NaN	NaN	NaN	NaN	NaN
809.6692571000003	0.1	sub-07	1	sequence	stimulus	Haus	NaN	NaN	512.0	NaN	NaN	2.0	3.0	NaN	NaN	NaN	NaN	NaN
809.7692638999997	0.5172	sub-07	1	sequence	interval	dot	NaN	NaN	NaN	NaN	NaN	NaN	NaN	NaN	NaN	NaN	NaN	NaN
810.2864473	0.0999	sub-07	1	sequence	stimulus	Schuh	NaN	NaN	512.0	NaN	NaN	4.0	4.0	NaN	NaN	NaN	NaN	NaN
810.3863360000005	0.5173	sub-07	1	sequence	interval	dot	NaN	NaN	NaN	NaN	NaN	NaN	NaN	NaN	NaN	NaN	NaN	NaN
810.903609	0.1	sub-07	1	sequence	stimulus	Katze	NaN	NaN	512.0	NaN	NaN	3.0	5.0	NaN	NaN	NaN	NaN	NaN
811.0035797999999	0.5171	sub-07	1	sequence	interval	dot	NaN	NaN	NaN	NaN	NaN	NaN	NaN	NaN	NaN	NaN	NaN	NaN
811.5206336000001	6.137	sub-07	1	sequence	delay	dot	NaN	NaN	NaN	NaN	NaN	NaN	NaN	NaN	NaN	NaN	NaN	NaN
817.6380061	1.0556	sub-07	1	sequence	choice	choice	left	NaN	NaN	-10.276272099999916	True	NaN	NaN	left	True	4.0	5.0	4.0
818.6938841000001	0.5	sub-07	1	sequence	feedback	NaN	NaN	NaN	NaN	NaN	NaN	NaN	NaN	NaN	NaN	NaN	NaN	NaN
819.1940556999998	1.0003	sub-07	1	sequence	cue	Haus	NaN	NaN	NaN	NaN	NaN	NaN	NaN	NaN	NaN	NaN	NaN	NaN
820.1943713000001	2.0016	sub-07	1	sequence	blank	blank	NaN	NaN	NaN	NaN	NaN	NaN	NaN	NaN	NaN	NaN	NaN	NaN
822.1960101000004	0.3002	sub-07	1	sequence	fixation	dot	NaN	NaN	NaN	NaN	NaN	NaN	NaN	NaN	NaN	NaN	NaN	NaN
822.5145474000001	0.1151	sub-07	1	sequence	stimulus	Katze	NaN	NaN	512.0	NaN	NaN	3.0	1.0	NaN	NaN	NaN	NaN	NaN
822.6296627000002	0.5172	sub-07	1	sequence	interval	dot	NaN	NaN	NaN	NaN	NaN	NaN	NaN	NaN	NaN	NaN	NaN	NaN
823.1468654999999	0.0999	sub-07	1	sequence	stimulus	Gesicht	NaN	NaN	512.0	NaN	NaN	1.0	2.0	NaN	NaN	NaN	NaN	NaN
823.2467906000002	0.5172	sub-07	1	sequence	interval	dot	NaN	NaN	NaN	NaN	NaN	NaN	NaN	NaN	NaN	NaN	NaN	NaN
823.7640096000005	0.1	sub-07	1	sequence	stimulus	Stuhl	NaN	NaN	512.0	NaN	NaN	5.0	3.0	NaN	NaN	NaN	NaN	NaN
823.8639734999997	0.5173	sub-07	1	sequence	interval	dot	NaN	NaN	NaN	NaN	NaN	NaN	NaN	NaN	NaN	NaN	NaN	NaN
824.3812724999998	0.0998	sub-07	1	sequence	stimulus	Haus	NaN	NaN	512.0	NaN	NaN	2.0	4.0	NaN	NaN	NaN	NaN	NaN
824.4811104999999	0.5174	sub-07	1	sequence	interval	dot	NaN	NaN	NaN	NaN	NaN	NaN	NaN	NaN	NaN	NaN	NaN	NaN
824.9984964000005	0.0999	sub-07	1	sequence	stimulus	Schuh	NaN	NaN	512.0	NaN	NaN	4.0	5.0	NaN	NaN	NaN	NaN	NaN
825.0984171	0.517	sub-07	1	sequence	interval	dot	NaN	NaN	NaN	NaN	NaN	NaN	NaN	NaN	NaN	NaN	NaN	NaN
825.6154591000004	6.1533	sub-07	1	sequence	delay	dot	NaN	NaN	NaN	NaN	NaN	NaN	NaN	NaN	NaN	NaN	NaN	NaN
831.7557199000003	0.8328	sub-07	1	sequence	choice	choice	left	NaN	NaN	-10.484116800000264	True	NaN	NaN	left	True	4.0	5.0	4.0
832.5888105000004	0.4998	sub-07	1	sequence	feedback	NaN	NaN	NaN	NaN	NaN	NaN	NaN	NaN	NaN	NaN	NaN	NaN	NaN
833.088804	1.0002	sub-07	1	sequence	cue	Gesicht	NaN	NaN	NaN	NaN	NaN	NaN	NaN	NaN	NaN	NaN	NaN	NaN
834.0890196999999	2.0016	sub-07	1	sequence	blank	blank	NaN	NaN	NaN	NaN	NaN	NaN	NaN	NaN	NaN	NaN	NaN	NaN
836.0906099000003	0.3001	sub-07	1	sequence	fixation	dot	NaN	NaN	NaN	NaN	NaN	NaN	NaN	NaN	NaN	NaN	NaN	NaN
836.4083515000002	0.0992	sub-07	1	sequence	stimulus	Katze	NaN	NaN	128.0	NaN	NaN	3.0	1.0	NaN	NaN	NaN	NaN	NaN
836.5075752000002	0.1336	sub-07	1	sequence	interval	dot	NaN	NaN	NaN	NaN	NaN	NaN	NaN	NaN	NaN	NaN	NaN	NaN
836.6411721000004	0.0999	sub-07	1	sequence	stimulus	Haus	NaN	NaN	128.0	NaN	NaN	2.0	2.0	NaN	NaN	NaN	NaN	NaN
836.7410451000005	0.1336	sub-07	1	sequence	interval	dot	NaN	NaN	NaN	NaN	NaN	NaN	NaN	NaN	NaN	NaN	NaN	NaN
836.8746023000003	0.0999	sub-07	1	sequence	stimulus	Schuh	NaN	NaN	128.0	NaN	NaN	4.0	3.0	NaN	NaN	NaN	NaN	NaN
836.9745440000006	0.1337	sub-07	1	sequence	interval	dot	NaN	NaN	NaN	NaN	NaN	NaN	NaN	NaN	NaN	NaN	NaN	NaN
837.1082813000003	0.0998	sub-07	1	sequence	stimulus	Gesicht	NaN	NaN	128.0	NaN	NaN	1.0	4.0	NaN	NaN	NaN	NaN	NaN
837.2081049999997	0.1336	sub-07	1	sequence	interval	dot	NaN	NaN	NaN	NaN	NaN	NaN	NaN	NaN	NaN	NaN	NaN	NaN
837.3417196	0.0999	sub-07	1	sequence	stimulus	Stuhl	NaN	NaN	128.0	NaN	NaN	5.0	5.0	NaN	NaN	NaN	NaN	NaN
837.4416049000001	0.1334	sub-07	1	sequence	interval	dot	NaN	NaN	NaN	NaN	NaN	NaN	NaN	NaN	NaN	NaN	NaN	NaN
837.5750032000005	8.0551	sub-07	1	sequence	delay	dot	NaN	NaN	NaN	NaN	NaN	NaN	NaN	NaN	NaN	NaN	NaN	NaN
845.6134502000004	0.9197	sub-07	1	sequence	choice	choice	right	NaN	NaN	-10.401011599999949	True	NaN	NaN	right	True	5.0	4.0	4.0
846.5334285999998	0.4997	sub-07	1	sequence	feedback	NaN	NaN	NaN	NaN	NaN	NaN	NaN	NaN	NaN	NaN	NaN	NaN	NaN
847.0336219000001	30.8579	sub-07	1	other	break	break	NaN	NaN	NaN	NaN	NaN	NaN	NaN	NaN	NaN	NaN	NaN	NaN
881.7116672000002	0.4995	sub-07	1	localizer	stimulus	Haus	NaN	0	3.8364115999993373	NaN	True	NaN	NaN	NaN	NaN	NaN	NaN	NaN
882.2111331000006	3.8364	sub-07	1	localizer	blank	interval	NaN	NaN	NaN	NaN	NaN	NaN	NaN	NaN	NaN	NaN	NaN	NaN
886.3487543000001	0.4994	sub-07	1	localizer	stimulus	Haus	NaN	0	2.385349000000133	NaN	True	NaN	NaN	NaN	NaN	NaN	NaN	NaN
886.8317083000002	2.3853	sub-07	1	localizer	blank	interval	NaN	NaN	NaN	NaN	NaN	NaN	NaN	NaN	NaN	NaN	NaN	NaN
889.5180183000002	0.4995	sub-07	1	localizer	stimulus	Gesicht	NaN	0	1.834637200000543	NaN	True	NaN	NaN	NaN	NaN	NaN	NaN	NaN
890.0009633999998	1.8346	sub-07	1	localizer	blank	interval	NaN	NaN	NaN	NaN	NaN	NaN	NaN	NaN	NaN	NaN	NaN	NaN
892.1369499000002	0.4995	sub-07	1	localizer	stimulus	Haus	NaN	180	3.1859682000003886	-10.643984700000146	True	NaN	NaN	NaN	NaN	NaN	NaN	NaN
892.6196742000002	3.186	sub-07	1	localizer	blank	interval	NaN	NaN	NaN	NaN	NaN	NaN	NaN	NaN	NaN	NaN	NaN	NaN
896.1068274999998	0.4994	sub-07	1	localizer	stimulus	Katze	NaN	0	3.018865399999413	NaN	True	NaN	NaN	NaN	NaN	NaN	NaN	NaN
896.5896644000004	3.0189	sub-07	1	localizer	blank	interval	NaN	NaN	NaN	NaN	NaN	NaN	NaN	NaN	NaN	NaN	NaN	NaN
899.9097103000004	0.4995	sub-07	1	localizer	stimulus	Haus	NaN	0	2.6520196000002443	NaN	True	NaN	NaN	NaN	NaN	NaN	NaN	NaN
900.3926401999997	2.652	sub-07	1	localizer	blank	interval	NaN	NaN	NaN	NaN	NaN	NaN	NaN	NaN	NaN	NaN	NaN	NaN
903.3458628999996	0.4994	sub-07	1	localizer	stimulus	Schuh	NaN	0	2.3850429999994276	NaN	True	NaN	NaN	NaN	NaN	NaN	NaN	NaN
903.8288158000004	2.385	sub-07	1	localizer	blank	interval	NaN	NaN	NaN	NaN	NaN	NaN	NaN	NaN	NaN	NaN	NaN	NaN
906.5149960999996	0.4996	sub-07	1	localizer	stimulus	Stuhl	NaN	0	2.4519828000002235	NaN	True	NaN	NaN	NaN	NaN	NaN	NaN	NaN
906.997934	2.452	sub-07	1	localizer	blank	interval	NaN	NaN	NaN	NaN	NaN	NaN	NaN	NaN	NaN	NaN	NaN	NaN
909.7510099	0.4996	sub-07	1	localizer	stimulus	Haus	NaN	0	2.8020152999997663	NaN	True	NaN	NaN	NaN	NaN	NaN	NaN	NaN
910.2340377	2.802	sub-07	1	localizer	blank	interval	NaN	NaN	NaN	NaN	NaN	NaN	NaN	NaN	NaN	NaN	NaN	NaN
913.3372623000004	0.4995	sub-07	1	localizer	stimulus	Stuhl	NaN	180	3.2022576999996772	-10.523954199999936	True	NaN	NaN	NaN	NaN	NaN	NaN	NaN
913.8203670000004	3.2023	sub-07	1	localizer	blank	interval	NaN	NaN	NaN	NaN	NaN	NaN	NaN	NaN	NaN	NaN	NaN	NaN
917.323711	0.5007	sub-07	1	localizer	stimulus	Katze	NaN	0	3.069009499999993	NaN	True	NaN	NaN	NaN	NaN	NaN	NaN	NaN
917.8066974000004	3.069	sub-07	1	localizer	blank	interval	NaN	NaN	NaN	NaN	NaN	NaN	NaN	NaN	NaN	NaN	NaN	NaN
921.1769019000004	0.4995	sub-07	1	localizer	stimulus	Stuhl	NaN	0	2.6686236000003873	NaN	True	NaN	NaN	NaN	NaN	NaN	NaN	NaN
921.6598949	2.6686	sub-07	1	localizer	blank	interval	NaN	NaN	NaN	NaN	NaN	NaN	NaN	NaN	NaN	NaN	NaN	NaN
924.6296711000005	0.4996	sub-07	1	localizer	stimulus	Gesicht	NaN	0	1.8847580000000335	NaN	True	NaN	NaN	NaN	NaN	NaN	NaN	NaN
925.1126688000004	1.8848	sub-07	1	localizer	blank	interval	NaN	NaN	NaN	NaN	NaN	NaN	NaN	NaN	NaN	NaN	NaN	NaN
927.2984774000006	0.5	sub-07	1	localizer	stimulus	Schuh	NaN	0	2.9022578999994266	NaN	True	NaN	NaN	NaN	NaN	NaN	NaN	NaN
927.7815003000004	2.9023	sub-07	1	localizer	blank	interval	NaN	NaN	NaN	NaN	NaN	NaN	NaN	NaN	NaN	NaN	NaN	NaN
930.9848091000003	0.4997	sub-07	1	localizer	stimulus	Katze	NaN	180	2.501911400000836	-10.491629199999808	True	NaN	NaN	NaN	NaN	NaN	NaN	NaN
931.4678243999996	2.5019	sub-07	1	localizer	blank	interval	NaN	NaN	NaN	NaN	NaN	NaN	NaN	NaN	NaN	NaN	NaN	NaN
934.2708795	0.4996	sub-07	1	localizer	stimulus	Katze	NaN	0	1.4678294000004826	NaN	True	NaN	NaN	NaN	NaN	NaN	NaN	NaN
934.7538648	1.4678	sub-07	1	localizer	blank	interval	NaN	NaN	NaN	NaN	NaN	NaN	NaN	NaN	NaN	NaN	NaN	NaN
936.5228042999996	0.4994	sub-07	1	localizer	stimulus	Gesicht	NaN	0	2.6185182000000395	NaN	True	NaN	NaN	NaN	NaN	NaN	NaN	NaN
937.0056811000004	2.6185	sub-07	1	localizer	blank	interval	NaN	NaN	NaN	NaN	NaN	NaN	NaN	NaN	NaN	NaN	NaN	NaN
939.9253408000004	0.4995	sub-07	1	localizer	stimulus	Gesicht	NaN	180	2.6520117000000027	-10.46472619999986	True	NaN	NaN	NaN	NaN	NaN	NaN	NaN
940.4083050999998	2.652	sub-07	1	localizer	blank	interval	NaN	NaN	NaN	NaN	NaN	NaN	NaN	NaN	NaN	NaN	NaN	NaN
943.3614599000002	0.4994	sub-07	1	localizer	stimulus	Stuhl	NaN	0	2.134927199999993	NaN	True	NaN	NaN	NaN	NaN	NaN	NaN	NaN
943.8444199000004	2.1349	sub-07	1	localizer	blank	interval	NaN	NaN	NaN	NaN	NaN	NaN	NaN	NaN	NaN	NaN	NaN	NaN
946.2805012	0.4995	sub-07	1	localizer	stimulus	Stuhl	NaN	0	1.7179095000001325	NaN	True	NaN	NaN	NaN	NaN	NaN	NaN	NaN
946.7634464000002	1.7179	sub-07	1	localizer	blank	interval	NaN	NaN	NaN	NaN	NaN	NaN	NaN	NaN	NaN	NaN	NaN	NaN
948.7825301000004	0.4995	sub-07	1	localizer	stimulus	Schuh	NaN	0	3.052415699999983	NaN	True	NaN	NaN	NaN	NaN	NaN	NaN	NaN
949.2654629	3.0524	sub-07	1	localizer	blank	interval	NaN	NaN	NaN	NaN	NaN	NaN	NaN	NaN	NaN	NaN	NaN	NaN
952.6192649000004	0.4993	sub-07	1	localizer	stimulus	Gesicht	NaN	0	1.7513124999995853	NaN	True	NaN	NaN	NaN	NaN	NaN	NaN	NaN
953.1021194000004	1.7513	sub-07	1	localizer	blank	interval	NaN	NaN	NaN	NaN	NaN	NaN	NaN	NaN	NaN	NaN	NaN	NaN
955.1543916	0.4995	sub-07	1	localizer	stimulus	Katze	NaN	0	2.5017383000003974	NaN	True	NaN	NaN	NaN	NaN	NaN	NaN	NaN
955.6373906999996	2.5017	sub-07	1	localizer	blank	interval	NaN	NaN	NaN	NaN	NaN	NaN	NaN	NaN	NaN	NaN	NaN	NaN
958.4403425	0.4995	sub-07	1	localizer	stimulus	Schuh	NaN	0	2.2683285000003934	NaN	True	NaN	NaN	NaN	NaN	NaN	NaN	NaN
958.92331	2.2683	sub-07	1	localizer	blank	interval	NaN	NaN	NaN	NaN	NaN	NaN	NaN	NaN	NaN	NaN	NaN	NaN
961.4927889	0.4995	sub-07	1	localizer	stimulus	Schuh	NaN	180	1.7846402000003536	-10.479458699999668	True	NaN	NaN	NaN	NaN	NaN	NaN	NaN
961.9757295	1.7846	sub-07	1	localizer	blank	interval	NaN	NaN	NaN	NaN	NaN	NaN	NaN	NaN	NaN	NaN	NaN	NaN
967.2468491	1.0006	sub-07	1	sequence	cue	Stuhl	NaN	NaN	NaN	NaN	NaN	NaN	NaN	NaN	NaN	NaN	NaN	NaN
968.2474372000006	2.0016	sub-07	1	sequence	blank	blank	NaN	NaN	NaN	NaN	NaN	NaN	NaN	NaN	NaN	NaN	NaN	NaN
970.2490347000004	0.3002	sub-07	1	sequence	fixation	dot	NaN	NaN	NaN	NaN	NaN	NaN	NaN	NaN	NaN	NaN	NaN	NaN
970.5670381	0.099	sub-07	1	sequence	stimulus	Schuh	NaN	NaN	128.0	NaN	NaN	4.0	1.0	NaN	NaN	NaN	NaN	NaN
970.6660452000006	0.1335	sub-07	1	sequence	interval	dot	NaN	NaN	NaN	NaN	NaN	NaN	NaN	NaN	NaN	NaN	NaN	NaN
970.7995778000004	0.0999	sub-07	1	sequence	stimulus	Stuhl	NaN	NaN	128.0	NaN	NaN	5.0	2.0	NaN	NaN	NaN	NaN	NaN
970.8995037000004	0.1336	sub-07	1	sequence	interval	dot	NaN	NaN	NaN	NaN	NaN	NaN	NaN	NaN	NaN	NaN	NaN	NaN
971.0330825	0.0999	sub-07	1	sequence	stimulus	Katze	NaN	NaN	128.0	NaN	NaN	3.0	3.0	NaN	NaN	NaN	NaN	NaN
971.1329581999998	0.1337	sub-07	1	sequence	interval	dot	NaN	NaN	NaN	NaN	NaN	NaN	NaN	NaN	NaN	NaN	NaN	NaN
971.2666313	0.0999	sub-07	1	sequence	stimulus	Haus	NaN	NaN	128.0	NaN	NaN	2.0	4.0	NaN	NaN	NaN	NaN	NaN
971.3665198999996	0.1337	sub-07	1	sequence	interval	dot	NaN	NaN	NaN	NaN	NaN	NaN	NaN	NaN	NaN	NaN	NaN	NaN
971.5002236	0.0998	sub-07	1	sequence	stimulus	Gesicht	NaN	NaN	128.0	NaN	NaN	1.0	5.0	NaN	NaN	NaN	NaN	NaN
971.6000645000004	0.1335	sub-07	1	sequence	interval	dot	NaN	NaN	NaN	NaN	NaN	NaN	NaN	NaN	NaN	NaN	NaN	NaN
971.7335226000004	8.0549	sub-07	1	sequence	delay	dot	NaN	NaN	NaN	NaN	NaN	NaN	NaN	NaN	NaN	NaN	NaN	NaN
979.7705459999996	0.9042	sub-07	1	sequence	choice	choice	right	NaN	NaN	-10.424041499999475	True	NaN	NaN	right	True	5.0	2.0	2.0
980.6750661000004	0.4996	sub-07	1	sequence	feedback	NaN	NaN	NaN	NaN	NaN	NaN	NaN	NaN	NaN	NaN	NaN	NaN	NaN
981.1748306	1.0005	sub-07	1	sequence	cue	Schuh	NaN	NaN	NaN	NaN	NaN	NaN	NaN	NaN	NaN	NaN	NaN	NaN
982.1753393	2.0017	sub-07	1	sequence	blank	blank	NaN	NaN	NaN	NaN	NaN	NaN	NaN	NaN	NaN	NaN	NaN	NaN
984.1770015000002	0.3002	sub-07	1	sequence	fixation	dot	NaN	NaN	NaN	NaN	NaN	NaN	NaN	NaN	NaN	NaN	NaN	NaN
984.4957227000004	0.1148	sub-07	1	sequence	stimulus	Gesicht	NaN	NaN	512.0	NaN	NaN	1.0	1.0	NaN	NaN	NaN	NaN	NaN
984.6105564	0.5173	sub-07	1	sequence	interval	dot	NaN	NaN	NaN	NaN	NaN	NaN	NaN	NaN	NaN	NaN	NaN	NaN
985.1278143	0.0999	sub-07	1	sequence	stimulus	Stuhl	NaN	NaN	512.0	NaN	NaN	5.0	2.0	NaN	NaN	NaN	NaN	NaN
985.2277480000002	0.5173	sub-07	1	sequence	interval	dot	NaN	NaN	NaN	NaN	NaN	NaN	NaN	NaN	NaN	NaN	NaN	NaN
985.7450221999998	0.0999	sub-07	1	sequence	stimulus	Haus	NaN	NaN	512.0	NaN	NaN	2.0	3.0	NaN	NaN	NaN	NaN	NaN
985.8449433000004	0.5172	sub-07	1	sequence	interval	dot	NaN	NaN	NaN	NaN	NaN	NaN	NaN	NaN	NaN	NaN	NaN	NaN
986.3621628	0.1001	sub-07	1	sequence	stimulus	Schuh	NaN	NaN	512.0	NaN	NaN	4.0	4.0	NaN	NaN	NaN	NaN	NaN
986.4622261000004	0.5172	sub-07	1	sequence	interval	dot	NaN	NaN	NaN	NaN	NaN	NaN	NaN	NaN	NaN	NaN	NaN	NaN
986.9794018000002	0.1	sub-07	1	sequence	stimulus	Katze	NaN	NaN	512.0	NaN	NaN	3.0	5.0	NaN	NaN	NaN	NaN	NaN
987.0793905	0.5171	sub-07	1	sequence	interval	dot	NaN	NaN	NaN	NaN	NaN	NaN	NaN	NaN	NaN	NaN	NaN	NaN
987.5965088000004	6.1533	sub-07	1	sequence	delay	dot	NaN	NaN	NaN	NaN	NaN	NaN	NaN	NaN	NaN	NaN	NaN	NaN
993.7322142000004	0.804	sub-07	1	sequence	choice	choice	right	NaN	NaN	-10.528846399999566	True	NaN	NaN	right	True	5.0	4.0	4.0
994.5364361000002	0.4998	sub-07	1	sequence	feedback	NaN	NaN	NaN	NaN	NaN	NaN	NaN	NaN	NaN	NaN	NaN	NaN	NaN
995.0363642000002	1.0004	sub-07	1	sequence	cue	Haus	NaN	NaN	NaN	NaN	NaN	NaN	NaN	NaN	NaN	NaN	NaN	NaN
996.0367868000004	2.0014	sub-07	1	sequence	blank	blank	NaN	NaN	NaN	NaN	NaN	NaN	NaN	NaN	NaN	NaN	NaN	NaN
998.0381804999996	0.3003	sub-07	1	sequence	fixation	dot	NaN	NaN	NaN	NaN	NaN	NaN	NaN	NaN	NaN	NaN	NaN	NaN
998.3566941999998	0.1152	sub-07	1	sequence	stimulus	Katze	NaN	NaN	512.0	NaN	NaN	3.0	1.0	NaN	NaN	NaN	NaN	NaN
998.4719139999996	0.5171	sub-07	1	sequence	interval	dot	NaN	NaN	NaN	NaN	NaN	NaN	NaN	NaN	NaN	NaN	NaN	NaN
998.988996	0.1001	sub-07	1	sequence	stimulus	Gesicht	NaN	NaN	512.0	NaN	NaN	1.0	2.0	NaN	NaN	NaN	NaN	NaN
999.0890833000004	0.5172	sub-07	1	sequence	interval	dot	NaN	NaN	NaN	NaN	NaN	NaN	NaN	NaN	NaN	NaN	NaN	NaN
999.6062485000002	0.0999	sub-07	1	sequence	stimulus	Stuhl	NaN	NaN	512.0	NaN	NaN	5.0	3.0	NaN	NaN	NaN	NaN	NaN
999.7061793000004	0.5171	sub-07	1	sequence	interval	dot	NaN	NaN	NaN	NaN	NaN	NaN	NaN	NaN	NaN	NaN	NaN	NaN
1000.2232970000003	0.1	sub-07	1	sequence	stimulus	Haus	NaN	NaN	512.0	NaN	NaN	2.0	4.0	NaN	NaN	NaN	NaN	NaN
1000.3233243000004	0.5173	sub-07	1	sequence	interval	dot	NaN	NaN	NaN	NaN	NaN	NaN	NaN	NaN	NaN	NaN	NaN	NaN
1000.8406394000004	0.0998	sub-07	1	sequence	stimulus	Schuh	NaN	NaN	512.0	NaN	NaN	4.0	5.0	NaN	NaN	NaN	NaN	NaN
1000.9403952000002	0.5171	sub-07	1	sequence	interval	dot	NaN	NaN	NaN	NaN	NaN	NaN	NaN	NaN	NaN	NaN	NaN	NaN
1001.4574856	6.1535	sub-07	1	sequence	delay	dot	NaN	NaN	NaN	NaN	NaN	NaN	NaN	NaN	NaN	NaN	NaN	NaN
1007.5899894000004	0.7738	sub-07	1	sequence	choice	choice	left	NaN	NaN	-10.55012859999988	True	NaN	NaN	left	True	4.0	5.0	4.0
1008.3641159	0.4998	sub-07	1	sequence	feedback	NaN	NaN	NaN	NaN	NaN	NaN	NaN	NaN	NaN	NaN	NaN	NaN	NaN
1008.8641008000004	1.0003	sub-07	1	sequence	cue	Gesicht	NaN	NaN	NaN	NaN	NaN	NaN	NaN	NaN	NaN	NaN	NaN	NaN
1009.8644022	2.0015	sub-07	1	sequence	blank	blank	NaN	NaN	NaN	NaN	NaN	NaN	NaN	NaN	NaN	NaN	NaN	NaN
1011.8659558	0.3002	sub-07	1	sequence	fixation	dot	NaN	NaN	NaN	NaN	NaN	NaN	NaN	NaN	NaN	NaN	NaN	NaN
1012.1837311	0.0992	sub-07	1	sequence	stimulus	Katze	NaN	NaN	128.0	NaN	NaN	3.0	1.0	NaN	NaN	NaN	NaN	NaN
1012.2829681000004	0.1336	sub-07	1	sequence	interval	dot	NaN	NaN	NaN	NaN	NaN	NaN	NaN	NaN	NaN	NaN	NaN	NaN
1012.4165412000002	0.1	sub-07	1	sequence	stimulus	Haus	NaN	NaN	128.0	NaN	NaN	2.0	2.0	NaN	NaN	NaN	NaN	NaN
1012.5165506000004	0.1335	sub-07	1	sequence	interval	dot	NaN	NaN	NaN	NaN	NaN	NaN	NaN	NaN	NaN	NaN	NaN	NaN
1012.6500772	0.0999	sub-07	1	sequence	stimulus	Schuh	NaN	NaN	128.0	NaN	NaN	4.0	3.0	NaN	NaN	NaN	NaN	NaN
1012.7499702000003	0.1336	sub-07	1	sequence	interval	dot	NaN	NaN	NaN	NaN	NaN	NaN	NaN	NaN	NaN	NaN	NaN	NaN
1012.8835931000004	0.0999	sub-07	1	sequence	stimulus	Gesicht	NaN	NaN	128.0	NaN	NaN	1.0	4.0	NaN	NaN	NaN	NaN	NaN
1012.9835328999998	0.1336	sub-07	1	sequence	interval	dot	NaN	NaN	NaN	NaN	NaN	NaN	NaN	NaN	NaN	NaN	NaN	NaN
1013.1171427	0.0999	sub-07	1	sequence	stimulus	Stuhl	NaN	NaN	128.0	NaN	NaN	5.0	5.0	NaN	NaN	NaN	NaN	NaN
1013.2170246000004	0.1335	sub-07	1	sequence	interval	dot	NaN	NaN	NaN	NaN	NaN	NaN	NaN	NaN	NaN	NaN	NaN	NaN
1013.3504858000006	8.0718	sub-07	1	sequence	delay	dot	NaN	NaN	NaN	NaN	NaN	NaN	NaN	NaN	NaN	NaN	NaN	NaN
1021.3956727000004	0.8792	sub-07	1	sequence	choice	choice	left	NaN	NaN	-10.456087599999591	True	NaN	NaN	left	True	4.0	3.0	4.0
1022.2751024	0.5	sub-07	1	sequence	feedback	NaN	NaN	NaN	NaN	NaN	NaN	NaN	NaN	NaN	NaN	NaN	NaN	NaN
1022.7753344000002	1.0002	sub-07	1	sequence	cue	Katze	NaN	NaN	NaN	NaN	NaN	NaN	NaN	NaN	NaN	NaN	NaN	NaN
1023.7755631	2.0017	sub-07	1	sequence	blank	blank	NaN	NaN	NaN	NaN	NaN	NaN	NaN	NaN	NaN	NaN	NaN	NaN
1025.7772285	0.3003	sub-07	1	sequence	fixation	dot	NaN	NaN	NaN	NaN	NaN	NaN	NaN	NaN	NaN	NaN	NaN	NaN
1026.0952171	0.099	sub-07	1	sequence	stimulus	Stuhl	NaN	NaN	64.0	NaN	NaN	5.0	1.0	NaN	NaN	NaN	NaN	NaN
1026.1942285000005	0.0668	sub-07	1	sequence	interval	dot	NaN	NaN	NaN	NaN	NaN	NaN	NaN	NaN	NaN	NaN	NaN	NaN
1026.2610440999997	0.1	sub-07	1	sequence	stimulus	Schuh	NaN	NaN	64.0	NaN	NaN	4.0	2.0	NaN	NaN	NaN	NaN	NaN
1026.3610116	0.0669	sub-07	1	sequence	interval	dot	NaN	NaN	NaN	NaN	NaN	NaN	NaN	NaN	NaN	NaN	NaN	NaN
1026.4279568000002	0.0998	sub-07	1	sequence	stimulus	Haus	NaN	NaN	64.0	NaN	NaN	2.0	3.0	NaN	NaN	NaN	NaN	NaN
1026.527779	0.0669	sub-07	1	sequence	interval	dot	NaN	NaN	NaN	NaN	NaN	NaN	NaN	NaN	NaN	NaN	NaN	NaN
1026.5946673	0.0999	sub-07	1	sequence	stimulus	Katze	NaN	NaN	64.0	NaN	NaN	3.0	4.0	NaN	NaN	NaN	NaN	NaN
1026.6945474000004	0.0669	sub-07	1	sequence	interval	dot	NaN	NaN	NaN	NaN	NaN	NaN	NaN	NaN	NaN	NaN	NaN	NaN
1026.761442	0.1	sub-07	1	sequence	stimulus	Gesicht	NaN	NaN	64.0	NaN	NaN	1.0	5.0	NaN	NaN	NaN	NaN	NaN
1026.8614200000002	0.0667	sub-07	1	sequence	interval	dot	NaN	NaN	NaN	NaN	NaN	NaN	NaN	NaN	NaN	NaN	NaN	NaN
1026.9281206000005	8.3719	sub-07	1	sequence	delay	dot	NaN	NaN	NaN	NaN	NaN	NaN	NaN	NaN	NaN	NaN	NaN	NaN
1035.2792793	1.4243	sub-07	1	sequence	choice	choice	left	NaN	NaN	-9.90328110000064	True	NaN	NaN	left	True	4.0	5.0	4.0
1036.7038561	0.4998	sub-07	1	sequence	feedback	NaN	NaN	NaN	NaN	NaN	NaN	NaN	NaN	NaN	NaN	NaN	NaN	NaN
1037.2037930000006	1.0003	sub-07	1	sequence	cue	Stuhl	NaN	NaN	NaN	NaN	NaN	NaN	NaN	NaN	NaN	NaN	NaN	NaN
1038.2041342000002	2.0016	sub-07	1	sequence	blank	blank	NaN	NaN	NaN	NaN	NaN	NaN	NaN	NaN	NaN	NaN	NaN	NaN
1040.2057067000003	0.3003	sub-07	1	sequence	fixation	dot	NaN	NaN	NaN	NaN	NaN	NaN	NaN	NaN	NaN	NaN	NaN	NaN
1040.5392864000005	0.0999	sub-07	1	sequence	stimulus	Katze	NaN	NaN	32.0	NaN	NaN	3.0	1.0	NaN	NaN	NaN	NaN	NaN
1040.6391472000005	0.0335	sub-07	1	sequence	interval	dot	NaN	NaN	NaN	NaN	NaN	NaN	NaN	NaN	NaN	NaN	NaN	NaN
1040.6726526000002	0.1	sub-07	1	sequence	stimulus	Gesicht	NaN	NaN	32.0	NaN	NaN	1.0	2.0	NaN	NaN	NaN	NaN	NaN
1040.7726054000004	0.0336	sub-07	1	sequence	interval	dot	NaN	NaN	NaN	NaN	NaN	NaN	NaN	NaN	NaN	NaN	NaN	NaN
1040.8062080999998	0.0998	sub-07	1	sequence	stimulus	Schuh	NaN	NaN	32.0	NaN	NaN	4.0	3.0	NaN	NaN	NaN	NaN	NaN
1040.9060455	0.0335	sub-07	1	sequence	interval	dot	NaN	NaN	NaN	NaN	NaN	NaN	NaN	NaN	NaN	NaN	NaN	NaN
1040.9395774000004	0.0999	sub-07	1	sequence	stimulus	Haus	NaN	NaN	32.0	NaN	NaN	2.0	4.0	NaN	NaN	NaN	NaN	NaN
1041.0394578000005	0.0336	sub-07	1	sequence	interval	dot	NaN	NaN	NaN	NaN	NaN	NaN	NaN	NaN	NaN	NaN	NaN	NaN
1041.0730339000002	0.1	sub-07	1	sequence	stimulus	Stuhl	NaN	NaN	32.0	NaN	NaN	5.0	5.0	NaN	NaN	NaN	NaN	NaN
1041.1730306999998	0.0332	sub-07	1	sequence	interval	dot	NaN	NaN	NaN	NaN	NaN	NaN	NaN	NaN	NaN	NaN	NaN	NaN
1041.2062599	8.5221	sub-07	1	sequence	delay	dot	NaN	NaN	NaN	NaN	NaN	NaN	NaN	NaN	NaN	NaN	NaN	NaN
1049.7091779000002	1.089	sub-07	1	sequence	choice	choice	right	NaN	NaN	-10.24362199999996	True	NaN	NaN	right	True	4.0	5.0	5.0
1050.7984488000002	0.4995	sub-07	1	sequence	feedback	NaN	NaN	NaN	NaN	NaN	NaN	NaN	NaN	NaN	NaN	NaN	NaN	NaN
1051.2980558999998	1.0006	sub-07	1	sequence	cue	Haus	NaN	NaN	NaN	NaN	NaN	NaN	NaN	NaN	NaN	NaN	NaN	NaN
1052.2986179	2.0016	sub-07	1	sequence	blank	blank	NaN	NaN	NaN	NaN	NaN	NaN	NaN	NaN	NaN	NaN	NaN	NaN
1054.3002387000006	0.3003	sub-07	1	sequence	fixation	dot	NaN	NaN	NaN	NaN	NaN	NaN	NaN	NaN	NaN	NaN	NaN	NaN
1054.6190413000004	0.115	sub-07	1	sequence	stimulus	Stuhl	NaN	NaN	64.0	NaN	NaN	5.0	1.0	NaN	NaN	NaN	NaN	NaN
1054.7340005000003	0.0669	sub-07	1	sequence	interval	dot	NaN	NaN	NaN	NaN	NaN	NaN	NaN	NaN	NaN	NaN	NaN	NaN
1054.8009069	0.0999	sub-07	1	sequence	stimulus	Katze	NaN	NaN	64.0	NaN	NaN	3.0	2.0	NaN	NaN	NaN	NaN	NaN
1054.9007633	0.0671	sub-07	1	sequence	interval	dot	NaN	NaN	NaN	NaN	NaN	NaN	NaN	NaN	NaN	NaN	NaN	NaN
1054.9678318000006	0.0998	sub-07	1	sequence	stimulus	Schuh	NaN	NaN	64.0	NaN	NaN	4.0	3.0	NaN	NaN	NaN	NaN	NaN
1055.0676190000004	0.0672	sub-07	1	sequence	interval	dot	NaN	NaN	NaN	NaN	NaN	NaN	NaN	NaN	NaN	NaN	NaN	NaN
1055.1348285000004	0.0997	sub-07	1	sequence	stimulus	Gesicht	NaN	NaN	64.0	NaN	NaN	1.0	4.0	NaN	NaN	NaN	NaN	NaN
1055.2345610000002	0.067	sub-07	1	sequence	interval	dot	NaN	NaN	NaN	NaN	NaN	NaN	NaN	NaN	NaN	NaN	NaN	NaN
1055.301563	0.0997	sub-07	1	sequence	stimulus	Haus	NaN	NaN	64.0	NaN	NaN	2.0	5.0	NaN	NaN	NaN	NaN	NaN
1055.4013016999995	0.0668	sub-07	1	sequence	interval	dot	NaN	NaN	NaN	NaN	NaN	NaN	NaN	NaN	NaN	NaN	NaN	NaN
1055.4681118999997	8.3717	sub-07	1	sequence	delay	dot	NaN	NaN	NaN	NaN	NaN	NaN	NaN	NaN	NaN	NaN	NaN	NaN
1063.8267385999998	0.7992	sub-07	1	sequence	choice	choice	right	NaN	NaN	-10.522752100000616	True	NaN	NaN	right	True	3.0	5.0	5.0
1064.6262246000006	0.4996	sub-07	1	sequence	feedback	NaN	NaN	NaN	NaN	NaN	NaN	NaN	NaN	NaN	NaN	NaN	NaN	NaN
1065.1260069	1.0005	sub-07	1	sequence	cue	Schuh	NaN	NaN	NaN	NaN	NaN	NaN	NaN	NaN	NaN	NaN	NaN	NaN
1066.1264871000003	2.0016	sub-07	1	sequence	blank	blank	NaN	NaN	NaN	NaN	NaN	NaN	NaN	NaN	NaN	NaN	NaN	NaN
1068.1280991000003	0.3002	sub-07	1	sequence	fixation	dot	NaN	NaN	NaN	NaN	NaN	NaN	NaN	NaN	NaN	NaN	NaN	NaN
1068.4466786000005	0.1151	sub-07	1	sequence	stimulus	Katze	NaN	NaN	32.0	NaN	NaN	3.0	1.0	NaN	NaN	NaN	NaN	NaN
1068.5618120999998	0.0335	sub-07	1	sequence	interval	dot	NaN	NaN	NaN	NaN	NaN	NaN	NaN	NaN	NaN	NaN	NaN	NaN
1068.5953018	0.0999	sub-07	1	sequence	stimulus	Gesicht	NaN	NaN	32.0	NaN	NaN	1.0	2.0	NaN	NaN	NaN	NaN	NaN
1068.6952226000003	0.0335	sub-07	1	sequence	interval	dot	NaN	NaN	NaN	NaN	NaN	NaN	NaN	NaN	NaN	NaN	NaN	NaN
1068.7287342	0.0999	sub-07	1	sequence	stimulus	Haus	NaN	NaN	32.0	NaN	NaN	2.0	3.0	NaN	NaN	NaN	NaN	NaN
1068.8286737	0.0335	sub-07	1	sequence	interval	dot	NaN	NaN	NaN	NaN	NaN	NaN	NaN	NaN	NaN	NaN	NaN	NaN
1068.8622031000004	0.0999	sub-07	1	sequence	stimulus	Stuhl	NaN	NaN	32.0	NaN	NaN	5.0	4.0	NaN	NaN	NaN	NaN	NaN
1068.9621352000004	0.0334	sub-07	1	sequence	interval	dot	NaN	NaN	NaN	NaN	NaN	NaN	NaN	NaN	NaN	NaN	NaN	NaN
1068.9955101000005	0.1	sub-07	1	sequence	stimulus	Schuh	NaN	NaN	32.0	NaN	NaN	4.0	5.0	NaN	NaN	NaN	NaN	NaN
1069.0955028999997	0.0335	sub-07	1	sequence	interval	dot	NaN	NaN	NaN	NaN	NaN	NaN	NaN	NaN	NaN	NaN	NaN	NaN
1069.1289833	8.5554	sub-07	1	sequence	delay	dot	NaN	NaN	NaN	NaN	NaN	NaN	NaN	NaN	NaN	NaN	NaN	NaN
1077.6583847000002	1.0289	sub-07	1	sequence	choice	choice	left	NaN	NaN	-10.311906300000372	True	NaN	NaN	left	True	5.0	4.0	5.0
1078.6875817	0.4999	sub-07	1	sequence	feedback	NaN	NaN	NaN	NaN	NaN	NaN	NaN	NaN	NaN	NaN	NaN	NaN	NaN
1083.0077843	0.4996	sub-07	1	localizer	stimulus	Katze	NaN	0	1.9515062999998918	NaN	True	NaN	NaN	NaN	NaN	NaN	NaN	NaN
1083.4906053000004	1.9515	sub-07	1	localizer	blank	interval	NaN	NaN	NaN	NaN	NaN	NaN	NaN	NaN	NaN	NaN	NaN	NaN
1085.7432563000002	0.4994	sub-07	1	localizer	stimulus	Katze	NaN	180	2.151624400000401	-10.601999599999544	True	NaN	NaN	NaN	NaN	NaN	NaN	NaN
1086.2262283	2.1516	sub-07	1	localizer	blank	interval	NaN	NaN	NaN	NaN	NaN	NaN	NaN	NaN	NaN	NaN	NaN	NaN
1088.6790166	0.4994	sub-07	1	localizer	stimulus	Haus	NaN	0	2.68530120000014	NaN	True	NaN	NaN	NaN	NaN	NaN	NaN	NaN
1089.1619449999998	2.6853	sub-07	1	localizer	blank	interval	NaN	NaN	NaN	NaN	NaN	NaN	NaN	NaN	NaN	NaN	NaN	NaN
1092.1483943000003	0.4996	sub-07	1	localizer	stimulus	Gesicht	NaN	180	2.2017636999999013	-10.591048199999022	True	NaN	NaN	NaN	NaN	NaN	NaN	NaN
1092.6313212000005	2.2018	sub-07	1	localizer	blank	interval	NaN	NaN	NaN	NaN	NaN	NaN	NaN	NaN	NaN	NaN	NaN	NaN
1095.1344760000002	0.4994	sub-07	1	localizer	stimulus	Haus	NaN	0	2.1850782999999865	NaN	True	NaN	NaN	NaN	NaN	NaN	NaN	NaN
1095.6173968000005	2.1851	sub-07	1	localizer	blank	interval	NaN	NaN	NaN	NaN	NaN	NaN	NaN	NaN	NaN	NaN	NaN	NaN
1098.1034366000004	0.4996	sub-07	1	localizer	stimulus	Schuh	NaN	180	2.56839570000011	-10.505290899999636	True	NaN	NaN	NaN	NaN	NaN	NaN	NaN
1098.5864389999997	2.5684	sub-07	1	localizer	blank	interval	NaN	NaN	NaN	NaN	NaN	NaN	NaN	NaN	NaN	NaN	NaN	NaN
1101.4559924000005	0.4994	sub-07	1	localizer	stimulus	Haus	NaN	0	1.7678447999996934	NaN	True	NaN	NaN	NaN	NaN	NaN	NaN	NaN
1101.9389915000002	1.7678	sub-07	1	localizer	blank	interval	NaN	NaN	NaN	NaN	NaN	NaN	NaN	NaN	NaN	NaN	NaN	NaN
1104.0080195	0.4995	sub-07	1	localizer	stimulus	Stuhl	NaN	0	2.5685621000002357	NaN	True	NaN	NaN	NaN	NaN	NaN	NaN	NaN
1104.4909767999998	2.5686	sub-07	1	localizer	blank	interval	NaN	NaN	NaN	NaN	NaN	NaN	NaN	NaN	NaN	NaN	NaN	NaN
1107.3607355000004	0.4995	sub-07	1	localizer	stimulus	Haus	NaN	0	2.668689699999959	NaN	True	NaN	NaN	NaN	NaN	NaN	NaN	NaN
1107.8437488999998	2.6687	sub-07	1	localizer	blank	interval	NaN	NaN	NaN	NaN	NaN	NaN	NaN	NaN	NaN	NaN	NaN	NaN
1110.8135131999998	0.4996	sub-07	1	localizer	stimulus	Haus	NaN	180	2.78544889999921	-10.600277800000184	True	NaN	NaN	NaN	NaN	NaN	NaN	NaN
1111.2965355000006	2.7854	sub-07	1	localizer	blank	interval	NaN	NaN	NaN	NaN	NaN	NaN	NaN	NaN	NaN	NaN	NaN	NaN
1114.3832744	0.4992	sub-07	1	localizer	stimulus	Katze	NaN	0	3.152586299999939	NaN	True	NaN	NaN	NaN	NaN	NaN	NaN	NaN
1114.866038	3.1526	sub-07	1	localizer	blank	interval	NaN	NaN	NaN	NaN	NaN	NaN	NaN	NaN	NaN	NaN	NaN	NaN
1118.3198405000005	0.4996	sub-07	1	localizer	stimulus	Schuh	NaN	0	2.3349687999998423	NaN	True	NaN	NaN	NaN	NaN	NaN	NaN	NaN
1118.8028591000002	2.335	sub-07	1	localizer	blank	interval	NaN	NaN	NaN	NaN	NaN	NaN	NaN	NaN	NaN	NaN	NaN	NaN
1121.4389751	0.4995	sub-07	1	localizer	stimulus	Stuhl	NaN	0	2.4351780999995754	NaN	True	NaN	NaN	NaN	NaN	NaN	NaN	NaN
1121.9217992000004	2.4352	sub-07	1	localizer	blank	interval	NaN	NaN	NaN	NaN	NaN	NaN	NaN	NaN	NaN	NaN	NaN	NaN
1124.6580324000006	0.4994	sub-07	1	localizer	stimulus	Gesicht	NaN	0	2.535250700000006	NaN	True	NaN	NaN	NaN	NaN	NaN	NaN	NaN
1125.1410381000003	2.5353	sub-07	1	localizer	blank	interval	NaN	NaN	NaN	NaN	NaN	NaN	NaN	NaN	NaN	NaN	NaN	NaN
1127.9773475000002	0.4996	sub-07	1	localizer	stimulus	Schuh	NaN	0	1.9680972999994992	NaN	True	NaN	NaN	NaN	NaN	NaN	NaN	NaN
