onset	duration	subject	session	condition	trial_type	stim_label	key_down	orientation	interval_time	response_time	accuracy	stim_index	serial_position	key_expected	key_pressed	choice_left	choice_right	choice_correct
1.2381495000008726	1.3982	sub-04	1	instruction	instruction	language_selection	german	NaN	NaN	NaN	NaN	NaN	NaN	NaN	NaN	NaN	NaN	NaN
38.33244330000071	0.4995	sub-04	1	localizer	stimulus	Gesicht	NaN	180	2.201591699999881	-30.42364729999917	1.0	NaN	NaN	NaN	NaN	NaN	NaN	NaN
38.8154512000001	2.2016	sub-04	1	localizer	blank	interval	NaN	NaN	NaN	NaN	NaN	NaN	NaN	NaN	NaN	NaN	NaN	NaN
41.318283200000224	0.4996	sub-04	1	localizer	stimulus	Haus	NaN	0	2.885208699999559	NaN	True	NaN	NaN	NaN	NaN	NaN	NaN	NaN
41.80130700000064	2.8852	sub-04	1	localizer	blank	interval	NaN	NaN	NaN	NaN	NaN	NaN	NaN	NaN	NaN	NaN	NaN	NaN
44.9877875000002	0.4997	sub-04	1	localizer	stimulus	Katze	NaN	0	2.4019451000003684	NaN	True	NaN	NaN	NaN	NaN	NaN	NaN	NaN
45.47076500000003	2.4019	sub-04	1	localizer	blank	interval	NaN	NaN	NaN	NaN	NaN	NaN	NaN	NaN	NaN	NaN	NaN	NaN
48.17370760000085	0.4995	sub-04	1	localizer	stimulus	Katze	NaN	0	3.2358954000001035	NaN	True	NaN	NaN	NaN	NaN	NaN	NaN	NaN
48.65657400000055	3.2359	sub-04	1	localizer	blank	interval	NaN	NaN	NaN	NaN	NaN	NaN	NaN	NaN	NaN	NaN	NaN	NaN
52.19348260000061	0.4996	sub-04	1	localizer	stimulus	Stuhl	NaN	0	1.817870199999561	NaN	True	NaN	NaN	NaN	NaN	NaN	NaN	NaN
52.67657070000041	1.8179	sub-04	1	localizer	blank	interval	NaN	NaN	NaN	NaN	NaN	NaN	NaN	NaN	NaN	NaN	NaN	NaN
54.79565739999998	0.4995	sub-04	1	localizer	stimulus	Gesicht	NaN	0	1.6178932000002533	-30.5347327999998	False	NaN	NaN	NaN	NaN	NaN	NaN	NaN
55.278514800000266	1.6179	sub-04	1	localizer	blank	interval	NaN	NaN	NaN	NaN	NaN	NaN	NaN	NaN	NaN	NaN	NaN	NaN
57.19756550000056	0.4995	sub-04	1	localizer	stimulus	Katze	NaN	180	2.001436499999727	-30.63324179999927	True	NaN	NaN	NaN	NaN	NaN	NaN	NaN
57.680566900000485	2.0014	sub-04	1	localizer	blank	interval	NaN	NaN	NaN	NaN	NaN	NaN	NaN	NaN	NaN	NaN	NaN	NaN
59.98321370000031	0.4996	sub-04	1	localizer	stimulus	Schuh	NaN	0	3.502482900000352	NaN	True	NaN	NaN	NaN	NaN	NaN	NaN	NaN
60.46627850000005	3.5025	sub-04	1	localizer	blank	interval	NaN	NaN	NaN	NaN	NaN	NaN	NaN	NaN	NaN	NaN	NaN	NaN
64.27020390000052	0.4995	sub-04	1	localizer	stimulus	Haus	NaN	180	2.3344491999996535	-30.67374540000037	True	NaN	NaN	NaN	NaN	NaN	NaN	NaN
64.75367510000069	2.3344	sub-04	1	localizer	blank	interval	NaN	NaN	NaN	NaN	NaN	NaN	NaN	NaN	NaN	NaN	NaN	NaN
67.38938960000087	0.4995	sub-04	1	localizer	stimulus	Haus	NaN	0	2.9520167999999103	NaN	True	NaN	NaN	NaN	NaN	NaN	NaN	NaN
67.87233060000017	2.952	sub-04	1	localizer	blank	interval	NaN	NaN	NaN	NaN	NaN	NaN	NaN	NaN	NaN	NaN	NaN	NaN
71.12550540000029	0.4995	sub-04	1	localizer	stimulus	Schuh	NaN	0	3.2524810000004436	NaN	True	NaN	NaN	NaN	NaN	NaN	NaN	NaN
71.60844970000016	3.2525	sub-04	1	localizer	blank	interval	NaN	NaN	NaN	NaN	NaN	NaN	NaN	NaN	NaN	NaN	NaN	NaN
75.16209300000082	0.4995	sub-04	1	localizer	stimulus	Gesicht	NaN	0	3.0857341000000815	NaN	True	NaN	NaN	NaN	NaN	NaN	NaN	NaN
75.64502070000071	3.0857	sub-04	1	localizer	blank	interval	NaN	NaN	NaN	NaN	NaN	NaN	NaN	NaN	NaN	NaN	NaN	NaN
79.03194840000015	0.4994	sub-04	1	localizer	stimulus	Stuhl	NaN	0	2.468704400000206	NaN	True	NaN	NaN	NaN	NaN	NaN	NaN	NaN
79.5147895	2.4687	sub-04	1	localizer	blank	interval	NaN	NaN	NaN	NaN	NaN	NaN	NaN	NaN	NaN	NaN	NaN	NaN
82.28453870000067	0.4996	sub-04	1	localizer	stimulus	Stuhl	NaN	0	3.6361951999997473	NaN	True	NaN	NaN	NaN	NaN	NaN	NaN	NaN
82.76758190000055	3.6362	sub-04	1	localizer	blank	interval	NaN	NaN	NaN	NaN	NaN	NaN	NaN	NaN	NaN	NaN	NaN	NaN
86.70483030000014	0.4995	sub-04	1	localizer	stimulus	Schuh	NaN	180	2.9689226999998937	-30.43565619999936	True	NaN	NaN	NaN	NaN	NaN	NaN	NaN
87.18785350000053	2.9689	sub-04	1	localizer	blank	interval	NaN	NaN	NaN	NaN	NaN	NaN	NaN	NaN	NaN	NaN	NaN	NaN
90.45800270000018	0.4993	sub-04	1	localizer	stimulus	Stuhl	NaN	0	2.451861600000484	NaN	True	NaN	NaN	NaN	NaN	NaN	NaN	NaN
90.94072010000036	2.4519	sub-04	1	localizer	blank	interval	NaN	NaN	NaN	NaN	NaN	NaN	NaN	NaN	NaN	NaN	NaN	NaN
93.69375500000024	0.4995	sub-04	1	localizer	stimulus	Haus	NaN	0	1.651153499999964	NaN	True	NaN	NaN	NaN	NaN	NaN	NaN	NaN
94.17673550000018	1.6512	sub-04	1	localizer	blank	interval	NaN	NaN	NaN	NaN	NaN	NaN	NaN	NaN	NaN	NaN	NaN	NaN
96.12915220000014	0.4994	sub-04	1	localizer	stimulus	Gesicht	NaN	0	2.084896200000003	NaN	True	NaN	NaN	NaN	NaN	NaN	NaN	NaN
96.61197940000056	2.0849	sub-04	1	localizer	blank	interval	NaN	NaN	NaN	NaN	NaN	NaN	NaN	NaN	NaN	NaN	NaN	NaN
98.9980518000002	0.4995	sub-04	1	localizer	stimulus	Gesicht	NaN	0	2.7690462999999284	NaN	True	NaN	NaN	NaN	NaN	NaN	NaN	NaN
99.48094900000068	2.769	sub-04	1	localizer	blank	interval	NaN	NaN	NaN	NaN	NaN	NaN	NaN	NaN	NaN	NaN	NaN	NaN
102.55094230000032	0.4997	sub-04	1	localizer	stimulus	Schuh	NaN	0	1.9681609999998102	NaN	True	NaN	NaN	NaN	NaN	NaN	NaN	NaN
103.03396690000044	1.9682	sub-04	1	localizer	blank	interval	NaN	NaN	NaN	NaN	NaN	NaN	NaN	NaN	NaN	NaN	NaN	NaN
105.30327690000011	0.4996	sub-04	1	localizer	stimulus	Schuh	NaN	0	2.4353126000005574	NaN	True	NaN	NaN	NaN	NaN	NaN	NaN	NaN
105.78621070000008	2.4353	sub-04	1	localizer	blank	interval	NaN	NaN	NaN	NaN	NaN	NaN	NaN	NaN	NaN	NaN	NaN	NaN
108.52262840000004	0.4993	sub-04	1	localizer	stimulus	Katze	NaN	0	2.8522087999999854	NaN	True	NaN	NaN	NaN	NaN	NaN	NaN	NaN
109.00531610000051	2.8522	sub-04	1	localizer	blank	interval	NaN	NaN	NaN	NaN	NaN	NaN	NaN	NaN	NaN	NaN	NaN	NaN
112.15869360000032	0.4995	sub-04	1	localizer	stimulus	Haus	NaN	0	1.8179987000003166	NaN	True	NaN	NaN	NaN	NaN	NaN	NaN	NaN
112.64160100000026	1.818	sub-04	1	localizer	blank	interval	NaN	NaN	NaN	NaN	NaN	NaN	NaN	NaN	NaN	NaN	NaN	NaN
114.76077010000064	0.4997	sub-04	1	localizer	stimulus	Stuhl	NaN	180	2.017948200000319	-30.563899099999617	True	NaN	NaN	NaN	NaN	NaN	NaN	NaN
115.24396080000042	2.0179	sub-04	1	localizer	blank	interval	NaN	NaN	NaN	NaN	NaN	NaN	NaN	NaN	NaN	NaN	NaN	NaN
117.5631245000004	0.4994	sub-04	1	localizer	stimulus	Katze	NaN	0	3.135713900000141	NaN	True	NaN	NaN	NaN	NaN	NaN	NaN	NaN
118.04600260000008	3.1357	sub-04	1	localizer	blank	interval	NaN	NaN	NaN	NaN	NaN	NaN	NaN	NaN	NaN	NaN	NaN	NaN
124.6682967000006	1.0007	sub-04	1	sequence	cue	Gesicht	NaN	NaN	NaN	NaN	NaN	NaN	NaN	NaN	NaN	NaN	NaN	NaN
125.6690311000002	2.0014	sub-04	1	sequence	blank	blank	NaN	NaN	NaN	NaN	NaN	NaN	NaN	NaN	NaN	NaN	NaN	NaN
127.67043380000086	0.3003	sub-04	1	sequence	fixation	dot	NaN	NaN	NaN	NaN	NaN	NaN	NaN	NaN	NaN	NaN	NaN	NaN
128.01922580000064	0.1019	sub-04	1	sequence	stimulus	Stuhl	NaN	NaN	512.0	NaN	NaN	5.0	1.0	NaN	NaN	NaN	NaN	NaN
128.1211527000005	0.517	sub-04	1	sequence	interval	dot	NaN	NaN	NaN	NaN	NaN	NaN	NaN	NaN	NaN	NaN	NaN	NaN
128.63818260000062	0.1	sub-04	1	sequence	stimulus	Haus	NaN	NaN	512.0	NaN	NaN	2.0	2.0	NaN	NaN	NaN	NaN	NaN
128.7381703000001	0.517	sub-04	1	sequence	interval	dot	NaN	NaN	NaN	NaN	NaN	NaN	NaN	NaN	NaN	NaN	NaN	NaN
129.25512909999998	0.1	sub-04	1	sequence	stimulus	Katze	NaN	NaN	512.0	NaN	NaN	3.0	3.0	NaN	NaN	NaN	NaN	NaN
129.3551683000005	0.5171	sub-04	1	sequence	interval	dot	NaN	NaN	NaN	NaN	NaN	NaN	NaN	NaN	NaN	NaN	NaN	NaN
129.87225300000046	0.1	sub-04	1	sequence	stimulus	Gesicht	NaN	NaN	512.0	NaN	NaN	1.0	4.0	NaN	NaN	NaN	NaN	NaN
129.97228919999998	0.5172	sub-04	1	sequence	interval	dot	NaN	NaN	NaN	NaN	NaN	NaN	NaN	NaN	NaN	NaN	NaN	NaN
130.48943980000058	0.1001	sub-04	1	sequence	stimulus	Schuh	NaN	NaN	512.0	NaN	NaN	4.0	5.0	NaN	NaN	NaN	NaN	NaN
130.5894984000006	0.517	sub-04	1	sequence	interval	dot	NaN	NaN	NaN	NaN	NaN	NaN	NaN	NaN	NaN	NaN	NaN	NaN
131.1065339000006	6.1365	sub-04	1	sequence	delay	dot	NaN	NaN	NaN	NaN	NaN	NaN	NaN	NaN	NaN	NaN	NaN	NaN
137.21941779999997	0.8934	sub-04	1	sequence	choice	choice	left	NaN	NaN	-30.422698200000013	True	NaN	NaN	left	1.0	4.0	2.0	4.0
138.11317670000062	0.4997	sub-04	1	sequence	feedback	NaN	NaN	NaN	NaN	NaN	NaN	NaN	NaN	NaN	NaN	NaN	NaN	NaN
138.6131318000007	1.0005	sub-04	1	sequence	cue	Gesicht	NaN	NaN	NaN	NaN	NaN	NaN	NaN	NaN	NaN	NaN	NaN	NaN
139.6135931000008	2.0016	sub-04	1	sequence	blank	blank	NaN	NaN	NaN	NaN	NaN	NaN	NaN	NaN	NaN	NaN	NaN	NaN
141.61519320000025	0.3002	sub-04	1	sequence	fixation	dot	NaN	NaN	NaN	NaN	NaN	NaN	NaN	NaN	NaN	NaN	NaN	NaN
141.94772980000016	0.101	sub-04	1	sequence	stimulus	Haus	NaN	NaN	64.0	NaN	NaN	2.0	1.0	NaN	NaN	NaN	NaN	NaN
142.04874130000007	0.0667	sub-04	1	sequence	interval	dot	NaN	NaN	NaN	NaN	NaN	NaN	NaN	NaN	NaN	NaN	NaN	NaN
142.11544670000058	0.1	sub-04	1	sequence	stimulus	Katze	NaN	NaN	64.0	NaN	NaN	3.0	2.0	NaN	NaN	NaN	NaN	NaN
142.2154124000008	0.0669	sub-04	1	sequence	interval	dot	NaN	NaN	NaN	NaN	NaN	NaN	NaN	NaN	NaN	NaN	NaN	NaN
142.28233440000076	0.1	sub-04	1	sequence	stimulus	Schuh	NaN	NaN	64.0	NaN	NaN	4.0	3.0	NaN	NaN	NaN	NaN	NaN
142.3823323000006	0.0668	sub-04	1	sequence	interval	dot	NaN	NaN	NaN	NaN	NaN	NaN	NaN	NaN	NaN	NaN	NaN	NaN
142.44910130000062	0.1	sub-04	1	sequence	stimulus	Gesicht	NaN	NaN	64.0	NaN	NaN	1.0	4.0	NaN	NaN	NaN	NaN	NaN
142.5490823	0.0668	sub-04	1	sequence	interval	dot	NaN	NaN	NaN	NaN	NaN	NaN	NaN	NaN	NaN	NaN	NaN	NaN
142.6158619000007	0.1	sub-04	1	sequence	stimulus	Stuhl	NaN	NaN	64.0	NaN	NaN	5.0	5.0	NaN	NaN	NaN	NaN	NaN
142.71582970000054	0.0668	sub-04	1	sequence	interval	dot	NaN	NaN	NaN	NaN	NaN	NaN	NaN	NaN	NaN	NaN	NaN	NaN
142.78266910000002	8.3883	sub-04	1	sequence	delay	dot	NaN	NaN	NaN	NaN	NaN	NaN	NaN	NaN	NaN	NaN	NaN	NaN
151.15515510000023	2.2367	sub-04	1	sequence	choice	choice	right	NaN	NaN	-29.061977999999726	True	NaN	NaN	right	True	5.0	4.0	4.0
153.39216210000086	0.4999	sub-04	1	sequence	feedback	NaN	NaN	NaN	NaN	NaN	NaN	NaN	NaN	NaN	NaN	NaN	NaN	NaN
153.8922934000002	1.0001	sub-04	1	sequence	cue	Katze	NaN	NaN	NaN	NaN	NaN	NaN	NaN	NaN	NaN	NaN	NaN	NaN
154.89244490000056	2.0015	sub-04	1	sequence	blank	blank	NaN	NaN	NaN	NaN	NaN	NaN	NaN	NaN	NaN	NaN	NaN	NaN
156.89398370000072	0.3004	sub-04	1	sequence	fixation	dot	NaN	NaN	NaN	NaN	NaN	NaN	NaN	NaN	NaN	NaN	NaN	NaN
157.21194690000084	0.099	sub-04	1	sequence	stimulus	Gesicht	NaN	NaN	32.0	NaN	NaN	1.0	1.0	NaN	NaN	NaN	NaN	NaN
157.31099220000033	0.0335	sub-04	1	sequence	interval	dot	NaN	NaN	NaN	NaN	NaN	NaN	NaN	NaN	NaN	NaN	NaN	NaN
157.34451750000062	0.0999	sub-04	1	sequence	stimulus	Stuhl	NaN	NaN	32.0	NaN	NaN	5.0	2.0	NaN	NaN	NaN	NaN	NaN
157.44445740000083	0.0334	sub-04	1	sequence	interval	dot	NaN	NaN	NaN	NaN	NaN	NaN	NaN	NaN	NaN	NaN	NaN	NaN
157.4778881000002	0.1001	sub-04	1	sequence	stimulus	Haus	NaN	NaN	32.0	NaN	NaN	2.0	3.0	NaN	NaN	NaN	NaN	NaN
157.57796920000055	0.0334	sub-04	1	sequence	interval	dot	NaN	NaN	NaN	NaN	NaN	NaN	NaN	NaN	NaN	NaN	NaN	NaN
157.61134850000053	0.1	sub-04	1	sequence	stimulus	Katze	NaN	NaN	32.0	NaN	NaN	3.0	4.0	NaN	NaN	NaN	NaN	NaN
157.71136580000075	0.0335	sub-04	1	sequence	interval	dot	NaN	NaN	NaN	NaN	NaN	NaN	NaN	NaN	NaN	NaN	NaN	NaN
157.7448400000003	0.1	sub-04	1	sequence	stimulus	Schuh	NaN	NaN	32.0	NaN	NaN	4.0	5.0	NaN	NaN	NaN	NaN	NaN
157.84483590000036	0.0335	sub-04	1	sequence	interval	dot	NaN	NaN	NaN	NaN	NaN	NaN	NaN	NaN	NaN	NaN	NaN	NaN
157.87829920000058	8.5387	sub-04	1	sequence	delay	dot	NaN	NaN	NaN	NaN	NaN	NaN	NaN	NaN	NaN	NaN	NaN	NaN
166.39082250000047	1.096	sub-04	1	sequence	choice	choice	left	NaN	NaN	-30.21264610000071	True	NaN	NaN	left	True	4.0	5.0	4.0
167.48709550000058	0.5002	sub-04	1	sequence	feedback	NaN	NaN	NaN	NaN	NaN	NaN	NaN	NaN	NaN	NaN	NaN	NaN	NaN
167.98755080000046	0.9998	sub-04	1	sequence	cue	Gesicht	NaN	NaN	NaN	NaN	NaN	NaN	NaN	NaN	NaN	NaN	NaN	NaN
168.9873851000002	2.0013	sub-04	1	sequence	blank	blank	NaN	NaN	NaN	NaN	NaN	NaN	NaN	NaN	NaN	NaN	NaN	NaN
170.98868670000047	0.3002	sub-04	1	sequence	fixation	dot	NaN	NaN	NaN	NaN	NaN	NaN	NaN	NaN	NaN	NaN	NaN	NaN
171.30733060000057	0.1155	sub-04	1	sequence	stimulus	Schuh	NaN	NaN	128.0	NaN	NaN	4.0	1.0	NaN	NaN	NaN	NaN	NaN
171.42279690000032	0.1334	sub-04	1	sequence	interval	dot	NaN	NaN	NaN	NaN	NaN	NaN	NaN	NaN	NaN	NaN	NaN	NaN
171.5561862000004	0.0999	sub-04	1	sequence	stimulus	Haus	NaN	NaN	128.0	NaN	NaN	2.0	2.0	NaN	NaN	NaN	NaN	NaN
171.65611030000036	0.1335	sub-04	1	sequence	interval	dot	NaN	NaN	NaN	NaN	NaN	NaN	NaN	NaN	NaN	NaN	NaN	NaN
171.78963199999998	0.1	sub-04	1	sequence	stimulus	Stuhl	NaN	NaN	128.0	NaN	NaN	5.0	3.0	NaN	NaN	NaN	NaN	NaN
171.88964010000018	0.1335	sub-04	1	sequence	interval	dot	NaN	NaN	NaN	NaN	NaN	NaN	NaN	NaN	NaN	NaN	NaN	NaN
172.02318790000027	0.1	sub-04	1	sequence	stimulus	Gesicht	NaN	NaN	128.0	NaN	NaN	1.0	4.0	NaN	NaN	NaN	NaN	NaN
172.12316330000067	0.1335	sub-04	1	sequence	interval	dot	NaN	NaN	NaN	NaN	NaN	NaN	NaN	NaN	NaN	NaN	NaN	NaN
172.25667190000058	0.1	sub-04	1	sequence	stimulus	Katze	NaN	NaN	128.0	NaN	NaN	3.0	5.0	NaN	NaN	NaN	NaN	NaN
172.35669860000053	0.1333	sub-04	1	sequence	interval	dot	NaN	NaN	NaN	NaN	NaN	NaN	NaN	NaN	NaN	NaN	NaN	NaN
172.4899791000007	8.055	sub-04	1	sequence	delay	dot	NaN	NaN	NaN	NaN	NaN	NaN	NaN	NaN	NaN	NaN	NaN	NaN
180.53459580000072	1.2136	sub-04	1	sequence	choice	choice	right	NaN	NaN	-30.08441279999988	True	NaN	NaN	right	True	5.0	4.0	4.0
181.7484762000004	0.4997	sub-04	1	sequence	feedback	NaN	NaN	NaN	NaN	NaN	NaN	NaN	NaN	NaN	NaN	NaN	NaN	NaN
182.2483647000008	1.0004	sub-04	1	sequence	cue	Stuhl	NaN	NaN	NaN	NaN	NaN	NaN	NaN	NaN	NaN	NaN	NaN	NaN
183.24877390000077	2.0016	sub-04	1	sequence	blank	blank	NaN	NaN	NaN	NaN	NaN	NaN	NaN	NaN	NaN	NaN	NaN	NaN
185.25039460000065	0.3003	sub-04	1	sequence	fixation	dot	NaN	NaN	NaN	NaN	NaN	NaN	NaN	NaN	NaN	NaN	NaN	NaN
185.5684170000004	0.0993	sub-04	1	sequence	stimulus	Schuh	NaN	NaN	32.0	NaN	NaN	4.0	1.0	NaN	NaN	NaN	NaN	NaN
185.66769720000048	0.0337	sub-04	1	sequence	interval	dot	NaN	NaN	NaN	NaN	NaN	NaN	NaN	NaN	NaN	NaN	NaN	NaN
185.7013794000004	0.0996	sub-04	1	sequence	stimulus	Gesicht	NaN	NaN	32.0	NaN	NaN	1.0	2.0	NaN	NaN	NaN	NaN	NaN
185.80094010000084	0.0335	sub-04	1	sequence	interval	dot	NaN	NaN	NaN	NaN	NaN	NaN	NaN	NaN	NaN	NaN	NaN	NaN
185.8344271000005	0.1	sub-04	1	sequence	stimulus	Katze	NaN	NaN	32.0	NaN	NaN	3.0	3.0	NaN	NaN	NaN	NaN	NaN
185.93439370000036	0.0336	sub-04	1	sequence	interval	dot	NaN	NaN	NaN	NaN	NaN	NaN	NaN	NaN	NaN	NaN	NaN	NaN
185.96796940000056	0.1	sub-04	1	sequence	stimulus	Stuhl	NaN	NaN	32.0	NaN	NaN	5.0	4.0	NaN	NaN	NaN	NaN	NaN
186.06796680000025	0.0336	sub-04	1	sequence	interval	dot	NaN	NaN	NaN	NaN	NaN	NaN	NaN	NaN	NaN	NaN	NaN	NaN
186.1015196000008	0.0998	sub-04	1	sequence	stimulus	Haus	NaN	NaN	32.0	NaN	NaN	2.0	5.0	NaN	NaN	NaN	NaN	NaN
186.2013324000009	0.0334	sub-04	1	sequence	interval	dot	NaN	NaN	NaN	NaN	NaN	NaN	NaN	NaN	NaN	NaN	NaN	NaN
186.234692	8.5386	sub-04	1	sequence	delay	dot	NaN	NaN	NaN	NaN	NaN	NaN	NaN	NaN	NaN	NaN	NaN	NaN
194.75626170000032	1.3032	sub-04	1	sequence	choice	choice	left	NaN	NaN	-30.008948700000477	True	NaN	NaN	left	True	4.0	2.0	4.0
196.05960760000016	0.5	sub-04	1	sequence	feedback	NaN	NaN	NaN	NaN	NaN	NaN	NaN	NaN	NaN	NaN	NaN	NaN	NaN
196.55972440000005	1.0006	sub-04	1	sequence	cue	Katze	NaN	NaN	NaN	NaN	NaN	NaN	NaN	NaN	NaN	NaN	NaN	NaN
197.56035190000057	2.0015	sub-04	1	sequence	blank	blank	NaN	NaN	NaN	NaN	NaN	NaN	NaN	NaN	NaN	NaN	NaN	NaN
199.5618260000001	0.3004	sub-04	1	sequence	fixation	dot	NaN	NaN	NaN	NaN	NaN	NaN	NaN	NaN	NaN	NaN	NaN	NaN
199.8805301000002	0.1153	sub-04	1	sequence	stimulus	Haus	NaN	NaN	64.0	NaN	NaN	2.0	1.0	NaN	NaN	NaN	NaN	NaN
199.9957805000004	0.0668	sub-04	1	sequence	interval	dot	NaN	NaN	NaN	NaN	NaN	NaN	NaN	NaN	NaN	NaN	NaN	NaN
200.06254660000013	0.0999	sub-04	1	sequence	stimulus	Gesicht	NaN	NaN	64.0	NaN	NaN	1.0	2.0	NaN	NaN	NaN	NaN	NaN
200.1624834000004	0.0668	sub-04	1	sequence	interval	dot	NaN	NaN	NaN	NaN	NaN	NaN	NaN	NaN	NaN	NaN	NaN	NaN
200.22929730000035	0.1	sub-04	1	sequence	stimulus	Katze	NaN	NaN	64.0	NaN	NaN	3.0	3.0	NaN	NaN	NaN	NaN	NaN
200.32926270000007	0.0669	sub-04	1	sequence	interval	dot	NaN	NaN	NaN	NaN	NaN	NaN	NaN	NaN	NaN	NaN	NaN	NaN
200.39613650000047	0.0999	sub-04	1	sequence	stimulus	Stuhl	NaN	NaN	64.0	NaN	NaN	5.0	4.0	NaN	NaN	NaN	NaN	NaN
200.4960686000004	0.0668	sub-04	1	sequence	interval	dot	NaN	NaN	NaN	NaN	NaN	NaN	NaN	NaN	NaN	NaN	NaN	NaN
200.5629180000005	0.1	sub-04	1	sequence	stimulus	Schuh	NaN	NaN	64.0	NaN	NaN	4.0	5.0	NaN	NaN	NaN	NaN	NaN
200.6629359000008	0.0667	sub-04	1	sequence	interval	dot	NaN	NaN	NaN	NaN	NaN	NaN	NaN	NaN	NaN	NaN	NaN	NaN
200.72959550000087	8.3719	sub-04	1	sequence	delay	dot	NaN	NaN	NaN	NaN	NaN	NaN	NaN	NaN	NaN	NaN	NaN	NaN
209.08195610000075	2.2568	sub-04	1	sequence	choice	choice	right	NaN	NaN	-29.05638509999972	True	NaN	NaN	right	True	4.0	3.0	3.0
211.3390664000008	0.4998	sub-04	1	sequence	feedback	NaN	NaN	NaN	NaN	NaN	NaN	NaN	NaN	NaN	NaN	NaN	NaN	NaN
211.83914730000012	1.0003	sub-04	1	sequence	cue	Gesicht	NaN	NaN	NaN	NaN	NaN	NaN	NaN	NaN	NaN	NaN	NaN	NaN
212.83943570000065	2.0016	sub-04	1	sequence	blank	blank	NaN	NaN	NaN	NaN	NaN	NaN	NaN	NaN	NaN	NaN	NaN	NaN
214.84102710000025	0.3002	sub-04	1	sequence	fixation	dot	NaN	NaN	NaN	NaN	NaN	NaN	NaN	NaN	NaN	NaN	NaN	NaN
215.15945600000032	0.1152	sub-04	1	sequence	stimulus	Haus	NaN	NaN	512.0	NaN	NaN	2.0	1.0	NaN	NaN	NaN	NaN	NaN
215.27465720000052	0.5173	sub-04	1	sequence	interval	dot	NaN	NaN	NaN	NaN	NaN	NaN	NaN	NaN	NaN	NaN	NaN	NaN
215.79191900000023	0.1	sub-04	1	sequence	stimulus	Stuhl	NaN	NaN	512.0	NaN	NaN	5.0	2.0	NaN	NaN	NaN	NaN	NaN
215.8918958000004	0.5172	sub-04	1	sequence	interval	dot	NaN	NaN	NaN	NaN	NaN	NaN	NaN	NaN	NaN	NaN	NaN	NaN
216.40910560000063	0.0999	sub-04	1	sequence	stimulus	Katze	NaN	NaN	512.0	NaN	NaN	3.0	3.0	NaN	NaN	NaN	NaN	NaN
216.5090489000004	0.5172	sub-04	1	sequence	interval	dot	NaN	NaN	NaN	NaN	NaN	NaN	NaN	NaN	NaN	NaN	NaN	NaN
217.0262405000003	0.1	sub-04	1	sequence	stimulus	Gesicht	NaN	NaN	512.0	NaN	NaN	1.0	4.0	NaN	NaN	NaN	NaN	NaN
217.1262204000004	0.5172	sub-04	1	sequence	interval	dot	NaN	NaN	NaN	NaN	NaN	NaN	NaN	NaN	NaN	NaN	NaN	NaN
217.6434685000004	0.0999	sub-04	1	sequence	stimulus	Schuh	NaN	NaN	512.0	NaN	NaN	4.0	5.0	NaN	NaN	NaN	NaN	NaN
217.74337360000027	0.5171	sub-04	1	sequence	interval	dot	NaN	NaN	NaN	NaN	NaN	NaN	NaN	NaN	NaN	NaN	NaN	NaN
218.26048130000072	6.1534	sub-04	1	sequence	delay	dot	NaN	NaN	NaN	NaN	NaN	NaN	NaN	NaN	NaN	NaN	NaN	NaN
224.39561540000068	1.1378	sub-04	1	sequence	choice	choice	left	NaN	NaN	-30.169028500000422	True	NaN	NaN	left	True	4.0	3.0	4.0
225.53362180000025	0.5	sub-04	1	sequence	feedback	NaN	NaN	NaN	NaN	NaN	NaN	NaN	NaN	NaN	NaN	NaN	NaN	NaN
226.0338466000003	1.0003	sub-04	1	sequence	cue	Gesicht	NaN	NaN	NaN	NaN	NaN	NaN	NaN	NaN	NaN	NaN	NaN	NaN
227.03417760000048	2.0019	sub-04	1	sequence	blank	blank	NaN	NaN	NaN	NaN	NaN	NaN	NaN	NaN	NaN	NaN	NaN	NaN
229.0361255000007	0.3003	sub-04	1	sequence	fixation	dot	NaN	NaN	NaN	NaN	NaN	NaN	NaN	NaN	NaN	NaN	NaN	NaN
229.3538956000002	0.0992	sub-04	1	sequence	stimulus	Schuh	NaN	NaN	128.0	NaN	NaN	4.0	1.0	NaN	NaN	NaN	NaN	NaN
229.45314120000057	0.1335	sub-04	1	sequence	interval	dot	NaN	NaN	NaN	NaN	NaN	NaN	NaN	NaN	NaN	NaN	NaN	NaN
229.5866619000008	0.1	sub-04	1	sequence	stimulus	Haus	NaN	NaN	128.0	NaN	NaN	2.0	2.0	NaN	NaN	NaN	NaN	NaN
229.68668850000088	0.1335	sub-04	1	sequence	interval	dot	NaN	NaN	NaN	NaN	NaN	NaN	NaN	NaN	NaN	NaN	NaN	NaN
229.82016180000028	0.0999	sub-04	1	sequence	stimulus	Stuhl	NaN	NaN	128.0	NaN	NaN	5.0	3.0	NaN	NaN	NaN	NaN	NaN
229.9200935000008	0.1335	sub-04	1	sequence	interval	dot	NaN	NaN	NaN	NaN	NaN	NaN	NaN	NaN	NaN	NaN	NaN	NaN
230.05356410000056	0.1001	sub-04	1	sequence	stimulus	Katze	NaN	NaN	128.0	NaN	NaN	3.0	4.0	NaN	NaN	NaN	NaN	NaN
230.15361900000065	0.1335	sub-04	1	sequence	interval	dot	NaN	NaN	NaN	NaN	NaN	NaN	NaN	NaN	NaN	NaN	NaN	NaN
230.28713810000045	0.0999	sub-04	1	sequence	stimulus	Gesicht	NaN	NaN	128.0	NaN	NaN	1.0	5.0	NaN	NaN	NaN	NaN	NaN
230.3870620000007	0.1335	sub-04	1	sequence	interval	dot	NaN	NaN	NaN	NaN	NaN	NaN	NaN	NaN	NaN	NaN	NaN	NaN
230.5205175000001	8.0714	sub-04	1	sequence	delay	dot	NaN	NaN	NaN	NaN	NaN	NaN	NaN	NaN	NaN	NaN	NaN	NaN
238.56537310000024	1.1628	sub-04	1	sequence	choice	choice	right	NaN	NaN	-30.146706199999244	True	NaN	NaN	right	True	4.0	5.0	5.0
239.7284199000005	0.4999	sub-04	1	sequence	feedback	NaN	NaN	NaN	NaN	NaN	NaN	NaN	NaN	NaN	NaN	NaN	NaN	NaN
244.04884540000057	0.4995	sub-04	1	localizer	stimulus	Schuh	NaN	0	2.1181903999996052	NaN	True	NaN	NaN	NaN	NaN	NaN	NaN	NaN
244.5316973000008	2.1182	sub-04	1	localizer	blank	interval	NaN	NaN	NaN	NaN	NaN	NaN	NaN	NaN	NaN	NaN	NaN	NaN
246.9515428000004	0.4992	sub-04	1	localizer	stimulus	Schuh	NaN	180	2.8854791000003956	-30.555269899999985	True	NaN	NaN	NaN	NaN	NaN	NaN	NaN
247.4343064000004	2.8855	sub-04	1	localizer	blank	interval	NaN	NaN	NaN	NaN	NaN	NaN	NaN	NaN	NaN	NaN	NaN	NaN
250.62081680000028	0.4997	sub-04	1	localizer	stimulus	Gesicht	NaN	0	2.7020782000008694	NaN	True	NaN	NaN	NaN	NaN	NaN	NaN	NaN
251.1038939	2.7021	sub-04	1	localizer	blank	interval	NaN	NaN	NaN	NaN	NaN	NaN	NaN	NaN	NaN	NaN	NaN	NaN
254.1068852000008	0.4996	sub-04	1	localizer	stimulus	Stuhl	NaN	0	2.1849397000005126	NaN	True	NaN	NaN	NaN	NaN	NaN	NaN	NaN
254.5898883	2.1849	sub-04	1	localizer	blank	interval	NaN	NaN	NaN	NaN	NaN	NaN	NaN	NaN	NaN	NaN	NaN	NaN
257.0759000000008	0.4996	sub-04	1	localizer	stimulus	Gesicht	NaN	180	2.118352700000287	-30.6468662999996	True	NaN	NaN	NaN	NaN	NaN	NaN	NaN
257.5588843000005	2.1184	sub-04	1	localizer	blank	interval	NaN	NaN	NaN	NaN	NaN	NaN	NaN	NaN	NaN	NaN	NaN	NaN
259.97834220000004	0.4996	sub-04	1	localizer	stimulus	Katze	NaN	0	2.7020919999995385	NaN	True	NaN	NaN	NaN	NaN	NaN	NaN	NaN
260.46125700000084	2.7021	sub-04	1	localizer	blank	interval	NaN	NaN	NaN	NaN	NaN	NaN	NaN	NaN	NaN	NaN	NaN	NaN
263.46442920000027	0.4995	sub-04	1	localizer	stimulus	Gesicht	NaN	0	2.918898800000534	NaN	True	NaN	NaN	NaN	NaN	NaN	NaN	NaN
263.9474669000001	2.9189	sub-04	1	localizer	blank	interval	NaN	NaN	NaN	NaN	NaN	NaN	NaN	NaN	NaN	NaN	NaN	NaN
267.1675981000008	0.4995	sub-04	1	localizer	stimulus	Gesicht	NaN	0	2.4187128000003213	NaN	True	NaN	NaN	NaN	NaN	NaN	NaN	NaN
267.6504909000005	2.4187	sub-04	1	localizer	blank	interval	NaN	NaN	NaN	NaN	NaN	NaN	NaN	NaN	NaN	NaN	NaN	NaN
270.37020200000006	0.4995	sub-04	1	localizer	stimulus	Haus	NaN	0	1.8179080999998405	NaN	True	NaN	NaN	NaN	NaN	NaN	NaN	NaN
270.8531498000002	1.8179	sub-04	1	localizer	blank	interval	NaN	NaN	NaN	NaN	NaN	NaN	NaN	NaN	NaN	NaN	NaN	NaN
272.9721795000005	0.4996	sub-04	1	localizer	stimulus	Haus	NaN	0	3.085675600000286	NaN	True	NaN	NaN	NaN	NaN	NaN	NaN	NaN
273.45525970000017	3.0857	sub-04	1	localizer	blank	interval	NaN	NaN	NaN	NaN	NaN	NaN	NaN	NaN	NaN	NaN	NaN	NaN
276.8420124000004	0.4993	sub-04	1	localizer	stimulus	Stuhl	NaN	0	3.1692739999998594	NaN	True	NaN	NaN	NaN	NaN	NaN	NaN	NaN
277.3248373000006	3.1693	sub-04	1	localizer	blank	interval	NaN	NaN	NaN	NaN	NaN	NaN	NaN	NaN	NaN	NaN	NaN	NaN
280.7951024000004	0.4995	sub-04	1	localizer	stimulus	Stuhl	NaN	180	2.1849876999995104	-30.48646480000025	True	NaN	NaN	NaN	NaN	NaN	NaN	NaN
281.2780324000005	2.185	sub-04	1	localizer	blank	interval	NaN	NaN	NaN	NaN	NaN	NaN	NaN	NaN	NaN	NaN	NaN	NaN
283.7641886000001	0.5002	sub-04	1	localizer	stimulus	Schuh	NaN	0	1.3008341000004862	NaN	True	NaN	NaN	NaN	NaN	NaN	NaN	NaN
284.24715540000034	1.3008	sub-04	1	localizer	blank	interval	NaN	NaN	NaN	NaN	NaN	NaN	NaN	NaN	NaN	NaN	NaN	NaN
285.8491402000009	0.4995	sub-04	1	localizer	stimulus	Katze	NaN	0	1.83474760000081	NaN	True	NaN	NaN	NaN	NaN	NaN	NaN	NaN
286.3322472	1.8347	sub-04	1	localizer	blank	interval	NaN	NaN	NaN	NaN	NaN	NaN	NaN	NaN	NaN	NaN	NaN	NaN
288.46803140000065	0.4996	sub-04	1	localizer	stimulus	Haus	NaN	180	2.8856370000002585	-30.583750200000395	True	NaN	NaN	NaN	NaN	NaN	NaN	NaN
288.9510483000004	2.8856	sub-04	1	localizer	blank	interval	NaN	NaN	NaN	NaN	NaN	NaN	NaN	NaN	NaN	NaN	NaN	NaN
292.13769520000005	0.4995	sub-04	1	localizer	stimulus	Schuh	NaN	0	2.668492800000422	NaN	True	NaN	NaN	NaN	NaN	NaN	NaN	NaN
292.6208292000001	2.6685	sub-04	1	localizer	blank	interval	NaN	NaN	NaN	NaN	NaN	NaN	NaN	NaN	NaN	NaN	NaN	NaN
295.59043120000024	0.4995	sub-04	1	localizer	stimulus	Haus	NaN	0	2.718644200000199	NaN	True	NaN	NaN	NaN	NaN	NaN	NaN	NaN
296.0734108000006	2.7186	sub-04	1	localizer	blank	interval	NaN	NaN	NaN	NaN	NaN	NaN	NaN	NaN	NaN	NaN	NaN	NaN
299.09323120000045	0.4995	sub-04	1	localizer	stimulus	Gesicht	NaN	0	2.08345759999969	NaN	True	NaN	NaN	NaN	NaN	NaN	NaN	NaN
299.5777577000008	2.0835	sub-04	1	localizer	blank	interval	NaN	NaN	NaN	NaN	NaN	NaN	NaN	NaN	NaN	NaN	NaN	NaN
301.96224580000035	0.4995	sub-04	1	localizer	stimulus	Schuh	NaN	0	2.018360799999755	NaN	True	NaN	NaN	NaN	NaN	NaN	NaN	NaN
302.44512210000084	2.0184	sub-04	1	localizer	blank	interval	NaN	NaN	NaN	NaN	NaN	NaN	NaN	NaN	NaN	NaN	NaN	NaN
304.76446060000035	0.4997	sub-04	1	localizer	stimulus	Stuhl	NaN	0	2.0848982999996792	NaN	True	NaN	NaN	NaN	NaN	NaN	NaN	NaN
305.24740420000035	2.0849	sub-04	1	localizer	blank	interval	NaN	NaN	NaN	NaN	NaN	NaN	NaN	NaN	NaN	NaN	NaN	NaN
307.63366040000074	0.4995	sub-04	1	localizer	stimulus	Katze	NaN	180	3.102192400000604	-30.556706499999564	True	NaN	NaN	NaN	NaN	NaN	NaN	NaN
308.1166505000001	3.1022	sub-04	1	localizer	blank	interval	NaN	NaN	NaN	NaN	NaN	NaN	NaN	NaN	NaN	NaN	NaN	NaN
311.5200255	0.4995	sub-04	1	localizer	stimulus	Stuhl	NaN	0	2.5019359999996595	NaN	True	NaN	NaN	NaN	NaN	NaN	NaN	NaN
312.0029970000005	2.5019	sub-04	1	localizer	blank	interval	NaN	NaN	NaN	NaN	NaN	NaN	NaN	NaN	NaN	NaN	NaN	NaN
314.80600310000045	0.4994	sub-04	1	localizer	stimulus	Haus	NaN	0	2.8521777999994242	NaN	True	NaN	NaN	NaN	NaN	NaN	NaN	NaN
315.28900430000067	2.8522	sub-04	1	localizer	blank	interval	NaN	NaN	NaN	NaN	NaN	NaN	NaN	NaN	NaN	NaN	NaN	NaN
318.44233650000024	0.4995	sub-04	1	localizer	stimulus	Katze	NaN	0	2.635349700000006	NaN	True	NaN	NaN	NaN	NaN	NaN	NaN	NaN
318.9252570000008	2.6353	sub-04	1	localizer	blank	interval	NaN	NaN	NaN	NaN	NaN	NaN	NaN	NaN	NaN	NaN	NaN	NaN
321.8616721000008	0.5002	sub-04	1	localizer	stimulus	Katze	NaN	0	2.8352930999999444	NaN	True	NaN	NaN	NaN	NaN	NaN	NaN	NaN
322.34473230000003	2.8353	sub-04	1	localizer	blank	interval	NaN	NaN	NaN	NaN	NaN	NaN	NaN	NaN	NaN	NaN	NaN	NaN
328.66842780000025	0.9991	sub-04	1	sequence	cue	Katze	NaN	NaN	NaN	NaN	NaN	NaN	NaN	NaN	NaN	NaN	NaN	NaN
329.66758050000044	2.0011	sub-04	1	sequence	blank	blank	NaN	NaN	NaN	NaN	NaN	NaN	NaN	NaN	NaN	NaN	NaN	NaN
331.66867850000017	0.3003	sub-04	1	sequence	fixation	dot	NaN	NaN	NaN	NaN	NaN	NaN	NaN	NaN	NaN	NaN	NaN	NaN
331.98664870000084	0.099	sub-04	1	sequence	stimulus	Haus	NaN	NaN	64.0	NaN	NaN	2.0	1.0	NaN	NaN	NaN	NaN	NaN
332.08566900000005	0.0671	sub-04	1	sequence	interval	dot	NaN	NaN	NaN	NaN	NaN	NaN	NaN	NaN	NaN	NaN	NaN	NaN
332.1527734000001	0.0999	sub-04	1	sequence	stimulus	Katze	NaN	NaN	64.0	NaN	NaN	3.0	2.0	NaN	NaN	NaN	NaN	NaN
332.25270720000026	0.0669	sub-04	1	sequence	interval	dot	NaN	NaN	NaN	NaN	NaN	NaN	NaN	NaN	NaN	NaN	NaN	NaN
332.3196173000006	0.1	sub-04	1	sequence	stimulus	Schuh	NaN	NaN	64.0	NaN	NaN	4.0	3.0	NaN	NaN	NaN	NaN	NaN
332.4195703000005	0.0668	sub-04	1	sequence	interval	dot	NaN	NaN	NaN	NaN	NaN	NaN	NaN	NaN	NaN	NaN	NaN	NaN
332.4863763000003	0.1	sub-04	1	sequence	stimulus	Gesicht	NaN	NaN	64.0	NaN	NaN	1.0	4.0	NaN	NaN	NaN	NaN	NaN
332.58634860000075	0.0669	sub-04	1	sequence	interval	dot	NaN	NaN	NaN	NaN	NaN	NaN	NaN	NaN	NaN	NaN	NaN	NaN
332.6532089000002	0.0999	sub-04	1	sequence	stimulus	Stuhl	NaN	NaN	64.0	NaN	NaN	5.0	5.0	NaN	NaN	NaN	NaN	NaN
332.75311300000067	0.0668	sub-04	1	sequence	interval	dot	NaN	NaN	NaN	NaN	NaN	NaN	NaN	NaN	NaN	NaN	NaN	NaN
332.8198673000006	8.3885	sub-04	1	sequence	delay	dot	NaN	NaN	NaN	NaN	NaN	NaN	NaN	NaN	NaN	NaN	NaN	NaN
341.1852621000007	1.1094	sub-04	1	sequence	choice	choice	right	NaN	NaN	-30.195253400000183	True	NaN	NaN	right	True	5.0	2.0	2.0
342.29502240000056	0.4996	sub-04	1	sequence	feedback	NaN	NaN	NaN	NaN	NaN	NaN	NaN	NaN	NaN	NaN	NaN	NaN	NaN
342.7947268000007	1.0004	sub-04	1	sequence	cue	Gesicht	NaN	NaN	NaN	NaN	NaN	NaN	NaN	NaN	NaN	NaN	NaN	NaN
343.7951812000001	2.0016	sub-04	1	sequence	blank	blank	NaN	NaN	NaN	NaN	NaN	NaN	NaN	NaN	NaN	NaN	NaN	NaN
345.7967838000004	0.3002	sub-04	1	sequence	fixation	dot	NaN	NaN	NaN	NaN	NaN	NaN	NaN	NaN	NaN	NaN	NaN	NaN
346.1147180000007	0.0991	sub-04	1	sequence	stimulus	Schuh	NaN	NaN	128.0	NaN	NaN	4.0	1.0	NaN	NaN	NaN	NaN	NaN
346.2137691000007	0.1336	sub-04	1	sequence	interval	dot	NaN	NaN	NaN	NaN	NaN	NaN	NaN	NaN	NaN	NaN	NaN	NaN
346.3473225000007	0.1	sub-04	1	sequence	stimulus	Haus	NaN	NaN	128.0	NaN	NaN	2.0	2.0	NaN	NaN	NaN	NaN	NaN
346.4472996000004	0.1337	sub-04	1	sequence	interval	dot	NaN	NaN	NaN	NaN	NaN	NaN	NaN	NaN	NaN	NaN	NaN	NaN
346.5809872	0.1001	sub-04	1	sequence	stimulus	Stuhl	NaN	NaN	128.0	NaN	NaN	5.0	3.0	NaN	NaN	NaN	NaN	NaN
346.6810391000008	0.1333	sub-04	1	sequence	interval	dot	NaN	NaN	NaN	NaN	NaN	NaN	NaN	NaN	NaN	NaN	NaN	NaN
346.8143824000008	0.0999	sub-04	1	sequence	stimulus	Gesicht	NaN	NaN	128.0	NaN	NaN	1.0	4.0	NaN	NaN	NaN	NaN	NaN
346.9143049000004	0.1336	sub-04	1	sequence	interval	dot	NaN	NaN	NaN	NaN	NaN	NaN	NaN	NaN	NaN	NaN	NaN	NaN
347.0478892000001	0.1	sub-04	1	sequence	stimulus	Katze	NaN	NaN	128.0	NaN	NaN	3.0	5.0	NaN	NaN	NaN	NaN	NaN
347.1479389000005	0.1334	sub-04	1	sequence	interval	dot	NaN	NaN	NaN	NaN	NaN	NaN	NaN	NaN	NaN	NaN	NaN	NaN
347.2813352000003	8.0719	sub-04	1	sequence	delay	dot	NaN	NaN	NaN	NaN	NaN	NaN	NaN	NaN	NaN	NaN	NaN	NaN
355.32894510000006	0.9939	sub-04	1	sequence	choice	choice	left	NaN	NaN	-30.316498000000134	True	NaN	NaN	left	True	4.0	3.0	4.0
356.3230983000003	0.4995	sub-04	1	sequence	feedback	NaN	NaN	NaN	NaN	NaN	NaN	NaN	NaN	NaN	NaN	NaN	NaN	NaN
356.82278060000044	1.0004	sub-04	1	sequence	cue	Stuhl	NaN	NaN	NaN	NaN	NaN	NaN	NaN	NaN	NaN	NaN	NaN	NaN
357.82318080000005	2.0018	sub-04	1	sequence	blank	blank	NaN	NaN	NaN	NaN	NaN	NaN	NaN	NaN	NaN	NaN	NaN	NaN
359.82494300000053	0.3002	sub-04	1	sequence	fixation	dot	NaN	NaN	NaN	NaN	NaN	NaN	NaN	NaN	NaN	NaN	NaN	NaN
360.1433767000008	0.1151	sub-04	1	sequence	stimulus	Haus	NaN	NaN	64.0	NaN	NaN	2.0	1.0	NaN	NaN	NaN	NaN	NaN
360.2585168000005	0.0668	sub-04	1	sequence	interval	dot	NaN	NaN	NaN	NaN	NaN	NaN	NaN	NaN	NaN	NaN	NaN	NaN
360.3252674000005	0.1001	sub-04	1	sequence	stimulus	Gesicht	NaN	NaN	64.0	NaN	NaN	1.0	2.0	NaN	NaN	NaN	NaN	NaN
360.4253471000002	0.0667	sub-04	1	sequence	interval	dot	NaN	NaN	NaN	NaN	NaN	NaN	NaN	NaN	NaN	NaN	NaN	NaN
360.4920811000002	0.1	sub-04	1	sequence	stimulus	Katze	NaN	NaN	64.0	NaN	NaN	3.0	3.0	NaN	NaN	NaN	NaN	NaN
360.5920738000004	0.0669	sub-04	1	sequence	interval	dot	NaN	NaN	NaN	NaN	NaN	NaN	NaN	NaN	NaN	NaN	NaN	NaN
360.6589767000005	0.1	sub-04	1	sequence	stimulus	Stuhl	NaN	NaN	64.0	NaN	NaN	5.0	4.0	NaN	NaN	NaN	NaN	NaN
360.7590135	0.0668	sub-04	1	sequence	interval	dot	NaN	NaN	NaN	NaN	NaN	NaN	NaN	NaN	NaN	NaN	NaN	NaN
360.8257801	0.0999	sub-04	1	sequence	stimulus	Schuh	NaN	NaN	64.0	NaN	NaN	4.0	5.0	NaN	NaN	NaN	NaN	NaN
360.9256337000006	0.0668	sub-04	1	sequence	interval	dot	NaN	NaN	NaN	NaN	NaN	NaN	NaN	NaN	NaN	NaN	NaN	NaN
360.99247190000006	8.3886	sub-04	1	sequence	delay	dot	NaN	NaN	NaN	NaN	NaN	NaN	NaN	NaN	NaN	NaN	NaN	NaN
369.3687137000006	2.4997	sub-04	1	sequence	choice	choice	NaN	NaN	NaN	NaN	False	NaN	NaN	right	False	3.0	4.0	4.0
371.8685471000008	0.4999	sub-04	1	sequence	feedback	NaN	NaN	NaN	NaN	NaN	NaN	NaN	NaN	NaN	NaN	NaN	NaN	NaN
372.36858070000017	1.0006	sub-04	1	sequence	cue	Gesicht	NaN	NaN	NaN	NaN	NaN	NaN	NaN	NaN	NaN	NaN	NaN	NaN
373.3692241000008	2.0018	sub-04	1	sequence	blank	blank	NaN	NaN	NaN	NaN	NaN	NaN	NaN	NaN	NaN	NaN	NaN	NaN
375.37098330000026	0.3001	sub-04	1	sequence	fixation	dot	NaN	NaN	NaN	NaN	NaN	NaN	NaN	NaN	NaN	NaN	NaN	NaN
375.68854870000087	0.0994	sub-04	1	sequence	stimulus	Schuh	NaN	NaN	32.0	NaN	NaN	4.0	1.0	NaN	NaN	NaN	NaN	NaN
375.7879877000005	0.0336	sub-04	1	sequence	interval	dot	NaN	NaN	NaN	NaN	NaN	NaN	NaN	NaN	NaN	NaN	NaN	NaN
375.8215964000001	0.0998	sub-04	1	sequence	stimulus	Gesicht	NaN	NaN	32.0	NaN	NaN	1.0	2.0	NaN	NaN	NaN	NaN	NaN
375.9214453000004	0.0334	sub-04	1	sequence	interval	dot	NaN	NaN	NaN	NaN	NaN	NaN	NaN	NaN	NaN	NaN	NaN	NaN
375.9548361000007	0.1001	sub-04	1	sequence	stimulus	Katze	NaN	NaN	32.0	NaN	NaN	3.0	3.0	NaN	NaN	NaN	NaN	NaN
376.0549129000001	0.0334	sub-04	1	sequence	interval	dot	NaN	NaN	NaN	NaN	NaN	NaN	NaN	NaN	NaN	NaN	NaN	NaN
376.088299	0.0999	sub-04	1	sequence	stimulus	Stuhl	NaN	NaN	32.0	NaN	NaN	5.0	4.0	NaN	NaN	NaN	NaN	NaN
376.18817730000046	0.0337	sub-04	1	sequence	interval	dot	NaN	NaN	NaN	NaN	NaN	NaN	NaN	NaN	NaN	NaN	NaN	NaN
376.22189160000016	0.0998	sub-04	1	sequence	stimulus	Haus	NaN	NaN	32.0	NaN	NaN	2.0	5.0	NaN	NaN	NaN	NaN	NaN
376.3217299000007	0.0334	sub-04	1	sequence	interval	dot	NaN	NaN	NaN	NaN	NaN	NaN	NaN	NaN	NaN	NaN	NaN	NaN
376.3551150000003	8.5218	sub-04	1	sequence	delay	dot	NaN	NaN	NaN	NaN	NaN	NaN	NaN	NaN	NaN	NaN	NaN	NaN
384.8643904000001	0.9487	sub-04	1	sequence	choice	choice	right	NaN	NaN	-30.35971640000025	True	NaN	NaN	right	True	5.0	2.0	2.0
385.8133926	0.4998	sub-04	1	sequence	feedback	NaN	NaN	NaN	NaN	NaN	NaN	NaN	NaN	NaN	NaN	NaN	NaN	NaN
386.31345340000007	1.0004	sub-04	1	sequence	cue	Haus	NaN	NaN	NaN	NaN	NaN	NaN	NaN	NaN	NaN	NaN	NaN	NaN
387.31384030000027	2.0017	sub-04	1	sequence	blank	blank	NaN	NaN	NaN	NaN	NaN	NaN	NaN	NaN	NaN	NaN	NaN	NaN
389.3155946000006	0.3002	sub-04	1	sequence	fixation	dot	NaN	NaN	NaN	NaN	NaN	NaN	NaN	NaN	NaN	NaN	NaN	NaN
389.63418550000006	0.1152	sub-04	1	sequence	stimulus	Gesicht	NaN	NaN	32.0	NaN	NaN	1.0	1.0	NaN	NaN	NaN	NaN	NaN
389.7493769000002	0.0337	sub-04	1	sequence	interval	dot	NaN	NaN	NaN	NaN	NaN	NaN	NaN	NaN	NaN	NaN	NaN	NaN
389.7830732000002	0.0995	sub-04	1	sequence	stimulus	Stuhl	NaN	NaN	32.0	NaN	NaN	5.0	2.0	NaN	NaN	NaN	NaN	NaN
389.8825919000001	0.0336	sub-04	1	sequence	interval	dot	NaN	NaN	NaN	NaN	NaN	NaN	NaN	NaN	NaN	NaN	NaN	NaN
389.91623830000026	0.0999	sub-04	1	sequence	stimulus	Haus	NaN	NaN	32.0	NaN	NaN	2.0	3.0	NaN	NaN	NaN	NaN	NaN
390.0161666000004	0.0335	sub-04	1	sequence	interval	dot	NaN	NaN	NaN	NaN	NaN	NaN	NaN	NaN	NaN	NaN	NaN	NaN
390.0496309	0.1001	sub-04	1	sequence	stimulus	Katze	NaN	NaN	32.0	NaN	NaN	3.0	4.0	NaN	NaN	NaN	NaN	NaN
390.14971070000047	0.0334	sub-04	1	sequence	interval	dot	NaN	NaN	NaN	NaN	NaN	NaN	NaN	NaN	NaN	NaN	NaN	NaN
390.1831464000006	0.0999	sub-04	1	sequence	stimulus	Schuh	NaN	NaN	32.0	NaN	NaN	4.0	5.0	NaN	NaN	NaN	NaN	NaN
390.2830153000005	0.0334	sub-04	1	sequence	interval	dot	NaN	NaN	NaN	NaN	NaN	NaN	NaN	NaN	NaN	NaN	NaN	NaN
390.3164378000001	8.5219	sub-04	1	sequence	delay	dot	NaN	NaN	NaN	NaN	NaN	NaN	NaN	NaN	NaN	NaN	NaN	NaN
398.8261041000005	1.015	sub-04	1	sequence	choice	choice	left	NaN	NaN	-30.28910850000011	True	NaN	NaN	left	True	3.0	5.0	3.0
399.8413776000007	0.4999	sub-04	1	sequence	feedback	NaN	NaN	NaN	NaN	NaN	NaN	NaN	NaN	NaN	NaN	NaN	NaN	NaN
400.3414631000005	1.0004	sub-04	1	sequence	cue	Stuhl	NaN	NaN	NaN	NaN	NaN	NaN	NaN	NaN	NaN	NaN	NaN	NaN
401.34189360000073	2.0015	sub-04	1	sequence	blank	blank	NaN	NaN	NaN	NaN	NaN	NaN	NaN	NaN	NaN	NaN	NaN	NaN
403.34341760000007	0.3002	sub-04	1	sequence	fixation	dot	NaN	NaN	NaN	NaN	NaN	NaN	NaN	NaN	NaN	NaN	NaN	NaN
403.66291400000046	0.1141	sub-04	1	sequence	stimulus	Stuhl	NaN	NaN	512.0	NaN	NaN	5.0	1.0	NaN	NaN	NaN	NaN	NaN
403.77700580000055	0.5175	sub-04	1	sequence	interval	dot	NaN	NaN	NaN	NaN	NaN	NaN	NaN	NaN	NaN	NaN	NaN	NaN
404.2944929000005	0.0998	sub-04	1	sequence	stimulus	Haus	NaN	NaN	512.0	NaN	NaN	2.0	2.0	NaN	NaN	NaN	NaN	NaN
404.3943344000008	0.5172	sub-04	1	sequence	interval	dot	NaN	NaN	NaN	NaN	NaN	NaN	NaN	NaN	NaN	NaN	NaN	NaN
404.9114995	0.1001	sub-04	1	sequence	stimulus	Katze	NaN	NaN	512.0	NaN	NaN	3.0	3.0	NaN	NaN	NaN	NaN	NaN
405.0115563000009	0.5172	sub-04	1	sequence	interval	dot	NaN	NaN	NaN	NaN	NaN	NaN	NaN	NaN	NaN	NaN	NaN	NaN
405.5287562000003	0.1	sub-04	1	sequence	stimulus	Gesicht	NaN	NaN	512.0	NaN	NaN	1.0	4.0	NaN	NaN	NaN	NaN	NaN
405.6287608000002	0.5172	sub-04	1	sequence	interval	dot	NaN	NaN	NaN	NaN	NaN	NaN	NaN	NaN	NaN	NaN	NaN	NaN
406.14591630000086	0.0999	sub-04	1	sequence	stimulus	Schuh	NaN	NaN	512.0	NaN	NaN	4.0	5.0	NaN	NaN	NaN	NaN	NaN
406.2457997000001	0.5171	sub-04	1	sequence	interval	dot	NaN	NaN	NaN	NaN	NaN	NaN	NaN	NaN	NaN	NaN	NaN	NaN
406.7629043000006	6.1532	sub-04	1	sequence	delay	dot	NaN	NaN	NaN	NaN	NaN	NaN	NaN	NaN	NaN	NaN	NaN	NaN
412.8918536000001	0.9609	sub-04	1	sequence	choice	choice	left	NaN	NaN	-30.35945199999969	True	NaN	NaN	left	True	1.0	5.0	1.0
413.8530270000001	0.4997	sub-04	1	sequence	feedback	NaN	NaN	NaN	NaN	NaN	NaN	NaN	NaN	NaN	NaN	NaN	NaN	NaN
414.35301380000055	1.0001	sub-04	1	sequence	cue	Gesicht	NaN	NaN	NaN	NaN	NaN	NaN	NaN	NaN	NaN	NaN	NaN	NaN
415.3530766000004	2.0017	sub-04	1	sequence	blank	blank	NaN	NaN	NaN	NaN	NaN	NaN	NaN	NaN	NaN	NaN	NaN	NaN
417.3548316000006	0.3003	sub-04	1	sequence	fixation	dot	NaN	NaN	NaN	NaN	NaN	NaN	NaN	NaN	NaN	NaN	NaN	NaN
417.67255620000014	0.0992	sub-04	1	sequence	stimulus	Haus	NaN	NaN	512.0	NaN	NaN	2.0	1.0	NaN	NaN	NaN	NaN	NaN
417.7717779000004	0.5172	sub-04	1	sequence	interval	dot	NaN	NaN	NaN	NaN	NaN	NaN	NaN	NaN	NaN	NaN	NaN	NaN
418.2890059000001	0.1001	sub-04	1	sequence	stimulus	Stuhl	NaN	NaN	512.0	NaN	NaN	5.0	2.0	NaN	NaN	NaN	NaN	NaN
418.3891375000003	0.5172	sub-04	1	sequence	interval	dot	NaN	NaN	NaN	NaN	NaN	NaN	NaN	NaN	NaN	NaN	NaN	NaN
418.90634780000073	0.0999	sub-04	1	sequence	stimulus	Katze	NaN	NaN	512.0	NaN	NaN	3.0	3.0	NaN	NaN	NaN	NaN	NaN
419.0062543000004	0.517	sub-04	1	sequence	interval	dot	NaN	NaN	NaN	NaN	NaN	NaN	NaN	NaN	NaN	NaN	NaN	NaN
419.5232428000008	0.1	sub-04	1	sequence	stimulus	Gesicht	NaN	NaN	512.0	NaN	NaN	1.0	4.0	NaN	NaN	NaN	NaN	NaN
419.6232198000007	0.5172	sub-04	1	sequence	interval	dot	NaN	NaN	NaN	NaN	NaN	NaN	NaN	NaN	NaN	NaN	NaN	NaN
420.1404646000001	0.1	sub-04	1	sequence	stimulus	Schuh	NaN	NaN	512.0	NaN	NaN	4.0	5.0	NaN	NaN	NaN	NaN	NaN
420.2404413000004	0.517	sub-04	1	sequence	interval	dot	NaN	NaN	NaN	NaN	NaN	NaN	NaN	NaN	NaN	NaN	NaN	NaN
420.7574665000002	6.1367	sub-04	1	sequence	delay	dot	NaN	NaN	NaN	NaN	NaN	NaN	NaN	NaN	NaN	NaN	NaN	NaN
426.8795410000002	0.8675	sub-04	1	sequence	choice	choice	left	NaN	NaN	-30.43363270000009	True	NaN	NaN	left	True	4.0	5.0	4.0
427.7473057000007	0.5	sub-04	1	sequence	feedback	NaN	NaN	NaN	NaN	NaN	NaN	NaN	NaN	NaN	NaN	NaN	NaN	NaN
428.2475030000005	1.0003	sub-04	1	sequence	cue	Katze	NaN	NaN	NaN	NaN	NaN	NaN	NaN	NaN	NaN	NaN	NaN	NaN
429.2477804	2.0017	sub-04	1	sequence	blank	blank	NaN	NaN	NaN	NaN	NaN	NaN	NaN	NaN	NaN	NaN	NaN	NaN
431.2494597000005	0.3003	sub-04	1	sequence	fixation	dot	NaN	NaN	NaN	NaN	NaN	NaN	NaN	NaN	NaN	NaN	NaN	NaN
431.5674408000005	0.099	sub-04	1	sequence	stimulus	Schuh	NaN	NaN	128.0	NaN	NaN	4.0	1.0	NaN	NaN	NaN	NaN	NaN
431.6664606000004	0.1377	sub-04	1	sequence	interval	dot	NaN	NaN	NaN	NaN	NaN	NaN	NaN	NaN	NaN	NaN	NaN	NaN
431.8041684	0.1125	sub-04	1	sequence	stimulus	Haus	NaN	NaN	128.0	NaN	NaN	2.0	2.0	NaN	NaN	NaN	NaN	NaN
431.91670840000006	0.1336	sub-04	1	sequence	interval	dot	NaN	NaN	NaN	NaN	NaN	NaN	NaN	NaN	NaN	NaN	NaN	NaN
432.0502640000004	0.0999	sub-04	1	sequence	stimulus	Stuhl	NaN	NaN	128.0	NaN	NaN	5.0	3.0	NaN	NaN	NaN	NaN	NaN
432.1501492000007	0.1336	sub-04	1	sequence	interval	dot	NaN	NaN	NaN	NaN	NaN	NaN	NaN	NaN	NaN	NaN	NaN	NaN
432.28373400000055	0.0999	sub-04	1	sequence	stimulus	Katze	NaN	NaN	128.0	NaN	NaN	3.0	4.0	NaN	NaN	NaN	NaN	NaN
432.38362980000056	0.1336	sub-04	1	sequence	interval	dot	NaN	NaN	NaN	NaN	NaN	NaN	NaN	NaN	NaN	NaN	NaN	NaN
432.51725460000034	0.0999	sub-04	1	sequence	stimulus	Gesicht	NaN	NaN	128.0	NaN	NaN	1.0	5.0	NaN	NaN	NaN	NaN	NaN
432.6171427000008	0.1334	sub-04	1	sequence	interval	dot	NaN	NaN	NaN	NaN	NaN	NaN	NaN	NaN	NaN	NaN	NaN	NaN
432.75056870000026	8.055	sub-04	1	sequence	delay	dot	NaN	NaN	NaN	NaN	NaN	NaN	NaN	NaN	NaN	NaN	NaN	NaN
440.78923380000015	0.9026	sub-04	1	sequence	choice	choice	right	NaN	NaN	-30.40916500000003	True	NaN	NaN	right	True	1.0	4.0	4.0
441.69209860000046	0.4998	sub-04	1	sequence	feedback	NaN	NaN	NaN	NaN	NaN	NaN	NaN	NaN	NaN	NaN	NaN	NaN	NaN
442.1923833000001	6.7382	sub-04	1	other	break	break	NaN	NaN	NaN	NaN	NaN	NaN	NaN	NaN	NaN	NaN	NaN	NaN
452.75088180000057	0.4995	sub-04	1	localizer	stimulus	Gesicht	NaN	0	3.536267200000111	NaN	True	NaN	NaN	NaN	NaN	NaN	NaN	NaN
453.2503686	3.5363	sub-04	1	localizer	blank	interval	NaN	NaN	NaN	NaN	NaN	NaN	NaN	NaN	NaN	NaN	NaN	NaN
457.08800670000073	0.4993	sub-04	1	localizer	stimulus	Schuh	NaN	0	2.3853765000003477	NaN	True	NaN	NaN	NaN	NaN	NaN	NaN	NaN
457.57065580000017	2.3854	sub-04	1	localizer	blank	interval	NaN	NaN	NaN	NaN	NaN	NaN	NaN	NaN	NaN	NaN	NaN	NaN
460.2573475000008	0.4994	sub-04	1	localizer	stimulus	Katze	NaN	0	2.4516482999998175	NaN	True	NaN	NaN	NaN	NaN	NaN	NaN	NaN
460.7401414000005	2.4516	sub-04	1	localizer	blank	interval	NaN	NaN	NaN	NaN	NaN	NaN	NaN	NaN	NaN	NaN	NaN	NaN
463.4929458000006	0.4995	sub-04	1	localizer	stimulus	Gesicht	NaN	180	2.3017972999996346	-30.487701499999275	True	NaN	NaN	NaN	NaN	NaN	NaN	NaN
463.9758795000007	2.3018	sub-04	1	localizer	blank	interval	NaN	NaN	NaN	NaN	NaN	NaN	NaN	NaN	NaN	NaN	NaN	NaN
466.5788224000007	0.4994	sub-04	1	localizer	stimulus	Katze	NaN	0	2.785575400000198	NaN	True	NaN	NaN	NaN	NaN	NaN	NaN	NaN
467.0616699000002	2.7856	sub-04	1	localizer	blank	interval	NaN	NaN	NaN	NaN	NaN	NaN	NaN	NaN	NaN	NaN	NaN	NaN
470.1483493000005	0.4998	sub-04	1	localizer	stimulus	Katze	NaN	0	2.0680253999998968	NaN	True	NaN	NaN	NaN	NaN	NaN	NaN	NaN
470.6314372000006	2.068	sub-04	1	localizer	blank	interval	NaN	NaN	NaN	NaN	NaN	NaN	NaN	NaN	NaN	NaN	NaN	NaN
473.0006978000001	0.4995	sub-04	1	localizer	stimulus	Schuh	NaN	0	2.4352336000001173	NaN	True	NaN	NaN	NaN	NaN	NaN	NaN	NaN
473.4835177000005	2.4352	sub-04	1	localizer	blank	interval	NaN	NaN	NaN	NaN	NaN	NaN	NaN	NaN	NaN	NaN	NaN	NaN
476.2198870000002	0.4995	sub-04	1	localizer	stimulus	Stuhl	NaN	0	2.251809200000025	NaN	True	NaN	NaN	NaN	NaN	NaN	NaN	NaN
476.7028362000001	2.2518	sub-04	1	localizer	blank	interval	NaN	NaN	NaN	NaN	NaN	NaN	NaN	NaN	NaN	NaN	NaN	NaN
479.2557351000005	0.4997	sub-04	1	localizer	stimulus	Schuh	NaN	0	2.3352578999993057	NaN	True	NaN	NaN	NaN	NaN	NaN	NaN	NaN
479.7387750000007	2.3353	sub-04	1	localizer	blank	interval	NaN	NaN	NaN	NaN	NaN	NaN	NaN	NaN	NaN	NaN	NaN	NaN
482.3748886000003	0.4995	sub-04	1	localizer	stimulus	Schuh	NaN	180	2.90228069999921	-30.49786539999968	True	NaN	NaN	NaN	NaN	NaN	NaN	NaN
482.8578294000008	2.9023	sub-04	1	localizer	blank	interval	NaN	NaN	NaN	NaN	NaN	NaN	NaN	NaN	NaN	NaN	NaN	NaN
486.0611814000004	0.4996	sub-04	1	localizer	stimulus	Gesicht	NaN	0	2.635246200000438	NaN	True	NaN	NaN	NaN	NaN	NaN	NaN	NaN
486.5441901000004	2.6352	sub-04	1	localizer	blank	interval	NaN	NaN	NaN	NaN	NaN	NaN	NaN	NaN	NaN	NaN	NaN	NaN
489.4807238000003	0.4995	sub-04	1	localizer	stimulus	Haus	NaN	180	1.9848151999995025	-30.564160799999627	True	NaN	NaN	NaN	NaN	NaN	NaN	NaN
489.9637291000008	1.9848	sub-04	1	localizer	blank	interval	NaN	NaN	NaN	NaN	NaN	NaN	NaN	NaN	NaN	NaN	NaN	NaN
492.24973390000014	0.4993	sub-04	1	localizer	stimulus	Gesicht	NaN	0	3.1856876000002217	NaN	True	NaN	NaN	NaN	NaN	NaN	NaN	NaN
492.7325433000005	3.1857	sub-04	1	localizer	blank	interval	NaN	NaN	NaN	NaN	NaN	NaN	NaN	NaN	NaN	NaN	NaN	NaN
496.2195083000006	0.4995	sub-04	1	localizer	stimulus	Gesicht	NaN	0	2.0682455999995	NaN	True	NaN	NaN	NaN	NaN	NaN	NaN	NaN
496.7024415000005	2.0682	sub-04	1	localizer	blank	interval	NaN	NaN	NaN	NaN	NaN	NaN	NaN	NaN	NaN	NaN	NaN	NaN
499.0718846	0.4993	sub-04	1	localizer	stimulus	Stuhl	NaN	0	3.169326000000183	NaN	True	NaN	NaN	NaN	NaN	NaN	NaN	NaN
499.5546873000003	3.1693	sub-04	1	localizer	blank	interval	NaN	NaN	NaN	NaN	NaN	NaN	NaN	NaN	NaN	NaN	NaN	NaN
503.0250522000006	0.4993	sub-04	1	localizer	stimulus	Haus	NaN	0	3.1509415999998964	NaN	True	NaN	NaN	NaN	NaN	NaN	NaN	NaN
503.5093394000005	3.1509	sub-04	1	localizer	blank	interval	NaN	NaN	NaN	NaN	NaN	NaN	NaN	NaN	NaN	NaN	NaN	NaN
506.9614696000008	0.4994	sub-04	1	localizer	stimulus	Haus	NaN	0	2.551907099999937	NaN	True	NaN	NaN	NaN	NaN	NaN	NaN	NaN
507.4444859000005	2.5519	sub-04	1	localizer	blank	interval	NaN	NaN	NaN	NaN	NaN	NaN	NaN	NaN	NaN	NaN	NaN	NaN
510.2974688000004	0.5002	sub-04	1	localizer	stimulus	Schuh	NaN	0	3.202252199999691	NaN	True	NaN	NaN	NaN	NaN	NaN	NaN	NaN
510.7806598000007	3.2023	sub-04	1	localizer	blank	interval	NaN	NaN	NaN	NaN	NaN	NaN	NaN	NaN	NaN	NaN	NaN	NaN
514.2840450000003	0.4996	sub-04	1	localizer	stimulus	Haus	NaN	0	2.868813500000215	NaN	True	NaN	NaN	NaN	NaN	NaN	NaN	NaN
514.7670333000005	2.8688	sub-04	1	localizer	blank	interval	NaN	NaN	NaN	NaN	NaN	NaN	NaN	NaN	NaN	NaN	NaN	NaN
517.9368862000001	0.4995	sub-04	1	localizer	stimulus	Stuhl	NaN	0	2.468653099999756	NaN	True	NaN	NaN	NaN	NaN	NaN	NaN	NaN
518.4198758000002	2.4687	sub-04	1	localizer	blank	interval	NaN	NaN	NaN	NaN	NaN	NaN	NaN	NaN	NaN	NaN	NaN	NaN
521.1896602000006	0.4996	sub-04	1	localizer	stimulus	Stuhl	NaN	180	1.3842665000001944	-30.51253160000033	True	NaN	NaN	NaN	NaN	NaN	NaN	NaN
521.6727255000005	1.3843	sub-04	1	localizer	blank	interval	NaN	NaN	NaN	NaN	NaN	NaN	NaN	NaN	NaN	NaN	NaN	NaN
523.3582168000003	0.4994	sub-04	1	localizer	stimulus	Katze	NaN	0	2.1013677000000826	NaN	True	NaN	NaN	NaN	NaN	NaN	NaN	NaN
523.8411057000003	2.1014	sub-04	1	localizer	blank	interval	NaN	NaN	NaN	NaN	NaN	NaN	NaN	NaN	NaN	NaN	NaN	NaN
526.2436639000007	0.4994	sub-04	1	localizer	stimulus	Haus	NaN	0	2.6519367000000784	NaN	True	NaN	NaN	NaN	NaN	NaN	NaN	NaN
526.7266364000006	2.6519	sub-04	1	localizer	blank	interval	NaN	NaN	NaN	NaN	NaN	NaN	NaN	NaN	NaN	NaN	NaN	NaN
529.6798999000002	0.4994	sub-04	1	localizer	stimulus	Katze	NaN	180	2.685424999999668	-30.50709720000032	True	NaN	NaN	NaN	NaN	NaN	NaN	NaN
530.1628032000008	2.6854	sub-04	1	localizer	blank	interval	NaN	NaN	NaN	NaN	NaN	NaN	NaN	NaN	NaN	NaN	NaN	NaN
533.1492721000004	0.4994	sub-04	1	localizer	stimulus	Stuhl	NaN	0	1.5844487999993362	NaN	True	NaN	NaN	NaN	NaN	NaN	NaN	NaN
533.6321663000008	1.5844	sub-04	1	localizer	blank	interval	NaN	NaN	NaN	NaN	NaN	NaN	NaN	NaN	NaN	NaN	NaN	NaN
538.7030706000005	1.0005	sub-04	1	sequence	cue	Katze	NaN	NaN	NaN	NaN	NaN	NaN	NaN	NaN	NaN	NaN	NaN	NaN
539.7036174000004	2.0017	sub-04	1	sequence	blank	blank	NaN	NaN	NaN	NaN	NaN	NaN	NaN	NaN	NaN	NaN	NaN	NaN
541.7052812000002	0.3003	sub-04	1	sequence	fixation	dot	NaN	NaN	NaN	NaN	NaN	NaN	NaN	NaN	NaN	NaN	NaN	NaN
542.0240217	0.1152	sub-04	1	sequence	stimulus	Schuh	NaN	NaN	128.0	NaN	NaN	4.0	1.0	NaN	NaN	NaN	NaN	NaN
542.1392139000009	0.1336	sub-04	1	sequence	interval	dot	NaN	NaN	NaN	NaN	NaN	NaN	NaN	NaN	NaN	NaN	NaN	NaN
542.2728102000001	0.0999	sub-04	1	sequence	stimulus	Haus	NaN	NaN	128.0	NaN	NaN	2.0	2.0	NaN	NaN	NaN	NaN	NaN
542.3727504000008	0.1335	sub-04	1	sequence	interval	dot	NaN	NaN	NaN	NaN	NaN	NaN	NaN	NaN	NaN	NaN	NaN	NaN
542.5062894000002	0.1	sub-04	1	sequence	stimulus	Stuhl	NaN	NaN	128.0	NaN	NaN	5.0	3.0	NaN	NaN	NaN	NaN	NaN
542.6062790000005	0.1336	sub-04	1	sequence	interval	dot	NaN	NaN	NaN	NaN	NaN	NaN	NaN	NaN	NaN	NaN	NaN	NaN
542.7398736000005	0.1	sub-04	1	sequence	stimulus	Gesicht	NaN	NaN	128.0	NaN	NaN	1.0	4.0	NaN	NaN	NaN	NaN	NaN
542.8398409000001	0.1335	sub-04	1	sequence	interval	dot	NaN	NaN	NaN	NaN	NaN	NaN	NaN	NaN	NaN	NaN	NaN	NaN
542.9733565000006	0.0999	sub-04	1	sequence	stimulus	Katze	NaN	NaN	128.0	NaN	NaN	3.0	5.0	NaN	NaN	NaN	NaN	NaN
543.0732750000006	0.1334	sub-04	1	sequence	interval	dot	NaN	NaN	NaN	NaN	NaN	NaN	NaN	NaN	NaN	NaN	NaN	NaN
543.2066759000008	8.0715	sub-04	1	sequence	delay	dot	NaN	NaN	NaN	NaN	NaN	NaN	NaN	NaN	NaN	NaN	NaN	NaN
551.2609612000006	0.8201	sub-04	1	sequence	choice	choice	right	NaN	NaN	-30.489670099999785	True	NaN	NaN	right	True	4.0	5.0	5.0
552.0814371000006	0.4999	sub-04	1	sequence	feedback	NaN	NaN	NaN	NaN	NaN	NaN	NaN	NaN	NaN	NaN	NaN	NaN	NaN
552.5815609000001	1.0	sub-04	1	sequence	cue	Schuh	NaN	NaN	NaN	NaN	NaN	NaN	NaN	NaN	NaN	NaN	NaN	NaN
553.5815407	2.0016	sub-04	1	sequence	blank	blank	NaN	NaN	NaN	NaN	NaN	NaN	NaN	NaN	NaN	NaN	NaN	NaN
555.5831733000005	0.3002	sub-04	1	sequence	fixation	dot	NaN	NaN	NaN	NaN	NaN	NaN	NaN	NaN	NaN	NaN	NaN	NaN
555.9017375000003	0.1152	sub-04	1	sequence	stimulus	Haus	NaN	NaN	64.0	NaN	NaN	2.0	1.0	NaN	NaN	NaN	NaN	NaN
556.0169823000006	0.0667	sub-04	1	sequence	interval	dot	NaN	NaN	NaN	NaN	NaN	NaN	NaN	NaN	NaN	NaN	NaN	NaN
556.0837199000007	0.1003	sub-04	1	sequence	stimulus	Gesicht	NaN	NaN	64.0	NaN	NaN	1.0	2.0	NaN	NaN	NaN	NaN	NaN
556.1840232000004	0.0677	sub-04	1	sequence	interval	dot	NaN	NaN	NaN	NaN	NaN	NaN	NaN	NaN	NaN	NaN	NaN	NaN
556.2517062000006	0.1156	sub-04	1	sequence	stimulus	Katze	NaN	NaN	64.0	NaN	NaN	3.0	3.0	NaN	NaN	NaN	NaN	NaN
556.3672713000005	0.0669	sub-04	1	sequence	interval	dot	NaN	NaN	NaN	NaN	NaN	NaN	NaN	NaN	NaN	NaN	NaN	NaN
556.4341356000004	0.0999	sub-04	1	sequence	stimulus	Stuhl	NaN	NaN	64.0	NaN	NaN	5.0	4.0	NaN	NaN	NaN	NaN	NaN
556.5340361000008	0.0669	sub-04	1	sequence	interval	dot	NaN	NaN	NaN	NaN	NaN	NaN	NaN	NaN	NaN	NaN	NaN	NaN
556.6009128000005	0.1	sub-04	1	sequence	stimulus	Schuh	NaN	NaN	64.0	NaN	NaN	4.0	5.0	NaN	NaN	NaN	NaN	NaN
556.7008677000003	0.0667	sub-04	1	sequence	interval	dot	NaN	NaN	NaN	NaN	NaN	NaN	NaN	NaN	NaN	NaN	NaN	NaN
556.7675978000007	8.372	sub-04	1	sequence	delay	dot	NaN	NaN	NaN	NaN	NaN	NaN	NaN	NaN	NaN	NaN	NaN	NaN
565.1186862000004	0.8569	sub-04	1	sequence	choice	choice	left	NaN	NaN	-30.454576199999792	True	NaN	NaN	left	True	5.0	4.0	5.0
565.9758738	0.4998	sub-04	1	sequence	feedback	NaN	NaN	NaN	NaN	NaN	NaN	NaN	NaN	NaN	NaN	NaN	NaN	NaN
566.4758398000004	1.0002	sub-04	1	sequence	cue	Gesicht	NaN	NaN	NaN	NaN	NaN	NaN	NaN	NaN	NaN	NaN	NaN	NaN
567.4760845000001	2.0018	sub-04	1	sequence	blank	blank	NaN	NaN	NaN	NaN	NaN	NaN	NaN	NaN	NaN	NaN	NaN	NaN
569.4779415000003	0.3	sub-04	1	sequence	fixation	dot	NaN	NaN	NaN	NaN	NaN	NaN	NaN	NaN	NaN	NaN	NaN	NaN
569.7957411000007	0.1157	sub-04	1	sequence	stimulus	Gesicht	NaN	NaN	32.0	NaN	NaN	1.0	1.0	NaN	NaN	NaN	NaN	NaN
569.9114764000005	0.0335	sub-04	1	sequence	interval	dot	NaN	NaN	NaN	NaN	NaN	NaN	NaN	NaN	NaN	NaN	NaN	NaN
569.9449421000008	0.1	sub-04	1	sequence	stimulus	Stuhl	NaN	NaN	32.0	NaN	NaN	5.0	2.0	NaN	NaN	NaN	NaN	NaN
570.0449785000001	0.0335	sub-04	1	sequence	interval	dot	NaN	NaN	NaN	NaN	NaN	NaN	NaN	NaN	NaN	NaN	NaN	NaN
570.0784759000007	0.0998	sub-04	1	sequence	stimulus	Haus	NaN	NaN	32.0	NaN	NaN	2.0	3.0	NaN	NaN	NaN	NaN	NaN
570.1783194000009	0.0335	sub-04	1	sequence	interval	dot	NaN	NaN	NaN	NaN	NaN	NaN	NaN	NaN	NaN	NaN	NaN	NaN
570.2118006000001	0.1	sub-04	1	sequence	stimulus	Katze	NaN	NaN	32.0	NaN	NaN	3.0	4.0	NaN	NaN	NaN	NaN	NaN
570.3117743000003	0.0336	sub-04	1	sequence	interval	dot	NaN	NaN	NaN	NaN	NaN	NaN	NaN	NaN	NaN	NaN	NaN	NaN
570.3453436	0.1	sub-04	1	sequence	stimulus	Schuh	NaN	NaN	32.0	NaN	NaN	4.0	5.0	NaN	NaN	NaN	NaN	NaN
570.4453161000001	0.0334	sub-04	1	sequence	interval	dot	NaN	NaN	NaN	NaN	NaN	NaN	NaN	NaN	NaN	NaN	NaN	NaN
570.4787614000006	8.5386	sub-04	1	sequence	delay	dot	NaN	NaN	NaN	NaN	NaN	NaN	NaN	NaN	NaN	NaN	NaN	NaN
579.0023497000002	0.8512	sub-04	1	sequence	choice	choice	right	NaN	NaN	-30.45207689999916	True	NaN	NaN	right	True	3.0	1.0	1.0
579.8538307000008	0.4997	sub-04	1	sequence	feedback	NaN	NaN	NaN	NaN	NaN	NaN	NaN	NaN	NaN	NaN	NaN	NaN	NaN
580.3536972000002	1.0003	sub-04	1	sequence	cue	Gesicht	NaN	NaN	NaN	NaN	NaN	NaN	NaN	NaN	NaN	NaN	NaN	NaN
581.3539946000001	2.0018	sub-04	1	sequence	blank	blank	NaN	NaN	NaN	NaN	NaN	NaN	NaN	NaN	NaN	NaN	NaN	NaN
583.3558236000008	0.3001	sub-04	1	sequence	fixation	dot	NaN	NaN	NaN	NaN	NaN	NaN	NaN	NaN	NaN	NaN	NaN	NaN
583.6744920000001	0.1153	sub-04	1	sequence	stimulus	Haus	NaN	NaN	64.0	NaN	NaN	2.0	1.0	NaN	NaN	NaN	NaN	NaN
583.7898268000008	0.0666	sub-04	1	sequence	interval	dot	NaN	NaN	NaN	NaN	NaN	NaN	NaN	NaN	NaN	NaN	NaN	NaN
583.8564357000005	0.0999	sub-04	1	sequence	stimulus	Katze	NaN	NaN	64.0	NaN	NaN	3.0	2.0	NaN	NaN	NaN	NaN	NaN
583.9563078000001	0.0669	sub-04	1	sequence	interval	dot	NaN	NaN	NaN	NaN	NaN	NaN	NaN	NaN	NaN	NaN	NaN	NaN
584.0232133000009	0.1	sub-04	1	sequence	stimulus	Schuh	NaN	NaN	64.0	NaN	NaN	4.0	3.0	NaN	NaN	NaN	NaN	NaN
584.1232187000005	0.0668	sub-04	1	sequence	interval	dot	NaN	NaN	NaN	NaN	NaN	NaN	NaN	NaN	NaN	NaN	NaN	NaN
584.1900382000003	0.1	sub-04	1	sequence	stimulus	Gesicht	NaN	NaN	64.0	NaN	NaN	1.0	4.0	NaN	NaN	NaN	NaN	NaN
584.2900305000003	0.0668	sub-04	1	sequence	interval	dot	NaN	NaN	NaN	NaN	NaN	NaN	NaN	NaN	NaN	NaN	NaN	NaN
584.3568606000008	0.1	sub-04	1	sequence	stimulus	Stuhl	NaN	NaN	64.0	NaN	NaN	5.0	5.0	NaN	NaN	NaN	NaN	NaN
584.4568478000001	0.0667	sub-04	1	sequence	interval	dot	NaN	NaN	NaN	NaN	NaN	NaN	NaN	NaN	NaN	NaN	NaN	NaN
584.5235448000003	8.3886	sub-04	1	sequence	delay	dot	NaN	NaN	NaN	NaN	NaN	NaN	NaN	NaN	NaN	NaN	NaN	NaN
592.8860213000007	2.163	sub-04	1	sequence	choice	choice	right	NaN	NaN	-29.147577300000197	True	NaN	NaN	right	True	3.0	4.0	4.0
595.0492884000005	0.5	sub-04	1	sequence	feedback	NaN	NaN	NaN	NaN	NaN	NaN	NaN	NaN	NaN	NaN	NaN	NaN	NaN
595.5495653000007	1.0	sub-04	1	sequence	cue	Gesicht	NaN	NaN	NaN	NaN	NaN	NaN	NaN	NaN	NaN	NaN	NaN	NaN
596.5496167000001	2.0017	sub-04	1	sequence	blank	blank	NaN	NaN	NaN	NaN	NaN	NaN	NaN	NaN	NaN	NaN	NaN	NaN
598.5513092000001	0.3003	sub-04	1	sequence	fixation	dot	NaN	NaN	NaN	NaN	NaN	NaN	NaN	NaN	NaN	NaN	NaN	NaN
598.8699053	0.1151	sub-04	1	sequence	stimulus	Haus	NaN	NaN	512.0	NaN	NaN	2.0	1.0	NaN	NaN	NaN	NaN	NaN
598.985028	0.5172	sub-04	1	sequence	interval	dot	NaN	NaN	NaN	NaN	NaN	NaN	NaN	NaN	NaN	NaN	NaN	NaN
599.5022250000002	0.0999	sub-04	1	sequence	stimulus	Stuhl	NaN	NaN	512.0	NaN	NaN	5.0	2.0	NaN	NaN	NaN	NaN	NaN
599.6021703000006	0.5172	sub-04	1	sequence	interval	dot	NaN	NaN	NaN	NaN	NaN	NaN	NaN	NaN	NaN	NaN	NaN	NaN
600.1193822000005	0.0998	sub-04	1	sequence	stimulus	Katze	NaN	NaN	512.0	NaN	NaN	3.0	3.0	NaN	NaN	NaN	NaN	NaN
600.2192150000001	0.5172	sub-04	1	sequence	interval	dot	NaN	NaN	NaN	NaN	NaN	NaN	NaN	NaN	NaN	NaN	NaN	NaN
600.7364356000007	0.1	sub-04	1	sequence	stimulus	Gesicht	NaN	NaN	512.0	NaN	NaN	1.0	4.0	NaN	NaN	NaN	NaN	NaN
600.8364654000006	0.5171	sub-04	1	sequence	interval	dot	NaN	NaN	NaN	NaN	NaN	NaN	NaN	NaN	NaN	NaN	NaN	NaN
601.3535953	0.1	sub-04	1	sequence	stimulus	Schuh	NaN	NaN	512.0	NaN	NaN	4.0	5.0	NaN	NaN	NaN	NaN	NaN
601.4535983000005	0.5171	sub-04	1	sequence	interval	dot	NaN	NaN	NaN	NaN	NaN	NaN	NaN	NaN	NaN	NaN	NaN	NaN
601.9706732000004	6.1369	sub-04	1	sequence	delay	dot	NaN	NaN	NaN	NaN	NaN	NaN	NaN	NaN	NaN	NaN	NaN	NaN
608.0957389000005	0.8479	sub-04	1	sequence	choice	choice	left	NaN	NaN	-30.44687370000065	True	NaN	NaN	left	True	4.0	2.0	4.0
608.9438754000003	0.5	sub-04	1	sequence	feedback	NaN	NaN	NaN	NaN	NaN	NaN	NaN	NaN	NaN	NaN	NaN	NaN	NaN
609.4440891000004	1.0003	sub-04	1	sequence	cue	Schuh	NaN	NaN	NaN	NaN	NaN	NaN	NaN	NaN	NaN	NaN	NaN	NaN
610.4443735000004	2.0015	sub-04	1	sequence	blank	blank	NaN	NaN	NaN	NaN	NaN	NaN	NaN	NaN	NaN	NaN	NaN	NaN
612.4459252000006	0.3003	sub-04	1	sequence	fixation	dot	NaN	NaN	NaN	NaN	NaN	NaN	NaN	NaN	NaN	NaN	NaN	NaN
612.7638944	0.0991	sub-04	1	sequence	stimulus	Stuhl	NaN	NaN	512.0	NaN	NaN	5.0	1.0	NaN	NaN	NaN	NaN	NaN
612.8630091000005	0.5174	sub-04	1	sequence	interval	dot	NaN	NaN	NaN	NaN	NaN	NaN	NaN	NaN	NaN	NaN	NaN	NaN
613.3803845000002	0.1	sub-04	1	sequence	stimulus	Haus	NaN	NaN	512.0	NaN	NaN	2.0	2.0	NaN	NaN	NaN	NaN	NaN
613.4803365000007	0.517	sub-04	1	sequence	interval	dot	NaN	NaN	NaN	NaN	NaN	NaN	NaN	NaN	NaN	NaN	NaN	NaN
613.9973775000008	0.0999	sub-04	1	sequence	stimulus	Katze	NaN	NaN	512.0	NaN	NaN	3.0	3.0	NaN	NaN	NaN	NaN	NaN
614.0973255000008	0.5173	sub-04	1	sequence	interval	dot	NaN	NaN	NaN	NaN	NaN	NaN	NaN	NaN	NaN	NaN	NaN	NaN
614.6146173000006	0.0999	sub-04	1	sequence	stimulus	Gesicht	NaN	NaN	512.0	NaN	NaN	1.0	4.0	NaN	NaN	NaN	NaN	NaN
614.7145372000004	0.5172	sub-04	1	sequence	interval	dot	NaN	NaN	NaN	NaN	NaN	NaN	NaN	NaN	NaN	NaN	NaN	NaN
615.2317532000006	0.0999	sub-04	1	sequence	stimulus	Schuh	NaN	NaN	512.0	NaN	NaN	4.0	5.0	NaN	NaN	NaN	NaN	NaN
615.3316552000006	0.517	sub-04	1	sequence	interval	dot	NaN	NaN	NaN	NaN	NaN	NaN	NaN	NaN	NaN	NaN	NaN	NaN
615.8487033000001	6.1534	sub-04	1	sequence	delay	dot	NaN	NaN	NaN	NaN	NaN	NaN	NaN	NaN	NaN	NaN	NaN	NaN
621.9795239000005	0.7918	sub-04	1	sequence	choice	choice	left	NaN	NaN	-30.52571420000004	True	NaN	NaN	left	True	5.0	2.0	5.0
622.7715770000004	0.4999	sub-04	1	sequence	feedback	NaN	NaN	NaN	NaN	NaN	NaN	NaN	NaN	NaN	NaN	NaN	NaN	NaN
623.2716675000001	1.0005	sub-04	1	sequence	cue	Haus	NaN	NaN	NaN	NaN	NaN	NaN	NaN	NaN	NaN	NaN	NaN	NaN
624.2721312000003	2.0016	sub-04	1	sequence	blank	blank	NaN	NaN	NaN	NaN	NaN	NaN	NaN	NaN	NaN	NaN	NaN	NaN
626.2737850000003	0.3003	sub-04	1	sequence	fixation	dot	NaN	NaN	NaN	NaN	NaN	NaN	NaN	NaN	NaN	NaN	NaN	NaN
626.5917277000008	0.0991	sub-04	1	sequence	stimulus	Schuh	NaN	NaN	32.0	NaN	NaN	4.0	1.0	NaN	NaN	NaN	NaN	NaN
626.6907864000004	0.0335	sub-04	1	sequence	interval	dot	NaN	NaN	NaN	NaN	NaN	NaN	NaN	NaN	NaN	NaN	NaN	NaN
626.7242458000001	0.0999	sub-04	1	sequence	stimulus	Gesicht	NaN	NaN	32.0	NaN	NaN	1.0	2.0	NaN	NaN	NaN	NaN	NaN
626.8241858000001	0.0335	sub-04	1	sequence	interval	dot	NaN	NaN	NaN	NaN	NaN	NaN	NaN	NaN	NaN	NaN	NaN	NaN
626.8576379000006	0.1	sub-04	1	sequence	stimulus	Katze	NaN	NaN	32.0	NaN	NaN	3.0	3.0	NaN	NaN	NaN	NaN	NaN
626.9576183000008	0.0335	sub-04	1	sequence	interval	dot	NaN	NaN	NaN	NaN	NaN	NaN	NaN	NaN	NaN	NaN	NaN	NaN
626.9910827000003	0.1	sub-04	1	sequence	stimulus	Stuhl	NaN	NaN	32.0	NaN	NaN	5.0	4.0	NaN	NaN	NaN	NaN	NaN
627.0910412000003	0.0335	sub-04	1	sequence	interval	dot	NaN	NaN	NaN	NaN	NaN	NaN	NaN	NaN	NaN	NaN	NaN	NaN
627.1245521000001	0.1	sub-04	1	sequence	stimulus	Haus	NaN	NaN	32.0	NaN	NaN	2.0	5.0	NaN	NaN	NaN	NaN	NaN
627.2245026	0.0334	sub-04	1	sequence	interval	dot	NaN	NaN	NaN	NaN	NaN	NaN	NaN	NaN	NaN	NaN	NaN	NaN
627.2578779000005	8.5218	sub-04	1	sequence	delay	dot	NaN	NaN	NaN	NaN	NaN	NaN	NaN	NaN	NaN	NaN	NaN	NaN
635.7593120000001	0.8567	sub-04	1	sequence	choice	choice	left	NaN	NaN	-30.45497329999944	True	NaN	NaN	left	True	5.0	3.0	5.0
636.6162296000002	0.4997	sub-04	1	sequence	feedback	NaN	NaN	NaN	NaN	NaN	NaN	NaN	NaN	NaN	NaN	NaN	NaN	NaN
637.1160522	1.0005	sub-04	1	sequence	cue	Stuhl	NaN	NaN	NaN	NaN	NaN	NaN	NaN	NaN	NaN	NaN	NaN	NaN
638.1166049000003	2.0016	sub-04	1	sequence	blank	blank	NaN	NaN	NaN	NaN	NaN	NaN	NaN	NaN	NaN	NaN	NaN	NaN
640.1181934000006	0.3003	sub-04	1	sequence	fixation	dot	NaN	NaN	NaN	NaN	NaN	NaN	NaN	NaN	NaN	NaN	NaN	NaN
640.4367901000005	0.1154	sub-04	1	sequence	stimulus	Schuh	NaN	NaN	128.0	NaN	NaN	4.0	1.0	NaN	NaN	NaN	NaN	NaN
640.552189	0.1332	sub-04	1	sequence	interval	dot	NaN	NaN	NaN	NaN	NaN	NaN	NaN	NaN	NaN	NaN	NaN	NaN
640.6854078000006	0.1	sub-04	1	sequence	stimulus	Haus	NaN	NaN	128.0	NaN	NaN	2.0	2.0	NaN	NaN	NaN	NaN	NaN
640.7853821000008	0.1335	sub-04	1	sequence	interval	dot	NaN	NaN	NaN	NaN	NaN	NaN	NaN	NaN	NaN	NaN	NaN	NaN
640.9189202000007	0.1	sub-04	1	sequence	stimulus	Stuhl	NaN	NaN	128.0	NaN	NaN	5.0	3.0	NaN	NaN	NaN	NaN	NaN
641.0188760000001	0.1336	sub-04	1	sequence	interval	dot	NaN	NaN	NaN	NaN	NaN	NaN	NaN	NaN	NaN	NaN	NaN	NaN
641.1524656000001	0.0999	sub-04	1	sequence	stimulus	Katze	NaN	NaN	128.0	NaN	NaN	3.0	4.0	NaN	NaN	NaN	NaN	NaN
641.2523929000008	0.1336	sub-04	1	sequence	interval	dot	NaN	NaN	NaN	NaN	NaN	NaN	NaN	NaN	NaN	NaN	NaN	NaN
641.3859554000001	0.1	sub-04	1	sequence	stimulus	Gesicht	NaN	NaN	128.0	NaN	NaN	1.0	5.0	NaN	NaN	NaN	NaN	NaN
641.4859259000004	0.1334	sub-04	1	sequence	interval	dot	NaN	NaN	NaN	NaN	NaN	NaN	NaN	NaN	NaN	NaN	NaN	NaN
641.6193739	8.0719	sub-04	1	sequence	delay	dot	NaN	NaN	NaN	NaN	NaN	NaN	NaN	NaN	NaN	NaN	NaN	NaN
649.6690551000002	0.8083	sub-04	1	sequence	choice	choice	right	NaN	NaN	-30.494673400000465	True	NaN	NaN	right	True	4.0	3.0	3.0
650.4775910000008	0.4998	sub-04	1	sequence	feedback	NaN	NaN	NaN	NaN	NaN	NaN	NaN	NaN	NaN	NaN	NaN	NaN	NaN
654.7976823000008	0.4995	sub-04	1	localizer	stimulus	Gesicht	NaN	180	1.884589799999958	-30.48090359999969	True	NaN	NaN	NaN	NaN	NaN	NaN	NaN
655.2807000000003	1.8846	sub-04	1	localizer	blank	interval	NaN	NaN	NaN	NaN	NaN	NaN	NaN	NaN	NaN	NaN	NaN	NaN
657.4664567	0.4995	sub-04	1	localizer	stimulus	Gesicht	NaN	0	3.8697829000002457	NaN	True	NaN	NaN	NaN	NaN	NaN	NaN	NaN
657.9494455000004	3.8698	sub-04	1	localizer	blank	interval	NaN	NaN	NaN	NaN	NaN	NaN	NaN	NaN	NaN	NaN	NaN	NaN
662.1205010000003	0.4993	sub-04	1	localizer	stimulus	Haus	NaN	180	1.2518759000004138	-30.57918339999924	True	NaN	NaN	NaN	NaN	NaN	NaN	NaN
662.6033992000002	1.2519	sub-04	1	localizer	blank	interval	NaN	NaN	NaN	NaN	NaN	NaN	NaN	NaN	NaN	NaN	NaN	NaN
664.1718868000007	0.4996	sub-04	1	localizer	stimulus	Haus	NaN	0	1.8846651000003476	NaN	True	NaN	NaN	NaN	NaN	NaN	NaN	NaN
664.6382271000002	1.8847	sub-04	1	localizer	blank	interval	NaN	NaN	NaN	NaN	NaN	NaN	NaN	NaN	NaN	NaN	NaN	NaN
666.8242732000008	0.4994	sub-04	1	localizer	stimulus	Gesicht	NaN	0	2.985637400000087	NaN	True	NaN	NaN	NaN	NaN	NaN	NaN	NaN
667.3071796000004	2.9856	sub-04	1	localizer	blank	interval	NaN	NaN	NaN	NaN	NaN	NaN	NaN	NaN	NaN	NaN	NaN	NaN
670.5941470000007	0.4992	sub-04	1	localizer	stimulus	Schuh	NaN	0	2.201700699999492	NaN	True	NaN	NaN	NaN	NaN	NaN	NaN	NaN
671.0767686000008	2.2017	sub-04	1	localizer	blank	interval	NaN	NaN	NaN	NaN	NaN	NaN	NaN	NaN	NaN	NaN	NaN	NaN
673.5797002000008	0.4996	sub-04	1	localizer	stimulus	Schuh	NaN	0	2.417761900000187	NaN	True	NaN	NaN	NaN	NaN	NaN	NaN	NaN
674.0632972000003	2.4178	sub-04	1	localizer	blank	interval	NaN	NaN	NaN	NaN	NaN	NaN	NaN	NaN	NaN	NaN	NaN	NaN
676.7821517000002	0.4996	sub-04	1	localizer	stimulus	Gesicht	NaN	0	1.8012964999998076	NaN	True	NaN	NaN	NaN	NaN	NaN	NaN	NaN
677.2650531000008	1.8013	sub-04	1	localizer	blank	interval	NaN	NaN	NaN	NaN	NaN	NaN	NaN	NaN	NaN	NaN	NaN	NaN
679.3675583000004	0.4995	sub-04	1	localizer	stimulus	Katze	NaN	0	2.2682635999999547	NaN	True	NaN	NaN	NaN	NaN	NaN	NaN	NaN
679.8505978000003	2.2683	sub-04	1	localizer	blank	interval	NaN	NaN	NaN	NaN	NaN	NaN	NaN	NaN	NaN	NaN	NaN	NaN
682.4199928000007	0.4995	sub-04	1	localizer	stimulus	Stuhl	NaN	0	1.450971500000378	NaN	True	NaN	NaN	NaN	NaN	NaN	NaN	NaN
682.9030220000004	1.451	sub-04	1	localizer	blank	interval	NaN	NaN	NaN	NaN	NaN	NaN	NaN	NaN	NaN	NaN	NaN	NaN
684.6550969	0.4996	sub-04	1	localizer	stimulus	Katze	NaN	180	3.2525564999996277	-30.48998240000037	True	NaN	NaN	NaN	NaN	NaN	NaN	NaN
685.1381244000004	3.2526	sub-04	1	localizer	blank	interval	NaN	NaN	NaN	NaN	NaN	NaN	NaN	NaN	NaN	NaN	NaN	NaN
688.6918747	0.4995	sub-04	1	localizer	stimulus	Katze	NaN	0	2.068603400000029	NaN	True	NaN	NaN	NaN	NaN	NaN	NaN	NaN
689.1748223000004	2.0686	sub-04	1	localizer	blank	interval	NaN	NaN	NaN	NaN	NaN	NaN	NaN	NaN	NaN	NaN	NaN	NaN
691.5444272000004	0.4994	sub-04	1	localizer	stimulus	Schuh	NaN	0	2.8351588000004995	NaN	True	NaN	NaN	NaN	NaN	NaN	NaN	NaN
692.0273281	2.8352	sub-04	1	localizer	blank	interval	NaN	NaN	NaN	NaN	NaN	NaN	NaN	NaN	NaN	NaN	NaN	NaN
695.1637816000002	0.4993	sub-04	1	localizer	stimulus	Haus	NaN	0	3.3358167999995203	NaN	True	NaN	NaN	NaN	NaN	NaN	NaN	NaN
695.6466900000005	3.3358	sub-04	1	localizer	blank	interval	NaN	NaN	NaN	NaN	NaN	NaN	NaN	NaN	NaN	NaN	NaN	NaN
699.2836449000006	0.4995	sub-04	1	localizer	stimulus	Stuhl	NaN	0	2.16834899999958	NaN	True	NaN	NaN	NaN	NaN	NaN	NaN	NaN
699.7665584000006	2.1683	sub-04	1	localizer	blank	interval	NaN	NaN	NaN	NaN	NaN	NaN	NaN	NaN	NaN	NaN	NaN	NaN
702.2360398000001	0.4995	sub-04	1	localizer	stimulus	Gesicht	NaN	0	3.3026190000000497	NaN	True	NaN	NaN	NaN	NaN	NaN	NaN	NaN
702.7190316000006	3.3026	sub-04	1	localizer	blank	interval	NaN	NaN	NaN	NaN	NaN	NaN	NaN	NaN	NaN	NaN	NaN	NaN
706.3228194000003	0.4995	sub-04	1	localizer	stimulus	Stuhl	NaN	180	2.7687890999995943	-30.566435800000363	True	NaN	NaN	NaN	NaN	NaN	NaN	NaN
706.8057365000004	2.7688	sub-04	1	localizer	blank	interval	NaN	NaN	NaN	NaN	NaN	NaN	NaN	NaN	NaN	NaN	NaN	NaN
709.8756477000006	0.4995	sub-04	1	localizer	stimulus	Stuhl	NaN	0	2.802049099999749	NaN	True	NaN	NaN	NaN	NaN	NaN	NaN	NaN
710.3586896000006	2.802	sub-04	1	localizer	blank	interval	NaN	NaN	NaN	NaN	NaN	NaN	NaN	NaN	NaN	NaN	NaN	NaN
713.4618945000002	0.4995	sub-04	1	localizer	stimulus	Schuh	NaN	180	2.601827200000116	-30.648704799999905	True	NaN	NaN	NaN	NaN	NaN	NaN	NaN
713.9448637000005	2.6018	sub-04	1	localizer	blank	interval	NaN	NaN	NaN	NaN	NaN	NaN	NaN	NaN	NaN	NaN	NaN	NaN
716.8478877000007	0.4995	sub-04	1	localizer	stimulus	Katze	NaN	0	2.251589800000147	NaN	True	NaN	NaN	NaN	NaN	NaN	NaN	NaN
717.3308577000007	2.2516	sub-04	1	localizer	blank	interval	NaN	NaN	NaN	NaN	NaN	NaN	NaN	NaN	NaN	NaN	NaN	NaN
719.8836718000002	0.4995	sub-04	1	localizer	stimulus	Haus	NaN	0	2.385070500000438	NaN	True	NaN	NaN	NaN	NaN	NaN	NaN	NaN
720.366739	2.3851	sub-04	1	localizer	blank	interval	NaN	NaN	NaN	NaN	NaN	NaN	NaN	NaN	NaN	NaN	NaN	NaN
723.0528463	0.4995	sub-04	1	localizer	stimulus	Schuh	NaN	0	1.968056799999431	NaN	True	NaN	NaN	NaN	NaN	NaN	NaN	NaN
723.5359092000008	1.9681	sub-04	1	localizer	blank	interval	NaN	NaN	NaN	NaN	NaN	NaN	NaN	NaN	NaN	NaN	NaN	NaN
725.8051680000008	0.4996	sub-04	1	localizer	stimulus	Stuhl	NaN	0	3.1190546999996513	NaN	True	NaN	NaN	NaN	NaN	NaN	NaN	NaN
726.2881751000004	3.1191	sub-04	1	localizer	blank	interval	NaN	NaN	NaN	NaN	NaN	NaN	NaN	NaN	NaN	NaN	NaN	NaN
729.7084739000002	0.4995	sub-04	1	localizer	stimulus	Haus	NaN	0	2.0683398999999554	NaN	True	NaN	NaN	NaN	NaN	NaN	NaN	NaN
730.1913481000001	2.0683	sub-04	1	localizer	blank	interval	NaN	NaN	NaN	NaN	NaN	NaN	NaN	NaN	NaN	NaN	NaN	NaN
732.5606976000008	0.4998	sub-04	1	localizer	stimulus	Katze	NaN	0	1.95127119999961	NaN	True	NaN	NaN	NaN	NaN	NaN	NaN	NaN
733.0439264000006	1.9513	sub-04	1	localizer	blank	interval	NaN	NaN	NaN	NaN	NaN	NaN	NaN	NaN	NaN	NaN	NaN	NaN
738.4815607	1.0005	sub-04	1	sequence	cue	Katze	NaN	NaN	NaN	NaN	NaN	NaN	NaN	NaN	NaN	NaN	NaN	NaN
739.4821139000005	2.0017	sub-04	1	sequence	blank	blank	NaN	NaN	NaN	NaN	NaN	NaN	NaN	NaN	NaN	NaN	NaN	NaN
741.4838039000006	0.3001	sub-04	1	sequence	fixation	dot	NaN	NaN	NaN	NaN	NaN	NaN	NaN	NaN	NaN	NaN	NaN	NaN
741.8021298000003	0.1151	sub-04	1	sequence	stimulus	Schuh	NaN	NaN	32.0	NaN	NaN	4.0	1.0	NaN	NaN	NaN	NaN	NaN
741.9172710000003	0.0336	sub-04	1	sequence	interval	dot	NaN	NaN	NaN	NaN	NaN	NaN	NaN	NaN	NaN	NaN	NaN	NaN
741.9508716	0.1	sub-04	1	sequence	stimulus	Gesicht	NaN	NaN	32.0	NaN	NaN	1.0	2.0	NaN	NaN	NaN	NaN	NaN
742.0509199000007	0.0334	sub-04	1	sequence	interval	dot	NaN	NaN	NaN	NaN	NaN	NaN	NaN	NaN	NaN	NaN	NaN	NaN
742.0842715000008	0.1	sub-04	1	sequence	stimulus	Katze	NaN	NaN	32.0	NaN	NaN	3.0	3.0	NaN	NaN	NaN	NaN	NaN
742.1843097000001	0.0334	sub-04	1	sequence	interval	dot	NaN	NaN	NaN	NaN	NaN	NaN	NaN	NaN	NaN	NaN	NaN	NaN
742.2176925000003	0.1	sub-04	1	sequence	stimulus	Stuhl	NaN	NaN	32.0	NaN	NaN	5.0	4.0	NaN	NaN	NaN	NaN	NaN
742.3177110000006	0.0335	sub-04	1	sequence	interval	dot	NaN	NaN	NaN	NaN	NaN	NaN	NaN	NaN	NaN	NaN	NaN	NaN
742.3512091000002	0.1	sub-04	1	sequence	stimulus	Haus	NaN	NaN	32.0	NaN	NaN	2.0	5.0	NaN	NaN	NaN	NaN	NaN
742.4511857000007	0.0333	sub-04	1	sequence	interval	dot	NaN	NaN	NaN	NaN	NaN	NaN	NaN	NaN	NaN	NaN	NaN	NaN
742.4844664000002	8.522	sub-04	1	sequence	delay	dot	NaN	NaN	NaN	NaN	NaN	NaN	NaN	NaN	NaN	NaN	NaN	NaN
750.9889878000004	0.9371	sub-04	1	sequence	choice	choice	left	NaN	NaN	-30.361421200000223	True	NaN	NaN	left	True	3.0	4.0	3.0
751.9265100000002	0.4998	sub-04	1	sequence	feedback	NaN	NaN	NaN	NaN	NaN	NaN	NaN	NaN	NaN	NaN	NaN	NaN	NaN
752.4265709000001	1.0002	sub-04	1	sequence	cue	Schuh	NaN	NaN	NaN	NaN	NaN	NaN	NaN	NaN	NaN	NaN	NaN	NaN
753.4268271000001	2.0015	sub-04	1	sequence	blank	blank	NaN	NaN	NaN	NaN	NaN	NaN	NaN	NaN	NaN	NaN	NaN	NaN
755.4283329	0.3002	sub-04	1	sequence	fixation	dot	NaN	NaN	NaN	NaN	NaN	NaN	NaN	NaN	NaN	NaN	NaN	NaN
755.7461954	0.099	sub-04	1	sequence	stimulus	Haus	NaN	NaN	64.0	NaN	NaN	2.0	1.0	NaN	NaN	NaN	NaN	NaN
755.8452184000007	0.0669	sub-04	1	sequence	interval	dot	NaN	NaN	NaN	NaN	NaN	NaN	NaN	NaN	NaN	NaN	NaN	NaN
755.9120944000006	0.0999	sub-04	1	sequence	stimulus	Gesicht	NaN	NaN	64.0	NaN	NaN	1.0	2.0	NaN	NaN	NaN	NaN	NaN
756.0119654	0.0669	sub-04	1	sequence	interval	dot	NaN	NaN	NaN	NaN	NaN	NaN	NaN	NaN	NaN	NaN	NaN	NaN
756.0788273000007	0.1001	sub-04	1	sequence	stimulus	Katze	NaN	NaN	64.0	NaN	NaN	3.0	3.0	NaN	NaN	NaN	NaN	NaN
756.1789098000008	0.0668	sub-04	1	sequence	interval	dot	NaN	NaN	NaN	NaN	NaN	NaN	NaN	NaN	NaN	NaN	NaN	NaN
756.2456750000001	0.0999	sub-04	1	sequence	stimulus	Stuhl	NaN	NaN	64.0	NaN	NaN	5.0	4.0	NaN	NaN	NaN	NaN	NaN
756.3455335000008	0.0669	sub-04	1	sequence	interval	dot	NaN	NaN	NaN	NaN	NaN	NaN	NaN	NaN	NaN	NaN	NaN	NaN
756.4124161	0.1	sub-04	1	sequence	stimulus	Schuh	NaN	NaN	64.0	NaN	NaN	4.0	5.0	NaN	NaN	NaN	NaN	NaN
756.5124426000002	0.0667	sub-04	1	sequence	interval	dot	NaN	NaN	NaN	NaN	NaN	NaN	NaN	NaN	NaN	NaN	NaN	NaN
756.5791348000002	8.3886	sub-04	1	sequence	delay	dot	NaN	NaN	NaN	NaN	NaN	NaN	NaN	NaN	NaN	NaN	NaN	NaN
764.9506745000008	0.8365	sub-04	1	sequence	choice	choice	right	NaN	NaN	-30.4669600999996	True	NaN	NaN	right	True	4.0	5.0	5.0
765.7874209000001	0.4999	sub-04	1	sequence	feedback	NaN	NaN	NaN	NaN	NaN	NaN	NaN	NaN	NaN	NaN	NaN	NaN	NaN
766.2875444000001	1.0003	sub-04	1	sequence	cue	Gesicht	NaN	NaN	NaN	NaN	NaN	NaN	NaN	NaN	NaN	NaN	NaN	NaN
767.2878698000004	2.0017	sub-04	1	sequence	blank	blank	NaN	NaN	NaN	NaN	NaN	NaN	NaN	NaN	NaN	NaN	NaN	NaN
769.2895370000006	0.3002	sub-04	1	sequence	fixation	dot	NaN	NaN	NaN	NaN	NaN	NaN	NaN	NaN	NaN	NaN	NaN	NaN
769.6075300000002	0.0991	sub-04	1	sequence	stimulus	Schuh	NaN	NaN	128.0	NaN	NaN	4.0	1.0	NaN	NaN	NaN	NaN	NaN
769.7066608000005	0.1334	sub-04	1	sequence	interval	dot	NaN	NaN	NaN	NaN	NaN	NaN	NaN	NaN	NaN	NaN	NaN	NaN
769.8400459000004	0.0999	sub-04	1	sequence	stimulus	Haus	NaN	NaN	128.0	NaN	NaN	2.0	2.0	NaN	NaN	NaN	NaN	NaN
769.9399555	0.1337	sub-04	1	sequence	interval	dot	NaN	NaN	NaN	NaN	NaN	NaN	NaN	NaN	NaN	NaN	NaN	NaN
770.0736574000002	0.0998	sub-04	1	sequence	stimulus	Stuhl	NaN	NaN	128.0	NaN	NaN	5.0	3.0	NaN	NaN	NaN	NaN	NaN
770.1734835000007	0.1336	sub-04	1	sequence	interval	dot	NaN	NaN	NaN	NaN	NaN	NaN	NaN	NaN	NaN	NaN	NaN	NaN
770.3070593000002	0.1	sub-04	1	sequence	stimulus	Gesicht	NaN	NaN	128.0	NaN	NaN	1.0	4.0	NaN	NaN	NaN	NaN	NaN
770.4071076	0.1336	sub-04	1	sequence	interval	dot	NaN	NaN	NaN	NaN	NaN	NaN	NaN	NaN	NaN	NaN	NaN	NaN
770.5406774000003	0.0999	sub-04	1	sequence	stimulus	Katze	NaN	NaN	128.0	NaN	NaN	3.0	5.0	NaN	NaN	NaN	NaN	NaN
770.6405515000006	0.1336	sub-04	1	sequence	interval	dot	NaN	NaN	NaN	NaN	NaN	NaN	NaN	NaN	NaN	NaN	NaN	NaN
770.7741249000001	8.0548	sub-04	1	sequence	delay	dot	NaN	NaN	NaN	NaN	NaN	NaN	NaN	NaN	NaN	NaN	NaN	NaN
778.8083995000006	1.0568	sub-04	1	sequence	choice	choice	left	NaN	NaN	-30.247861799999555	True	NaN	NaN	left	True	4.0	5.0	4.0
779.8654882000001	0.5	sub-04	1	sequence	feedback	NaN	NaN	NaN	NaN	NaN	NaN	NaN	NaN	NaN	NaN	NaN	NaN	NaN
780.3656456000008	1.0004	sub-04	1	sequence	cue	Schuh	NaN	NaN	NaN	NaN	NaN	NaN	NaN	NaN	NaN	NaN	NaN	NaN
781.3660021000005	2.0016	sub-04	1	sequence	blank	blank	NaN	NaN	NaN	NaN	NaN	NaN	NaN	NaN	NaN	NaN	NaN	NaN
783.3676075000003	0.3001	sub-04	1	sequence	fixation	dot	NaN	NaN	NaN	NaN	NaN	NaN	NaN	NaN	NaN	NaN	NaN	NaN
783.6860994000008	0.1151	sub-04	1	sequence	stimulus	Haus	NaN	NaN	64.0	NaN	NaN	2.0	1.0	NaN	NaN	NaN	NaN	NaN
783.8011974000001	0.0669	sub-04	1	sequence	interval	dot	NaN	NaN	NaN	NaN	NaN	NaN	NaN	NaN	NaN	NaN	NaN	NaN
783.8680970000005	0.1	sub-04	1	sequence	stimulus	Katze	NaN	NaN	64.0	NaN	NaN	3.0	2.0	NaN	NaN	NaN	NaN	NaN
783.9680674000001	0.0668	sub-04	1	sequence	interval	dot	NaN	NaN	NaN	NaN	NaN	NaN	NaN	NaN	NaN	NaN	NaN	NaN
784.0348839000008	0.0999	sub-04	1	sequence	stimulus	Schuh	NaN	NaN	64.0	NaN	NaN	4.0	3.0	NaN	NaN	NaN	NaN	NaN
784.1347682000005	0.0669	sub-04	1	sequence	interval	dot	NaN	NaN	NaN	NaN	NaN	NaN	NaN	NaN	NaN	NaN	NaN	NaN
784.2016612000007	0.1	sub-04	1	sequence	stimulus	Gesicht	NaN	NaN	64.0	NaN	NaN	1.0	4.0	NaN	NaN	NaN	NaN	NaN
784.3016749000008	0.0668	sub-04	1	sequence	interval	dot	NaN	NaN	NaN	NaN	NaN	NaN	NaN	NaN	NaN	NaN	NaN	NaN
784.3684962000007	0.1	sub-04	1	sequence	stimulus	Stuhl	NaN	NaN	64.0	NaN	NaN	5.0	5.0	NaN	NaN	NaN	NaN	NaN
784.4684807000003	0.0666	sub-04	1	sequence	interval	dot	NaN	NaN	NaN	NaN	NaN	NaN	NaN	NaN	NaN	NaN	NaN	NaN
784.5350702000005	8.3887	sub-04	1	sequence	delay	dot	NaN	NaN	NaN	NaN	NaN	NaN	NaN	NaN	NaN	NaN	NaN	NaN
792.9001356000008	1.3436	sub-04	1	sequence	choice	choice	right	NaN	NaN	-29.97509360000004	True	NaN	NaN	right	True	2.0	3.0	3.0
794.2439673000008	0.4999	sub-04	1	sequence	feedback	NaN	NaN	NaN	NaN	NaN	NaN	NaN	NaN	NaN	NaN	NaN	NaN	NaN
794.7440747	1.0004	sub-04	1	sequence	cue	Gesicht	NaN	NaN	NaN	NaN	NaN	NaN	NaN	NaN	NaN	NaN	NaN	NaN
795.7444811000005	2.0013	sub-04	1	sequence	blank	blank	NaN	NaN	NaN	NaN	NaN	NaN	NaN	NaN	NaN	NaN	NaN	NaN
797.7457801	0.3003	sub-04	1	sequence	fixation	dot	NaN	NaN	NaN	NaN	NaN	NaN	NaN	NaN	NaN	NaN	NaN	NaN
798.0634809000003	0.0993	sub-04	1	sequence	stimulus	Stuhl	NaN	NaN	512.0	NaN	NaN	5.0	1.0	NaN	NaN	NaN	NaN	NaN
798.1627561000005	0.5172	sub-04	1	sequence	interval	dot	NaN	NaN	NaN	NaN	NaN	NaN	NaN	NaN	NaN	NaN	NaN	NaN
798.6799625000003	0.1	sub-04	1	sequence	stimulus	Haus	NaN	NaN	512.0	NaN	NaN	2.0	2.0	NaN	NaN	NaN	NaN	NaN
798.7799144	0.5172	sub-04	1	sequence	interval	dot	NaN	NaN	NaN	NaN	NaN	NaN	NaN	NaN	NaN	NaN	NaN	NaN
799.2971351000006	0.0999	sub-04	1	sequence	stimulus	Katze	NaN	NaN	512.0	NaN	NaN	3.0	3.0	NaN	NaN	NaN	NaN	NaN
799.3970356	0.5172	sub-04	1	sequence	interval	dot	NaN	NaN	NaN	NaN	NaN	NaN	NaN	NaN	NaN	NaN	NaN	NaN
799.9142768000002	0.1	sub-04	1	sequence	stimulus	Gesicht	NaN	NaN	512.0	NaN	NaN	1.0	4.0	NaN	NaN	NaN	NaN	NaN
800.0142403	0.5172	sub-04	1	sequence	interval	dot	NaN	NaN	NaN	NaN	NaN	NaN	NaN	NaN	NaN	NaN	NaN	NaN
800.5314361000001	0.1001	sub-04	1	sequence	stimulus	Schuh	NaN	NaN	512.0	NaN	NaN	4.0	5.0	NaN	NaN	NaN	NaN	NaN
800.6314974000006	0.517	sub-04	1	sequence	interval	dot	NaN	NaN	NaN	NaN	NaN	NaN	NaN	NaN	NaN	NaN	NaN	NaN
801.1484803000003	6.1536	sub-04	1	sequence	delay	dot	NaN	NaN	NaN	NaN	NaN	NaN	NaN	NaN	NaN	NaN	NaN	NaN
807.2777701000005	1.0106	sub-04	1	sequence	choice	choice	right	NaN	NaN	-30.30523630000061	True	NaN	NaN	right	True	5.0	4.0	4.0
808.2886316000004	0.4996	sub-04	1	sequence	feedback	NaN	NaN	NaN	NaN	NaN	NaN	NaN	NaN	NaN	NaN	NaN	NaN	NaN
808.7884673000008	1.0005	sub-04	1	sequence	cue	Schuh	NaN	NaN	NaN	NaN	NaN	NaN	NaN	NaN	NaN	NaN	NaN	NaN
809.7889348000008	2.0016	sub-04	1	sequence	blank	blank	NaN	NaN	NaN	NaN	NaN	NaN	NaN	NaN	NaN	NaN	NaN	NaN
811.7905409000005	0.3002	sub-04	1	sequence	fixation	dot	NaN	NaN	NaN	NaN	NaN	NaN	NaN	NaN	NaN	NaN	NaN	NaN
812.1085057	0.1156	sub-04	1	sequence	stimulus	Gesicht	NaN	NaN	32.0	NaN	NaN	1.0	1.0	NaN	NaN	NaN	NaN	NaN
812.2241247000002	0.0335	sub-04	1	sequence	interval	dot	NaN	NaN	NaN	NaN	NaN	NaN	NaN	NaN	NaN	NaN	NaN	NaN
812.2576686000002	0.1	sub-04	1	sequence	stimulus	Stuhl	NaN	NaN	32.0	NaN	NaN	5.0	2.0	NaN	NaN	NaN	NaN	NaN
812.3577018000005	0.0333	sub-04	1	sequence	interval	dot	NaN	NaN	NaN	NaN	NaN	NaN	NaN	NaN	NaN	NaN	NaN	NaN
812.3910142000004	0.1001	sub-04	1	sequence	stimulus	Haus	NaN	NaN	32.0	NaN	NaN	2.0	3.0	NaN	NaN	NaN	NaN	NaN
812.4911301000002	0.0336	sub-04	1	sequence	interval	dot	NaN	NaN	NaN	NaN	NaN	NaN	NaN	NaN	NaN	NaN	NaN	NaN
812.5246864000001	0.0998	sub-04	1	sequence	stimulus	Katze	NaN	NaN	32.0	NaN	NaN	3.0	4.0	NaN	NaN	NaN	NaN	NaN
812.6245064000004	0.0335	sub-04	1	sequence	interval	dot	NaN	NaN	NaN	NaN	NaN	NaN	NaN	NaN	NaN	NaN	NaN	NaN
812.6580195000006	0.1001	sub-04	1	sequence	stimulus	Schuh	NaN	NaN	32.0	NaN	NaN	4.0	5.0	NaN	NaN	NaN	NaN	NaN
812.7581049	0.0333	sub-04	1	sequence	interval	dot	NaN	NaN	NaN	NaN	NaN	NaN	NaN	NaN	NaN	NaN	NaN	NaN
812.7914158000003	8.5385	sub-04	1	sequence	delay	dot	NaN	NaN	NaN	NaN	NaN	NaN	NaN	NaN	NaN	NaN	NaN	NaN
821.3175588000004	0.7652	sub-04	1	sequence	choice	choice	left	NaN	NaN	-30.533347499999763	True	NaN	NaN	left	True	5.0	1.0	5.0
822.0830567000003	0.4998	sub-04	1	sequence	feedback	NaN	NaN	NaN	NaN	NaN	NaN	NaN	NaN	NaN	NaN	NaN	NaN	NaN
822.5831206000003	1.0002	sub-04	1	sequence	cue	Katze	NaN	NaN	NaN	NaN	NaN	NaN	NaN	NaN	NaN	NaN	NaN	NaN
823.5833431000001	2.0017	sub-04	1	sequence	blank	blank	NaN	NaN	NaN	NaN	NaN	NaN	NaN	NaN	NaN	NaN	NaN	NaN
825.5850768	0.3002	sub-04	1	sequence	fixation	dot	NaN	NaN	NaN	NaN	NaN	NaN	NaN	NaN	NaN	NaN	NaN	NaN
825.9037693	0.1148	sub-04	1	sequence	stimulus	Schuh	NaN	NaN	128.0	NaN	NaN	4.0	1.0	NaN	NaN	NaN	NaN	NaN
826.0185872000002	0.1336	sub-04	1	sequence	interval	dot	NaN	NaN	NaN	NaN	NaN	NaN	NaN	NaN	NaN	NaN	NaN	NaN
826.1522159000006	0.1	sub-04	1	sequence	stimulus	Haus	NaN	NaN	128.0	NaN	NaN	2.0	2.0	NaN	NaN	NaN	NaN	NaN
826.2521992000002	0.1336	sub-04	1	sequence	interval	dot	NaN	NaN	NaN	NaN	NaN	NaN	NaN	NaN	NaN	NaN	NaN	NaN
826.3857913000002	0.0999	sub-04	1	sequence	stimulus	Stuhl	NaN	NaN	128.0	NaN	NaN	5.0	3.0	NaN	NaN	NaN	NaN	NaN
826.4856518000006	0.1335	sub-04	1	sequence	interval	dot	NaN	NaN	NaN	NaN	NaN	NaN	NaN	NaN	NaN	NaN	NaN	NaN
826.6191771000003	0.1001	sub-04	1	sequence	stimulus	Katze	NaN	NaN	128.0	NaN	NaN	3.0	4.0	NaN	NaN	NaN	NaN	NaN
826.7192305000008	0.1336	sub-04	1	sequence	interval	dot	NaN	NaN	NaN	NaN	NaN	NaN	NaN	NaN	NaN	NaN	NaN	NaN
826.8528732000004	0.0999	sub-04	1	sequence	stimulus	Gesicht	NaN	NaN	128.0	NaN	NaN	1.0	5.0	NaN	NaN	NaN	NaN	NaN
826.9527234000007	0.1334	sub-04	1	sequence	interval	dot	NaN	NaN	NaN	NaN	NaN	NaN	NaN	NaN	NaN	NaN	NaN	NaN
827.0861698000008	8.0552	sub-04	1	sequence	delay	dot	NaN	NaN	NaN	NaN	NaN	NaN	NaN	NaN	NaN	NaN	NaN	NaN
835.1232489000004	1.1379	sub-04	1	sequence	choice	choice	left	NaN	NaN	-30.161101200000303	True	NaN	NaN	left	True	4.0	1.0	4.0
836.2614536000001	0.4997	sub-04	1	sequence	feedback	NaN	NaN	NaN	NaN	NaN	NaN	NaN	NaN	NaN	NaN	NaN	NaN	NaN
836.7612548000006	1.0004	sub-04	1	sequence	cue	Schuh	NaN	NaN	NaN	NaN	NaN	NaN	NaN	NaN	NaN	NaN	NaN	NaN
837.7616974000002	2.0013	sub-04	1	sequence	blank	blank	NaN	NaN	NaN	NaN	NaN	NaN	NaN	NaN	NaN	NaN	NaN	NaN
839.7630515000001	0.3003	sub-04	1	sequence	fixation	dot	NaN	NaN	NaN	NaN	NaN	NaN	NaN	NaN	NaN	NaN	NaN	NaN
840.0809760000002	0.0993	sub-04	1	sequence	stimulus	Haus	NaN	NaN	512.0	NaN	NaN	2.0	1.0	NaN	NaN	NaN	NaN	NaN
840.1802781000006	0.5171	sub-04	1	sequence	interval	dot	NaN	NaN	NaN	NaN	NaN	NaN	NaN	NaN	NaN	NaN	NaN	NaN
840.6973462000005	0.1	sub-04	1	sequence	stimulus	Stuhl	NaN	NaN	512.0	NaN	NaN	5.0	2.0	NaN	NaN	NaN	NaN	NaN
840.7973595000003	0.5177	sub-04	1	sequence	interval	dot	NaN	NaN	NaN	NaN	NaN	NaN	NaN	NaN	NaN	NaN	NaN	NaN
841.3150377000002	0.0995	sub-04	1	sequence	stimulus	Katze	NaN	NaN	512.0	NaN	NaN	3.0	3.0	NaN	NaN	NaN	NaN	NaN
841.4145622000005	0.5172	sub-04	1	sequence	interval	dot	NaN	NaN	NaN	NaN	NaN	NaN	NaN	NaN	NaN	NaN	NaN	NaN
841.9317241000008	0.1	sub-04	1	sequence	stimulus	Gesicht	NaN	NaN	512.0	NaN	NaN	1.0	4.0	NaN	NaN	NaN	NaN	NaN
842.0316941000001	0.5172	sub-04	1	sequence	interval	dot	NaN	NaN	NaN	NaN	NaN	NaN	NaN	NaN	NaN	NaN	NaN	NaN
842.5488971000004	0.0999	sub-04	1	sequence	stimulus	Schuh	NaN	NaN	512.0	NaN	NaN	4.0	5.0	NaN	NaN	NaN	NaN	NaN
842.6488282	0.517	sub-04	1	sequence	interval	dot	NaN	NaN	NaN	NaN	NaN	NaN	NaN	NaN	NaN	NaN	NaN	NaN
843.1658778000001	6.1535	sub-04	1	sequence	delay	dot	NaN	NaN	NaN	NaN	NaN	NaN	NaN	NaN	NaN	NaN	NaN	NaN
849.2929201000006	1.1961	sub-04	1	sequence	choice	choice	right	NaN	NaN	-30.1229773999994	True	NaN	NaN	right	True	2.0	5.0	5.0
850.4892475000006	0.5	sub-04	1	sequence	feedback	NaN	NaN	NaN	NaN	NaN	NaN	NaN	NaN	NaN	NaN	NaN	NaN	NaN
850.9897446000004	14.7449	sub-04	1	other	break	break	NaN	NaN	NaN	NaN	NaN	NaN	NaN	NaN	NaN	NaN	NaN	NaN
869.5548094000005	0.4995	sub-04	1	localizer	stimulus	Stuhl	NaN	180	3.135979800000314	-30.637680300000284	True	NaN	NaN	NaN	NaN	NaN	NaN	NaN
870.0542973000001	3.136	sub-04	1	localizer	blank	interval	NaN	NaN	NaN	NaN	NaN	NaN	NaN	NaN	NaN	NaN	NaN	NaN
873.4914727000005	0.4995	sub-04	1	localizer	stimulus	Katze	NaN	0	2.8520155000005616	NaN	True	NaN	NaN	NaN	NaN	NaN	NaN	NaN
873.9743896	2.852	sub-04	1	localizer	blank	interval	NaN	NaN	NaN	NaN	NaN	NaN	NaN	NaN	NaN	NaN	NaN	NaN
877.1276424000007	0.4996	sub-04	1	localizer	stimulus	Katze	NaN	0	2.2684734000004028	NaN	True	NaN	NaN	NaN	NaN	NaN	NaN	NaN
877.6105813000004	2.2685	sub-04	1	localizer	blank	interval	NaN	NaN	NaN	NaN	NaN	NaN	NaN	NaN	NaN	NaN	NaN	NaN
880.1802232	0.4993	sub-04	1	localizer	stimulus	Haus	NaN	180	2.818879499999639	-30.38381159999972	True	NaN	NaN	NaN	NaN	NaN	NaN	NaN
880.6629852000005	2.8189	sub-04	1	localizer	blank	interval	NaN	NaN	NaN	NaN	NaN	NaN	NaN	NaN	NaN	NaN	NaN	NaN
883.7829490000004	0.4996	sub-04	1	localizer	stimulus	Katze	NaN	0	2.5019038999998884	NaN	True	NaN	NaN	NaN	NaN	NaN	NaN	NaN
884.2659417000004	2.5019	sub-04	1	localizer	blank	interval	NaN	NaN	NaN	NaN	NaN	NaN	NaN	NaN	NaN	NaN	NaN	NaN
887.0689305000005	0.4996	sub-04	1	localizer	stimulus	Schuh	NaN	0	2.868769499999871	NaN	True	NaN	NaN	NaN	NaN	NaN	NaN	NaN
887.5519566000003	2.8688	sub-04	1	localizer	blank	interval	NaN	NaN	NaN	NaN	NaN	NaN	NaN	NaN	NaN	NaN	NaN	NaN
890.7219916000004	0.4995	sub-04	1	localizer	stimulus	Gesicht	NaN	0	2.4688471999998	NaN	True	NaN	NaN	NaN	NaN	NaN	NaN	NaN
891.2047678000008	2.4688	sub-04	1	localizer	blank	interval	NaN	NaN	NaN	NaN	NaN	NaN	NaN	NaN	NaN	NaN	NaN	NaN
893.9745901000006	0.5001	sub-04	1	localizer	stimulus	Katze	NaN	0	2.601643399999375	NaN	True	NaN	NaN	NaN	NaN	NaN	NaN	NaN
894.4577455000008	2.6016	sub-04	1	localizer	blank	interval	NaN	NaN	NaN	NaN	NaN	NaN	NaN	NaN	NaN	NaN	NaN	NaN
897.3608043000004	0.4995	sub-04	1	localizer	stimulus	Gesicht	NaN	0	3.035718299999644	NaN	True	NaN	NaN	NaN	NaN	NaN	NaN	NaN
897.8436527000003	3.0357	sub-04	1	localizer	blank	interval	NaN	NaN	NaN	NaN	NaN	NaN	NaN	NaN	NaN	NaN	NaN	NaN
901.1805262000008	0.4993	sub-04	1	localizer	stimulus	Haus	NaN	0	3.102302299999792	NaN	True	NaN	NaN	NaN	NaN	NaN	NaN	NaN
901.6633169000006	3.1023	sub-04	1	localizer	blank	interval	NaN	NaN	NaN	NaN	NaN	NaN	NaN	NaN	NaN	NaN	NaN	NaN
905.0667620000004	0.4995	sub-04	1	localizer	stimulus	Gesicht	NaN	180	2.6354050999998435	-30.525183799999468	True	NaN	NaN	NaN	NaN	NaN	NaN	NaN
905.5497050000004	2.6354	sub-04	1	localizer	blank	interval	NaN	NaN	NaN	NaN	NaN	NaN	NaN	NaN	NaN	NaN	NaN	NaN
908.4863019000004	0.4995	sub-04	1	localizer	stimulus	Schuh	NaN	0	2.3517437000000427	NaN	True	NaN	NaN	NaN	NaN	NaN	NaN	NaN
908.9692890000006	2.3517	sub-04	1	localizer	blank	interval	NaN	NaN	NaN	NaN	NaN	NaN	NaN	NaN	NaN	NaN	NaN	NaN
911.6221620000006	0.4995	sub-04	1	localizer	stimulus	Haus	NaN	0	2.552152200000023	NaN	True	NaN	NaN	NaN	NaN	NaN	NaN	NaN
912.1051247000004	2.5522	sub-04	1	localizer	blank	interval	NaN	NaN	NaN	NaN	NaN	NaN	NaN	NaN	NaN	NaN	NaN	NaN
914.9582226000002	0.4995	sub-04	1	localizer	stimulus	Haus	NaN	0	2.134809400000563	NaN	True	NaN	NaN	NaN	NaN	NaN	NaN	NaN
915.4412959	2.1348	sub-04	1	localizer	blank	interval	NaN	NaN	NaN	NaN	NaN	NaN	NaN	NaN	NaN	NaN	NaN	NaN
917.8773638000002	0.4993	sub-04	1	localizer	stimulus	Stuhl	NaN	0	3.1526905000000625	NaN	True	NaN	NaN	NaN	NaN	NaN	NaN	NaN
918.3602099	3.1527	sub-04	1	localizer	blank	interval	NaN	NaN	NaN	NaN	NaN	NaN	NaN	NaN	NaN	NaN	NaN	NaN
921.8139395000009	0.4993	sub-04	1	localizer	stimulus	Gesicht	NaN	0	1.9013693999996804	NaN	True	NaN	NaN	NaN	NaN	NaN	NaN	NaN
922.2967770000004	1.9014	sub-04	1	localizer	blank	interval	NaN	NaN	NaN	NaN	NaN	NaN	NaN	NaN	NaN	NaN	NaN	NaN
924.4991989	0.4995	sub-04	1	localizer	stimulus	Gesicht	NaN	0	2.4685259000007136	NaN	True	NaN	NaN	NaN	NaN	NaN	NaN	NaN
924.9822235	2.4685	sub-04	1	localizer	blank	interval	NaN	NaN	NaN	NaN	NaN	NaN	NaN	NaN	NaN	NaN	NaN	NaN
927.7518315000008	0.4996	sub-04	1	localizer	stimulus	Stuhl	NaN	0	3.4860142000007954	NaN	True	NaN	NaN	NaN	NaN	NaN	NaN	NaN
928.2347958	3.486	sub-04	1	localizer	blank	interval	NaN	NaN	NaN	NaN	NaN	NaN	NaN	NaN	NaN	NaN	NaN	NaN
932.0220701000007	0.4994	sub-04	1	localizer	stimulus	Haus	NaN	0	1.968248600000038	NaN	True	NaN	NaN	NaN	NaN	NaN	NaN	NaN
932.5049181000004	1.9682	sub-04	1	localizer	blank	interval	NaN	NaN	NaN	NaN	NaN	NaN	NaN	NaN	NaN	NaN	NaN	NaN
934.7742674	0.4996	sub-04	1	localizer	stimulus	Schuh	NaN	0	2.535183599999982	NaN	True	NaN	NaN	NaN	NaN	NaN	NaN	NaN
935.2572731	2.5352	sub-04	1	localizer	blank	interval	NaN	NaN	NaN	NaN	NaN	NaN	NaN	NaN	NaN	NaN	NaN	NaN
938.0935462000008	0.4995	sub-04	1	localizer	stimulus	Schuh	NaN	180	2.1684766999995873	-30.59253499999977	True	NaN	NaN	NaN	NaN	NaN	NaN	NaN
938.5764458000004	2.1685	sub-04	1	localizer	blank	interval	NaN	NaN	NaN	NaN	NaN	NaN	NaN	NaN	NaN	NaN	NaN	NaN
941.0459181000006	0.4996	sub-04	1	localizer	stimulus	Stuhl	NaN	0	3.0855152000003727	NaN	True	NaN	NaN	NaN	NaN	NaN	NaN	NaN
941.5290222000004	3.0855	sub-04	1	localizer	blank	interval	NaN	NaN	NaN	NaN	NaN	NaN	NaN	NaN	NaN	NaN	NaN	NaN
944.9157371	0.4996	sub-04	1	localizer	stimulus	Schuh	NaN	0	2.2351087000005236	NaN	True	NaN	NaN	NaN	NaN	NaN	NaN	NaN
945.3986880000002	2.2351	sub-04	1	localizer	blank	interval	NaN	NaN	NaN	NaN	NaN	NaN	NaN	NaN	NaN	NaN	NaN	NaN
947.9348467	0.4994	sub-04	1	localizer	stimulus	Katze	NaN	180	2.451917999999523	-30.55432110000038	True	NaN	NaN	NaN	NaN	NaN	NaN	NaN
948.4177302000008	2.4519	sub-04	1	localizer	blank	interval	NaN	NaN	NaN	NaN	NaN	NaN	NaN	NaN	NaN	NaN	NaN	NaN
951.1708213000002	0.4996	sub-04	1	localizer	stimulus	Stuhl	NaN	0	2.669009200000005	NaN	True	NaN	NaN	NaN	NaN	NaN	NaN	NaN
951.6535900000008	2.669	sub-04	1	localizer	blank	interval	NaN	NaN	NaN	NaN	NaN	NaN	NaN	NaN	NaN	NaN	NaN	NaN
957.8088744000006	1.0006	sub-04	1	sequence	cue	Stuhl	NaN	NaN	NaN	NaN	NaN	NaN	NaN	NaN	NaN	NaN	NaN	NaN
958.8094450000008	2.0016	sub-04	1	sequence	blank	blank	NaN	NaN	NaN	NaN	NaN	NaN	NaN	NaN	NaN	NaN	NaN	NaN
960.8110581	0.3003	sub-04	1	sequence	fixation	dot	NaN	NaN	NaN	NaN	NaN	NaN	NaN	NaN	NaN	NaN	NaN	NaN
961.1289108	0.0997	sub-04	1	sequence	stimulus	Haus	NaN	NaN	64.0	NaN	NaN	2.0	1.0	NaN	NaN	NaN	NaN	NaN
961.2285749000002	0.0693	sub-04	1	sequence	interval	dot	NaN	NaN	NaN	NaN	NaN	NaN	NaN	NaN	NaN	NaN	NaN	NaN
961.2978302	0.114	sub-04	1	sequence	stimulus	Katze	NaN	NaN	64.0	NaN	NaN	3.0	2.0	NaN	NaN	NaN	NaN	NaN
961.4118184000008	0.0668	sub-04	1	sequence	interval	dot	NaN	NaN	NaN	NaN	NaN	NaN	NaN	NaN	NaN	NaN	NaN	NaN
961.4786104000004	0.1	sub-04	1	sequence	stimulus	Schuh	NaN	NaN	64.0	NaN	NaN	4.0	3.0	NaN	NaN	NaN	NaN	NaN
961.5785914000008	0.0668	sub-04	1	sequence	interval	dot	NaN	NaN	NaN	NaN	NaN	NaN	NaN	NaN	NaN	NaN	NaN	NaN
961.6454120000008	0.0999	sub-04	1	sequence	stimulus	Gesicht	NaN	NaN	64.0	NaN	NaN	1.0	4.0	NaN	NaN	NaN	NaN	NaN
961.7453530000004	0.0668	sub-04	1	sequence	interval	dot	NaN	NaN	NaN	NaN	NaN	NaN	NaN	NaN	NaN	NaN	NaN	NaN
961.8121889000004	0.0999	sub-04	1	sequence	stimulus	Stuhl	NaN	NaN	64.0	NaN	NaN	5.0	5.0	NaN	NaN	NaN	NaN	NaN
961.9120754000004	0.0668	sub-04	1	sequence	interval	dot	NaN	NaN	NaN	NaN	NaN	NaN	NaN	NaN	NaN	NaN	NaN	NaN
961.9788303000004	8.3883	sub-04	1	sequence	delay	dot	NaN	NaN	NaN	NaN	NaN	NaN	NaN	NaN	NaN	NaN	NaN	NaN
970.3464955000009	0.6903	sub-04	1	sequence	choice	choice	right	NaN	NaN	-30.61082350000015	True	NaN	NaN	right	True	3.0	5.0	5.0
971.0372153000008	0.4996	sub-04	1	sequence	feedback	NaN	NaN	NaN	NaN	NaN	NaN	NaN	NaN	NaN	NaN	NaN	NaN	NaN
971.5370232000004	1.0003	sub-04	1	sequence	cue	Gesicht	NaN	NaN	NaN	NaN	NaN	NaN	NaN	NaN	NaN	NaN	NaN	NaN
972.5373682000009	2.0015	sub-04	1	sequence	blank	blank	NaN	NaN	NaN	NaN	NaN	NaN	NaN	NaN	NaN	NaN	NaN	NaN
974.5388739	0.3003	sub-04	1	sequence	fixation	dot	NaN	NaN	NaN	NaN	NaN	NaN	NaN	NaN	NaN	NaN	NaN	NaN
974.8589945000004	0.1137	sub-04	1	sequence	stimulus	Haus	NaN	NaN	512.0	NaN	NaN	2.0	1.0	NaN	NaN	NaN	NaN	NaN
974.9727188000006	0.5171	sub-04	1	sequence	interval	dot	NaN	NaN	NaN	NaN	NaN	NaN	NaN	NaN	NaN	NaN	NaN	NaN
975.4897785000004	0.1	sub-04	1	sequence	stimulus	Stuhl	NaN	NaN	512.0	NaN	NaN	5.0	2.0	NaN	NaN	NaN	NaN	NaN
975.5897288000006	0.5172	sub-04	1	sequence	interval	dot	NaN	NaN	NaN	NaN	NaN	NaN	NaN	NaN	NaN	NaN	NaN	NaN
976.1069526	0.1	sub-04	1	sequence	stimulus	Katze	NaN	NaN	512.0	NaN	NaN	3.0	3.0	NaN	NaN	NaN	NaN	NaN
976.2069207000004	0.5174	sub-04	1	sequence	interval	dot	NaN	NaN	NaN	NaN	NaN	NaN	NaN	NaN	NaN	NaN	NaN	NaN
976.7242806000004	0.0999	sub-04	1	sequence	stimulus	Gesicht	NaN	NaN	512.0	NaN	NaN	1.0	4.0	NaN	NaN	NaN	NaN	NaN
976.8242118000009	0.5171	sub-04	1	sequence	interval	dot	NaN	NaN	NaN	NaN	NaN	NaN	NaN	NaN	NaN	NaN	NaN	NaN
977.3413189000004	0.1001	sub-04	1	sequence	stimulus	Schuh	NaN	NaN	512.0	NaN	NaN	4.0	5.0	NaN	NaN	NaN	NaN	NaN
977.4413752	0.5169	sub-04	1	sequence	interval	dot	NaN	NaN	NaN	NaN	NaN	NaN	NaN	NaN	NaN	NaN	NaN	NaN
977.9582535000008	6.1536	sub-04	1	sequence	delay	dot	NaN	NaN	NaN	NaN	NaN	NaN	NaN	NaN	NaN	NaN	NaN	NaN
984.1001813000004	0.7311	sub-04	1	sequence	choice	choice	right	NaN	NaN	-30.56290639999952	True	NaN	NaN	right	True	3.0	4.0	4.0
984.8315565000004	0.4997	sub-04	1	sequence	feedback	NaN	NaN	NaN	NaN	NaN	NaN	NaN	NaN	NaN	NaN	NaN	NaN	NaN
985.3314730000002	1.0002	sub-04	1	sequence	cue	Schuh	NaN	NaN	NaN	NaN	NaN	NaN	NaN	NaN	NaN	NaN	NaN	NaN
986.3316851000008	2.0017	sub-04	1	sequence	blank	blank	NaN	NaN	NaN	NaN	NaN	NaN	NaN	NaN	NaN	NaN	NaN	NaN
988.3333447000005	0.3002	sub-04	1	sequence	fixation	dot	NaN	NaN	NaN	NaN	NaN	NaN	NaN	NaN	NaN	NaN	NaN	NaN
988.6518763000004	0.1152	sub-04	1	sequence	stimulus	Haus	NaN	NaN	64.0	NaN	NaN	2.0	1.0	NaN	NaN	NaN	NaN	NaN
988.7670698000002	0.0672	sub-04	1	sequence	interval	dot	NaN	NaN	NaN	NaN	NaN	NaN	NaN	NaN	NaN	NaN	NaN	NaN
988.8342355000004	0.0996	sub-04	1	sequence	stimulus	Gesicht	NaN	NaN	64.0	NaN	NaN	1.0	2.0	NaN	NaN	NaN	NaN	NaN
988.9338692	0.0669	sub-04	1	sequence	interval	dot	NaN	NaN	NaN	NaN	NaN	NaN	NaN	NaN	NaN	NaN	NaN	NaN
989.0007270000006	0.1	sub-04	1	sequence	stimulus	Katze	NaN	NaN	64.0	NaN	NaN	3.0	3.0	NaN	NaN	NaN	NaN	NaN
989.1007118000008	0.0668	sub-04	1	sequence	interval	dot	NaN	NaN	NaN	NaN	NaN	NaN	NaN	NaN	NaN	NaN	NaN	NaN
989.1675367000008	0.1	sub-04	1	sequence	stimulus	Stuhl	NaN	NaN	64.0	NaN	NaN	5.0	4.0	NaN	NaN	NaN	NaN	NaN
989.2675222000008	0.0668	sub-04	1	sequence	interval	dot	NaN	NaN	NaN	NaN	NaN	NaN	NaN	NaN	NaN	NaN	NaN	NaN
989.3343682000004	0.1	sub-04	1	sequence	stimulus	Schuh	NaN	NaN	64.0	NaN	NaN	4.0	5.0	NaN	NaN	NaN	NaN	NaN
989.4343368	0.0667	sub-04	1	sequence	interval	dot	NaN	NaN	NaN	NaN	NaN	NaN	NaN	NaN	NaN	NaN	NaN	NaN
989.5009871000002	8.3717	sub-04	1	sequence	delay	dot	NaN	NaN	NaN	NaN	NaN	NaN	NaN	NaN	NaN	NaN	NaN	NaN
997.8538083000004	0.8552	sub-04	1	sequence	choice	choice	right	NaN	NaN	-30.451578600000172	True	NaN	NaN	right	True	2.0	5.0	5.0
998.7092600000004	0.4997	sub-04	1	sequence	feedback	NaN	NaN	NaN	NaN	NaN	NaN	NaN	NaN	NaN	NaN	NaN	NaN	NaN
999.2090533	1.0006	sub-04	1	sequence	cue	Schuh	NaN	NaN	NaN	NaN	NaN	NaN	NaN	NaN	NaN	NaN	NaN	NaN
1000.2096650000004	2.0015	sub-04	1	sequence	blank	blank	NaN	NaN	NaN	NaN	NaN	NaN	NaN	NaN	NaN	NaN	NaN	NaN
1002.2111530000002	0.3003	sub-04	1	sequence	fixation	dot	NaN	NaN	NaN	NaN	NaN	NaN	NaN	NaN	NaN	NaN	NaN	NaN
1002.5292127000002	0.0991	sub-04	1	sequence	stimulus	Gesicht	NaN	NaN	32.0	NaN	NaN	1.0	1.0	NaN	NaN	NaN	NaN	NaN
1002.6283054000004	0.0336	sub-04	1	sequence	interval	dot	NaN	NaN	NaN	NaN	NaN	NaN	NaN	NaN	NaN	NaN	NaN	NaN
1002.6618906000004	0.1	sub-04	1	sequence	stimulus	Stuhl	NaN	NaN	32.0	NaN	NaN	5.0	2.0	NaN	NaN	NaN	NaN	NaN
1002.7618435000004	0.0338	sub-04	1	sequence	interval	dot	NaN	NaN	NaN	NaN	NaN	NaN	NaN	NaN	NaN	NaN	NaN	NaN
1002.7956036000004	0.0996	sub-04	1	sequence	stimulus	Haus	NaN	NaN	32.0	NaN	NaN	2.0	3.0	NaN	NaN	NaN	NaN	NaN
1002.8951590000006	0.0336	sub-04	1	sequence	interval	dot	NaN	NaN	NaN	NaN	NaN	NaN	NaN	NaN	NaN	NaN	NaN	NaN
1002.9287761000004	0.1	sub-04	1	sequence	stimulus	Katze	NaN	NaN	32.0	NaN	NaN	3.0	4.0	NaN	NaN	NaN	NaN	NaN
1003.0287685000004	0.0334	sub-04	1	sequence	interval	dot	NaN	NaN	NaN	NaN	NaN	NaN	NaN	NaN	NaN	NaN	NaN	NaN
1003.0621705000004	0.1	sub-04	1	sequence	stimulus	Schuh	NaN	NaN	32.0	NaN	NaN	4.0	5.0	NaN	NaN	NaN	NaN	NaN
1003.1621355000008	0.0334	sub-04	1	sequence	interval	dot	NaN	NaN	NaN	NaN	NaN	NaN	NaN	NaN	NaN	NaN	NaN	NaN
1003.1954981000008	8.5386	sub-04	1	sequence	delay	dot	NaN	NaN	NaN	NaN	NaN	NaN	NaN	NaN	NaN	NaN	NaN	NaN
1011.7116313000006	0.8749	sub-04	1	sequence	choice	choice	left	NaN	NaN	-30.4416183000003	True	NaN	NaN	left	True	5.0	2.0	5.0
1012.5866337000008	0.5001	sub-04	1	sequence	feedback	NaN	NaN	NaN	NaN	NaN	NaN	NaN	NaN	NaN	NaN	NaN	NaN	NaN
1013.0869158000004	1.0006	sub-04	1	sequence	cue	Haus	NaN	NaN	NaN	NaN	NaN	NaN	NaN	NaN	NaN	NaN	NaN	NaN
1014.0875081000004	2.0017	sub-04	1	sequence	blank	blank	NaN	NaN	NaN	NaN	NaN	NaN	NaN	NaN	NaN	NaN	NaN	NaN
1016.0892066000006	0.3003	sub-04	1	sequence	fixation	dot	NaN	NaN	NaN	NaN	NaN	NaN	NaN	NaN	NaN	NaN	NaN	NaN
1016.4078117000008	0.1151	sub-04	1	sequence	stimulus	Schuh	NaN	NaN	128.0	NaN	NaN	4.0	1.0	NaN	NaN	NaN	NaN	NaN
1016.5228856000004	0.1336	sub-04	1	sequence	interval	dot	NaN	NaN	NaN	NaN	NaN	NaN	NaN	NaN	NaN	NaN	NaN	NaN
1016.6565122000002	0.1	sub-04	1	sequence	stimulus	Haus	NaN	NaN	128.0	NaN	NaN	2.0	2.0	NaN	NaN	NaN	NaN	NaN
1016.7564633000002	0.1334	sub-04	1	sequence	interval	dot	NaN	NaN	NaN	NaN	NaN	NaN	NaN	NaN	NaN	NaN	NaN	NaN
1016.8899026000008	0.1002	sub-04	1	sequence	stimulus	Stuhl	NaN	NaN	128.0	NaN	NaN	5.0	3.0	NaN	NaN	NaN	NaN	NaN
1016.9900541000006	0.1334	sub-04	1	sequence	interval	dot	NaN	NaN	NaN	NaN	NaN	NaN	NaN	NaN	NaN	NaN	NaN	NaN
1017.1234921000004	0.1	sub-04	1	sequence	stimulus	Gesicht	NaN	NaN	128.0	NaN	NaN	1.0	4.0	NaN	NaN	NaN	NaN	NaN
1017.2234884000007	0.1337	sub-04	1	sequence	interval	dot	NaN	NaN	NaN	NaN	NaN	NaN	NaN	NaN	NaN	NaN	NaN	NaN
1017.3572203000004	0.0999	sub-04	1	sequence	stimulus	Katze	NaN	NaN	128.0	NaN	NaN	3.0	5.0	NaN	NaN	NaN	NaN	NaN
1017.4570934000004	0.1334	sub-04	1	sequence	interval	dot	NaN	NaN	NaN	NaN	NaN	NaN	NaN	NaN	NaN	NaN	NaN	NaN
1017.5905252000002	8.0716	sub-04	1	sequence	delay	dot	NaN	NaN	NaN	NaN	NaN	NaN	NaN	NaN	NaN	NaN	NaN	NaN
1025.6473174000002	0.9844	sub-04	1	sequence	choice	choice	left	NaN	NaN	-30.320406099999676	True	NaN	NaN	left	True	2.0	4.0	2.0
1026.632021400001	0.5012	sub-04	1	sequence	feedback	NaN	NaN	NaN	NaN	NaN	NaN	NaN	NaN	NaN	NaN	NaN	NaN	NaN
1027.1333974000008	0.9989	sub-04	1	sequence	cue	Katze	NaN	NaN	NaN	NaN	NaN	NaN	NaN	NaN	NaN	NaN	NaN	NaN
1028.1322545000005	2.0017	sub-04	1	sequence	blank	blank	NaN	NaN	NaN	NaN	NaN	NaN	NaN	NaN	NaN	NaN	NaN	NaN
1030.1339331000008	0.3002	sub-04	1	sequence	fixation	dot	NaN	NaN	NaN	NaN	NaN	NaN	NaN	NaN	NaN	NaN	NaN	NaN
1030.4524454000002	0.1151	sub-04	1	sequence	stimulus	Schuh	NaN	NaN	32.0	NaN	NaN	4.0	1.0	NaN	NaN	NaN	NaN	NaN
1030.5675039000007	0.0335	sub-04	1	sequence	interval	dot	NaN	NaN	NaN	NaN	NaN	NaN	NaN	NaN	NaN	NaN	NaN	NaN
1030.6010318000008	0.0999	sub-04	1	sequence	stimulus	Gesicht	NaN	NaN	32.0	NaN	NaN	1.0	2.0	NaN	NaN	NaN	NaN	NaN
1030.7009674	0.0335	sub-04	1	sequence	interval	dot	NaN	NaN	NaN	NaN	NaN	NaN	NaN	NaN	NaN	NaN	NaN	NaN
1030.7344283000002	0.0999	sub-04	1	sequence	stimulus	Katze	NaN	NaN	32.0	NaN	NaN	3.0	3.0	NaN	NaN	NaN	NaN	NaN
1030.8343591000005	0.0335	sub-04	1	sequence	interval	dot	NaN	NaN	NaN	NaN	NaN	NaN	NaN	NaN	NaN	NaN	NaN	NaN
1030.8678895000005	0.0998	sub-04	1	sequence	stimulus	Stuhl	NaN	NaN	32.0	NaN	NaN	5.0	4.0	NaN	NaN	NaN	NaN	NaN
1030.9677180000008	0.0336	sub-04	1	sequence	interval	dot	NaN	NaN	NaN	NaN	NaN	NaN	NaN	NaN	NaN	NaN	NaN	NaN
1031.0013330000002	0.0999	sub-04	1	sequence	stimulus	Haus	NaN	NaN	32.0	NaN	NaN	2.0	5.0	NaN	NaN	NaN	NaN	NaN
1031.1012697000006	0.0334	sub-04	1	sequence	interval	dot	NaN	NaN	NaN	NaN	NaN	NaN	NaN	NaN	NaN	NaN	NaN	NaN
1031.1346247	8.5386	sub-04	1	sequence	delay	dot	NaN	NaN	NaN	NaN	NaN	NaN	NaN	NaN	NaN	NaN	NaN	NaN
1039.6610634000008	0.8818	sub-04	1	sequence	choice	choice	right	NaN	NaN	-30.420589600000312	True	NaN	NaN	right	True	5.0	3.0	3.0
1040.5431039000005	0.4998	sub-04	1	sequence	feedback	NaN	NaN	NaN	NaN	NaN	NaN	NaN	NaN	NaN	NaN	NaN	NaN	NaN
1041.0430461000003	1.0004	sub-04	1	sequence	cue	Schuh	NaN	NaN	NaN	NaN	NaN	NaN	NaN	NaN	NaN	NaN	NaN	NaN
1042.0434933000006	2.0015	sub-04	1	sequence	blank	blank	NaN	NaN	NaN	NaN	NaN	NaN	NaN	NaN	NaN	NaN	NaN	NaN
1044.0449660000004	0.3003	sub-04	1	sequence	fixation	dot	NaN	NaN	NaN	NaN	NaN	NaN	NaN	NaN	NaN	NaN	NaN	NaN
1044.3629325000002	0.0992	sub-04	1	sequence	stimulus	Stuhl	NaN	NaN	512.0	NaN	NaN	5.0	1.0	NaN	NaN	NaN	NaN	NaN
1044.4621364000004	0.5173	sub-04	1	sequence	interval	dot	NaN	NaN	NaN	NaN	NaN	NaN	NaN	NaN	NaN	NaN	NaN	NaN
1044.9793968000004	0.1	sub-04	1	sequence	stimulus	Haus	NaN	NaN	512.0	NaN	NaN	2.0	2.0	NaN	NaN	NaN	NaN	NaN
1045.0793934000003	0.5171	sub-04	1	sequence	interval	dot	NaN	NaN	NaN	NaN	NaN	NaN	NaN	NaN	NaN	NaN	NaN	NaN
1045.5965037000003	0.1001	sub-04	1	sequence	stimulus	Katze	NaN	NaN	512.0	NaN	NaN	3.0	3.0	NaN	NaN	NaN	NaN	NaN
1045.6965919000004	0.5172	sub-04	1	sequence	interval	dot	NaN	NaN	NaN	NaN	NaN	NaN	NaN	NaN	NaN	NaN	NaN	NaN
1046.2137614000003	0.0998	sub-04	1	sequence	stimulus	Gesicht	NaN	NaN	512.0	NaN	NaN	1.0	4.0	NaN	NaN	NaN	NaN	NaN
1046.313556200001	0.5173	sub-04	1	sequence	interval	dot	NaN	NaN	NaN	NaN	NaN	NaN	NaN	NaN	NaN	NaN	NaN	NaN
1046.8308583000007	0.1	sub-04	1	sequence	stimulus	Schuh	NaN	NaN	512.0	NaN	NaN	4.0	5.0	NaN	NaN	NaN	NaN	NaN
1046.9308331000002	0.5172	sub-04	1	sequence	interval	dot	NaN	NaN	NaN	NaN	NaN	NaN	NaN	NaN	NaN	NaN	NaN	NaN
1047.4480217	6.1366	sub-04	1	sequence	delay	dot	NaN	NaN	NaN	NaN	NaN	NaN	NaN	NaN	NaN	NaN	NaN	NaN
1053.5708031000004	0.8666	sub-04	1	sequence	choice	choice	left	NaN	NaN	-30.4282987000006	True	NaN	NaN	left	True	5.0	4.0	5.0
1054.4376890000003	0.4997	sub-04	1	sequence	feedback	NaN	NaN	NaN	NaN	NaN	NaN	NaN	NaN	NaN	NaN	NaN	NaN	NaN
1054.9374835000008	1.0006	sub-04	1	sequence	cue	Katze	NaN	NaN	NaN	NaN	NaN	NaN	NaN	NaN	NaN	NaN	NaN	NaN
1055.9380691000006	2.0017	sub-04	1	sequence	blank	blank	NaN	NaN	NaN	NaN	NaN	NaN	NaN	NaN	NaN	NaN	NaN	NaN
1057.9397492000007	0.3003	sub-04	1	sequence	fixation	dot	NaN	NaN	NaN	NaN	NaN	NaN	NaN	NaN	NaN	NaN	NaN	NaN
1058.2577386000005	0.0989	sub-04	1	sequence	stimulus	Schuh	NaN	NaN	128.0	NaN	NaN	4.0	1.0	NaN	NaN	NaN	NaN	NaN
1058.3566640000008	0.1341	sub-04	1	sequence	interval	dot	NaN	NaN	NaN	NaN	NaN	NaN	NaN	NaN	NaN	NaN	NaN	NaN
1058.4907767000004	0.0995	sub-04	1	sequence	stimulus	Haus	NaN	NaN	128.0	NaN	NaN	2.0	2.0	NaN	NaN	NaN	NaN	NaN
1058.5902484000007	0.1336	sub-04	1	sequence	interval	dot	NaN	NaN	NaN	NaN	NaN	NaN	NaN	NaN	NaN	NaN	NaN	NaN
1058.7238458000002	0.0999	sub-04	1	sequence	stimulus	Stuhl	NaN	NaN	128.0	NaN	NaN	5.0	3.0	NaN	NaN	NaN	NaN	NaN
1058.823792	0.1336	sub-04	1	sequence	interval	dot	NaN	NaN	NaN	NaN	NaN	NaN	NaN	NaN	NaN	NaN	NaN	NaN
1058.9573433000005	0.1	sub-04	1	sequence	stimulus	Katze	NaN	NaN	128.0	NaN	NaN	3.0	4.0	NaN	NaN	NaN	NaN	NaN
1059.0573320000003	0.1335	sub-04	1	sequence	interval	dot	NaN	NaN	NaN	NaN	NaN	NaN	NaN	NaN	NaN	NaN	NaN	NaN
1059.190802	0.1	sub-04	1	sequence	stimulus	Gesicht	NaN	NaN	128.0	NaN	NaN	1.0	5.0	NaN	NaN	NaN	NaN	NaN
1059.2907552000006	0.1336	sub-04	1	sequence	interval	dot	NaN	NaN	NaN	NaN	NaN	NaN	NaN	NaN	NaN	NaN	NaN	NaN
1059.4243061000006	8.0716	sub-04	1	sequence	delay	dot	NaN	NaN	NaN	NaN	NaN	NaN	NaN	NaN	NaN	NaN	NaN	NaN
1067.4809152000007	0.9013	sub-04	1	sequence	choice	choice	left	NaN	NaN	-30.40348400000039	True	NaN	NaN	left	True	4.0	1.0	4.0
1068.3824788000002	0.5001	sub-04	1	sequence	feedback	NaN	NaN	NaN	NaN	NaN	NaN	NaN	NaN	NaN	NaN	NaN	NaN	NaN
1072.7024134000003	0.4995	sub-04	1	localizer	stimulus	Schuh	NaN	0	2.5021347000001697	NaN	True	NaN	NaN	NaN	NaN	NaN	NaN	NaN
1073.1852763000006	2.5021	sub-04	1	localizer	blank	interval	NaN	NaN	NaN	NaN	NaN	NaN	NaN	NaN	NaN	NaN	NaN	NaN
1075.9884631000004	0.4995	sub-04	1	localizer	stimulus	Gesicht	NaN	0	2.7853287000000364	NaN	True	NaN	NaN	NaN	NaN	NaN	NaN	NaN
1076.4714568000009	2.7853	sub-04	1	localizer	blank	interval	NaN	NaN	NaN	NaN	NaN	NaN	NaN	NaN	NaN	NaN	NaN	NaN
1079.5579514	0.4995	sub-04	1	localizer	stimulus	Stuhl	NaN	180	1.9681806999997207	-30.617590999999265	True	NaN	NaN	NaN	NaN	NaN	NaN	NaN
1080.0408614000007	1.9682	sub-04	1	localizer	blank	interval	NaN	NaN	NaN	NaN	NaN	NaN	NaN	NaN	NaN	NaN	NaN	NaN
1082.3102125000005	0.4994	sub-04	1	localizer	stimulus	Schuh	NaN	0	2.21831380000026	NaN	True	NaN	NaN	NaN	NaN	NaN	NaN	NaN
1082.7931143000003	2.2183	sub-04	1	localizer	blank	interval	NaN	NaN	NaN	NaN	NaN	NaN	NaN	NaN	NaN	NaN	NaN	NaN
1085.3145344000004	0.5143	sub-04	1	localizer	stimulus	Schuh	NaN	0	2.552118900000096	NaN	True	NaN	NaN	NaN	NaN	NaN	NaN	NaN
1085.7955399000002	2.5521	sub-04	1	localizer	blank	interval	NaN	NaN	NaN	NaN	NaN	NaN	NaN	NaN	NaN	NaN	NaN	NaN
1088.6488157000003	0.4997	sub-04	1	localizer	stimulus	Stuhl	NaN	0	3.235538300000144	NaN	True	NaN	NaN	NaN	NaN	NaN	NaN	NaN
1089.1318730000005	3.2355	sub-04	1	localizer	blank	interval	NaN	NaN	NaN	NaN	NaN	NaN	NaN	NaN	NaN	NaN	NaN	NaN
1092.6685419000005	0.4996	sub-04	1	localizer	stimulus	Gesicht	NaN	0	3.052713000000267	NaN	True	NaN	NaN	NaN	NaN	NaN	NaN	NaN
1093.1514910000003	3.0527	sub-04	1	localizer	blank	interval	NaN	NaN	NaN	NaN	NaN	NaN	NaN	NaN	NaN	NaN	NaN	NaN
1096.5050276000002	0.4996	sub-04	1	localizer	stimulus	Haus	NaN	0	1.98468529999991	NaN	True	NaN	NaN	NaN	NaN	NaN	NaN	NaN
1096.9882027000003	1.9847	sub-04	1	localizer	blank	interval	NaN	NaN	NaN	NaN	NaN	NaN	NaN	NaN	NaN	NaN	NaN	NaN
1099.2739395000008	0.4995	sub-04	1	localizer	stimulus	Haus	NaN	0	1.9681338000000324	NaN	True	NaN	NaN	NaN	NaN	NaN	NaN	NaN
1099.7569831	1.9681	sub-04	1	localizer	blank	interval	NaN	NaN	NaN	NaN	NaN	NaN	NaN	NaN	NaN	NaN	NaN	NaN
1102.0261244000003	0.4996	sub-04	1	localizer	stimulus	Gesicht	NaN	0	2.4684074999995573	NaN	True	NaN	NaN	NaN	NaN	NaN	NaN	NaN
1102.5091696000009	2.4684	sub-04	1	localizer	blank	interval	NaN	NaN	NaN	NaN	NaN	NaN	NaN	NaN	NaN	NaN	NaN	NaN
1105.2787771000003	0.4995	sub-04	1	localizer	stimulus	Gesicht	NaN	180	1.8515601000001425	-30.59380080000028	True	NaN	NaN	NaN	NaN	NaN	NaN	NaN
1105.7617204000007	1.8516	sub-04	1	localizer	blank	interval	NaN	NaN	NaN	NaN	NaN	NaN	NaN	NaN	NaN	NaN	NaN	NaN
1107.9142951000003	0.4997	sub-04	1	localizer	stimulus	Schuh	NaN	0	2.735165799999777	NaN	True	NaN	NaN	NaN	NaN	NaN	NaN	NaN
1108.3973788000003	2.7352	sub-04	1	localizer	blank	interval	NaN	NaN	NaN	NaN	NaN	NaN	NaN	NaN	NaN	NaN	NaN	NaN
1111.4337539000007	0.4995	sub-04	1	localizer	stimulus	Haus	NaN	180	2.41853540000011	-30.540599400000247	True	NaN	NaN	NaN	NaN	NaN	NaN	NaN
1111.9167363000006	2.4185	sub-04	1	localizer	blank	interval	NaN	NaN	NaN	NaN	NaN	NaN	NaN	NaN	NaN	NaN	NaN	NaN
1114.6365379000008	0.4994	sub-04	1	localizer	stimulus	Katze	NaN	0	2.351778100000047	NaN	True	NaN	NaN	NaN	NaN	NaN	NaN	NaN
