onset	duration	subject	session	condition	trial_type	stim_label	key_down	orientation	interval_time	response_time	accuracy	stim_index	serial_position	key_expected	key_pressed	choice_left	choice_right	choice_correct
1.3074742999997395	0.8384	sub-25	1	instruction	instruction	language_selection	german	NaN	NaN	NaN	NaN	NaN	NaN	NaN	NaN	NaN	NaN	NaN
22.896760200001157	0.4994	sub-25	1	localizer	stimulus	Haus	NaN	0	1.7179193000010855	NaN	1.0	NaN	NaN	NaN	NaN	NaN	NaN	NaN
23.379636699999537	1.7179	sub-25	1	localizer	blank	interval	NaN	NaN	NaN	NaN	NaN	NaN	NaN	NaN	NaN	NaN	NaN	NaN
25.398737800000163	0.4994	sub-25	1	localizer	stimulus	Schuh	NaN	0	2.835492800000793	NaN	True	NaN	NaN	NaN	NaN	NaN	NaN	NaN
25.8816654000002	2.8355	sub-25	1	localizer	blank	interval	NaN	NaN	NaN	NaN	NaN	NaN	NaN	NaN	NaN	NaN	NaN	NaN
29.018389700000625	0.4994	sub-25	1	localizer	stimulus	Katze	NaN	180	3.1525798000002396	0.526960400000462	True	NaN	NaN	NaN	NaN	NaN	NaN	NaN
29.50122360000023	3.1526	sub-25	1	localizer	blank	interval	NaN	NaN	NaN	NaN	NaN	NaN	NaN	NaN	NaN	NaN	NaN	NaN
32.95512020000024	0.4995	sub-25	1	localizer	stimulus	Katze	NaN	0	2.7184782000003977	NaN	True	NaN	NaN	NaN	NaN	NaN	NaN	NaN
33.438031100000444	2.7185	sub-25	1	localizer	blank	interval	NaN	NaN	NaN	NaN	NaN	NaN	NaN	NaN	NaN	NaN	NaN	NaN
36.45768429999953	0.4994	sub-25	1	localizer	stimulus	Gesicht	NaN	0	2.301728699998421	NaN	True	NaN	NaN	NaN	NaN	NaN	NaN	NaN
36.94058630000109	2.3017	sub-25	1	localizer	blank	interval	NaN	NaN	NaN	NaN	NaN	NaN	NaN	NaN	NaN	NaN	NaN	NaN
39.54349019999973	0.4995	sub-25	1	localizer	stimulus	Haus	NaN	180	2.118246399999407	0.5377568999992945	True	NaN	NaN	NaN	NaN	NaN	NaN	NaN
40.026415800000905	2.1182	sub-25	1	localizer	blank	interval	NaN	NaN	NaN	NaN	NaN	NaN	NaN	NaN	NaN	NaN	NaN	NaN
42.4458093000012	0.4995	sub-25	1	localizer	stimulus	Stuhl	NaN	0	2.852204200000415	NaN	True	NaN	NaN	NaN	NaN	NaN	NaN	NaN
42.92874660000052	2.8522	sub-25	1	localizer	blank	interval	NaN	NaN	NaN	NaN	NaN	NaN	NaN	NaN	NaN	NaN	NaN	NaN
46.08212110000022	0.4995	sub-25	1	localizer	stimulus	Gesicht	NaN	0	2.451856100000434	NaN	True	NaN	NaN	NaN	NaN	NaN	NaN	NaN
46.56504029999997	2.4519	sub-25	1	localizer	blank	interval	NaN	NaN	NaN	NaN	NaN	NaN	NaN	NaN	NaN	NaN	NaN	NaN
49.31805870000062	0.4995	sub-25	1	localizer	stimulus	Gesicht	NaN	0	2.702201400001279	NaN	True	NaN	NaN	NaN	NaN	NaN	NaN	NaN
49.80096249999952	2.7022	sub-25	1	localizer	blank	interval	NaN	NaN	NaN	NaN	NaN	NaN	NaN	NaN	NaN	NaN	NaN	NaN
52.80422050000016	0.4975	sub-25	1	localizer	stimulus	Katze	NaN	0	2.435043900000892	NaN	True	NaN	NaN	NaN	NaN	NaN	NaN	NaN
53.28726959999949	2.435	sub-25	1	localizer	blank	interval	NaN	NaN	NaN	NaN	NaN	NaN	NaN	NaN	NaN	NaN	NaN	NaN
56.02348809999967	0.4995	sub-25	1	localizer	stimulus	Stuhl	NaN	0	2.835541300000841	NaN	True	NaN	NaN	NaN	NaN	NaN	NaN	NaN
56.50639779999983	2.8355	sub-25	1	localizer	blank	interval	NaN	NaN	NaN	NaN	NaN	NaN	NaN	NaN	NaN	NaN	NaN	NaN
59.6431021999997	0.4995	sub-25	1	localizer	stimulus	Katze	NaN	0	2.1682870000004044	NaN	True	NaN	NaN	NaN	NaN	NaN	NaN	NaN
60.12602680000055	2.1683	sub-25	1	localizer	blank	interval	NaN	NaN	NaN	NaN	NaN	NaN	NaN	NaN	NaN	NaN	NaN	NaN
62.59546510000109	0.4995	sub-25	1	localizer	stimulus	Schuh	NaN	0	2.818763900000704	NaN	True	NaN	NaN	NaN	NaN	NaN	NaN	NaN
63.07846690000042	2.8188	sub-25	1	localizer	blank	interval	NaN	NaN	NaN	NaN	NaN	NaN	NaN	NaN	NaN	NaN	NaN	NaN
66.19839110000066	0.4995	sub-25	1	localizer	stimulus	Stuhl	NaN	0	2.23498280000058	NaN	True	NaN	NaN	NaN	NaN	NaN	NaN	NaN
66.68134459999965	2.235	sub-25	1	localizer	blank	interval	NaN	NaN	NaN	NaN	NaN	NaN	NaN	NaN	NaN	NaN	NaN	NaN
69.21752120000019	0.4994	sub-25	1	localizer	stimulus	Stuhl	NaN	180	2.6020208000009006	0.5517915000000357	True	NaN	NaN	NaN	NaN	NaN	NaN	NaN
69.70041049999963	2.602	sub-25	1	localizer	blank	interval	NaN	NaN	NaN	NaN	NaN	NaN	NaN	NaN	NaN	NaN	NaN	NaN
72.60372000000098	0.4994	sub-25	1	localizer	stimulus	Haus	NaN	0	2.268468100000973	NaN	True	NaN	NaN	NaN	NaN	NaN	NaN	NaN
73.08664940000017	2.2685	sub-25	1	localizer	blank	interval	NaN	NaN	NaN	NaN	NaN	NaN	NaN	NaN	NaN	NaN	NaN	NaN
75.65627270000005	0.4994	sub-25	1	localizer	stimulus	Katze	NaN	0	2.568396999999095	NaN	True	NaN	NaN	NaN	NaN	NaN	NaN	NaN
76.13919130000068	2.5684	sub-25	1	localizer	blank	interval	NaN	NaN	NaN	NaN	NaN	NaN	NaN	NaN	NaN	NaN	NaN	NaN
79.008783700001	0.4994	sub-25	1	localizer	stimulus	Haus	NaN	0	3.71953829999984	NaN	True	NaN	NaN	NaN	NaN	NaN	NaN	NaN
79.49167370000032	3.7195	sub-25	1	localizer	blank	interval	NaN	NaN	NaN	NaN	NaN	NaN	NaN	NaN	NaN	NaN	NaN	NaN
83.5124068999994	0.4994	sub-25	1	localizer	stimulus	Gesicht	NaN	180	3.1023457999999664	0.5289097000004404	True	NaN	NaN	NaN	NaN	NaN	NaN	NaN
83.99532080000063	3.1023	sub-25	1	localizer	blank	interval	NaN	NaN	NaN	NaN	NaN	NaN	NaN	NaN	NaN	NaN	NaN	NaN
87.39900219999981	0.4993	sub-25	1	localizer	stimulus	Schuh	NaN	0	2.451859999999215	NaN	True	NaN	NaN	NaN	NaN	NaN	NaN	NaN
87.8817639000008	2.4519	sub-25	1	localizer	blank	interval	NaN	NaN	NaN	NaN	NaN	NaN	NaN	NaN	NaN	NaN	NaN	NaN
90.634799200001	0.4995	sub-25	1	localizer	stimulus	Gesicht	NaN	0	2.8523433999998815	NaN	True	NaN	NaN	NaN	NaN	NaN	NaN	NaN
91.1177086000007	2.8523	sub-25	1	localizer	blank	interval	NaN	NaN	NaN	NaN	NaN	NaN	NaN	NaN	NaN	NaN	NaN	NaN
94.2711459000002	0.4995	sub-25	1	localizer	stimulus	Stuhl	NaN	0	2.4019625000000957	NaN	True	NaN	NaN	NaN	NaN	NaN	NaN	NaN
94.7540929000006	2.402	sub-25	1	localizer	blank	interval	NaN	NaN	NaN	NaN	NaN	NaN	NaN	NaN	NaN	NaN	NaN	NaN
97.45699729999978	0.4995	sub-25	1	localizer	stimulus	Schuh	NaN	180	2.301710600000689	0.4722963000003801	True	NaN	NaN	NaN	NaN	NaN	NaN	NaN
97.93993799999951	2.3017	sub-25	1	localizer	blank	interval	NaN	NaN	NaN	NaN	NaN	NaN	NaN	NaN	NaN	NaN	NaN	NaN
100.54280500000095	0.4995	sub-25	1	localizer	stimulus	Schuh	NaN	0	3.085668300000208	NaN	True	NaN	NaN	NaN	NaN	NaN	NaN	NaN
101.02575810000052	3.0857	sub-25	1	localizer	blank	interval	NaN	NaN	NaN	NaN	NaN	NaN	NaN	NaN	NaN	NaN	NaN	NaN
104.41264260000024	0.4994	sub-25	1	localizer	stimulus	Haus	NaN	0	2.285035799999605	NaN	True	NaN	NaN	NaN	NaN	NaN	NaN	NaN
104.8955543000011	2.285	sub-25	1	localizer	blank	interval	NaN	NaN	NaN	NaN	NaN	NaN	NaN	NaN	NaN	NaN	NaN	NaN
110.66711410000062	1.0005	sub-25	1	sequence	cue	Katze	NaN	NaN	NaN	NaN	NaN	NaN	NaN	NaN	NaN	NaN	NaN	NaN
111.66758500000104	2.0016	sub-25	1	sequence	blank	blank	NaN	NaN	NaN	NaN	NaN	NaN	NaN	NaN	NaN	NaN	NaN	NaN
113.66917360000116	0.3002	sub-25	1	sequence	fixation	dot	NaN	NaN	NaN	NaN	NaN	NaN	NaN	NaN	NaN	NaN	NaN	NaN
114.01758530000006	0.102	sub-25	1	sequence	stimulus	Gesicht	NaN	NaN	64.0	NaN	NaN	1.0	1.0	NaN	NaN	NaN	NaN	NaN
114.11956680000004	0.0669	sub-25	1	sequence	interval	dot	NaN	NaN	NaN	NaN	NaN	NaN	NaN	NaN	NaN	NaN	NaN	NaN
114.18648510000094	0.0999	sub-25	1	sequence	stimulus	Haus	NaN	NaN	64.0	NaN	NaN	2.0	2.0	NaN	NaN	NaN	NaN	NaN
114.28635890000078	0.0669	sub-25	1	sequence	interval	dot	NaN	NaN	NaN	NaN	NaN	NaN	NaN	NaN	NaN	NaN	NaN	NaN
114.35325420000116	0.0999	sub-25	1	sequence	stimulus	Katze	NaN	NaN	64.0	NaN	NaN	3.0	3.0	NaN	NaN	NaN	NaN	NaN
114.4531960000004	0.0669	sub-25	1	sequence	interval	dot	NaN	NaN	NaN	NaN	NaN	NaN	NaN	NaN	NaN	NaN	NaN	NaN
114.520084400001	0.1	sub-25	1	sequence	stimulus	Stuhl	NaN	NaN	64.0	NaN	NaN	5.0	4.0	NaN	NaN	NaN	NaN	NaN
114.6200442999998	0.0668	sub-25	1	sequence	interval	dot	NaN	NaN	NaN	NaN	NaN	NaN	NaN	NaN	NaN	NaN	NaN	NaN
114.68687630000022	0.1	sub-25	1	sequence	stimulus	Schuh	NaN	NaN	64.0	NaN	NaN	4.0	5.0	NaN	NaN	NaN	NaN	NaN
114.7868527999999	0.0668	sub-25	1	sequence	interval	dot	NaN	NaN	NaN	NaN	NaN	NaN	NaN	NaN	NaN	NaN	NaN	NaN
114.85366849999993	8.3879	sub-25	1	sequence	delay	dot	NaN	NaN	NaN	NaN	NaN	NaN	NaN	NaN	NaN	NaN	NaN	NaN
123.22359979999965	0.8207	sub-25	1	sequence	choice	choice	right	NaN	NaN	0.7997591999992437	True	NaN	NaN	right	1.0	4.0	3.0	3.0
124.04456650000066	0.5001	sub-25	1	sequence	feedback	NaN	NaN	NaN	NaN	NaN	NaN	NaN	NaN	NaN	NaN	NaN	NaN	NaN
124.54478150000068	1.0007	sub-25	1	sequence	cue	Schuh	NaN	NaN	NaN	NaN	NaN	NaN	NaN	NaN	NaN	NaN	NaN	NaN
125.54544200000056	2.0016	sub-25	1	sequence	blank	blank	NaN	NaN	NaN	NaN	NaN	NaN	NaN	NaN	NaN	NaN	NaN	NaN
127.547087500001	0.3002	sub-25	1	sequence	fixation	dot	NaN	NaN	NaN	NaN	NaN	NaN	NaN	NaN	NaN	NaN	NaN	NaN
127.87979110000016	0.1009	sub-25	1	sequence	stimulus	Katze	NaN	NaN	512.0	NaN	NaN	3.0	1.0	NaN	NaN	NaN	NaN	NaN
127.98073310000107	0.5175	sub-25	1	sequence	interval	dot	NaN	NaN	NaN	NaN	NaN	NaN	NaN	NaN	NaN	NaN	NaN	NaN
128.49821780000093	0.0997	sub-25	1	sequence	stimulus	Stuhl	NaN	NaN	512.0	NaN	NaN	5.0	2.0	NaN	NaN	NaN	NaN	NaN
128.5978895999997	0.5172	sub-25	1	sequence	interval	dot	NaN	NaN	NaN	NaN	NaN	NaN	NaN	NaN	NaN	NaN	NaN	NaN
129.11512249999942	0.0999	sub-25	1	sequence	stimulus	Gesicht	NaN	NaN	512.0	NaN	NaN	1.0	3.0	NaN	NaN	NaN	NaN	NaN
129.21504910000112	0.5172	sub-25	1	sequence	interval	dot	NaN	NaN	NaN	NaN	NaN	NaN	NaN	NaN	NaN	NaN	NaN	NaN
129.73224520000076	0.1001	sub-25	1	sequence	stimulus	Schuh	NaN	NaN	512.0	NaN	NaN	4.0	4.0	NaN	NaN	NaN	NaN	NaN
129.8323065000004	0.5172	sub-25	1	sequence	interval	dot	NaN	NaN	NaN	NaN	NaN	NaN	NaN	NaN	NaN	NaN	NaN	NaN
130.34945789999983	0.0999	sub-25	1	sequence	stimulus	Haus	NaN	NaN	512.0	NaN	NaN	2.0	5.0	NaN	NaN	NaN	NaN	NaN
130.4493679999996	0.5171	sub-25	1	sequence	interval	dot	NaN	NaN	NaN	NaN	NaN	NaN	NaN	NaN	NaN	NaN	NaN	NaN
130.9664730000004	6.153	sub-25	1	sequence	delay	dot	NaN	NaN	NaN	NaN	NaN	NaN	NaN	NaN	NaN	NaN	NaN	NaN
137.1073419000004	0.7817	sub-25	1	sequence	choice	choice	right	NaN	NaN	0.7537785000004078	True	NaN	NaN	right	True	1.0	4.0	4.0
137.88921649999975	0.5002	sub-25	1	sequence	feedback	NaN	NaN	NaN	NaN	NaN	NaN	NaN	NaN	NaN	NaN	NaN	NaN	NaN
138.38954829999966	1.0005	sub-25	1	sequence	cue	Gesicht	NaN	NaN	NaN	NaN	NaN	NaN	NaN	NaN	NaN	NaN	NaN	NaN
139.39002160000018	2.0017	sub-25	1	sequence	blank	blank	NaN	NaN	NaN	NaN	NaN	NaN	NaN	NaN	NaN	NaN	NaN	NaN
141.3916803000011	0.3003	sub-25	1	sequence	fixation	dot	NaN	NaN	NaN	NaN	NaN	NaN	NaN	NaN	NaN	NaN	NaN	NaN
141.70951400000013	0.0991	sub-25	1	sequence	stimulus	Katze	NaN	NaN	128.0	NaN	NaN	3.0	1.0	NaN	NaN	NaN	NaN	NaN
141.80858530000114	0.1336	sub-25	1	sequence	interval	dot	NaN	NaN	NaN	NaN	NaN	NaN	NaN	NaN	NaN	NaN	NaN	NaN
141.94215690000055	0.1	sub-25	1	sequence	stimulus	Stuhl	NaN	NaN	128.0	NaN	NaN	5.0	2.0	NaN	NaN	NaN	NaN	NaN
142.0421107000002	0.1336	sub-25	1	sequence	interval	dot	NaN	NaN	NaN	NaN	NaN	NaN	NaN	NaN	NaN	NaN	NaN	NaN
142.1756946000005	0.1	sub-25	1	sequence	stimulus	Haus	NaN	NaN	128.0	NaN	NaN	2.0	3.0	NaN	NaN	NaN	NaN	NaN
142.27565200000026	0.1335	sub-25	1	sequence	interval	dot	NaN	NaN	NaN	NaN	NaN	NaN	NaN	NaN	NaN	NaN	NaN	NaN
142.40918690000035	0.1	sub-25	1	sequence	stimulus	Schuh	NaN	NaN	128.0	NaN	NaN	4.0	4.0	NaN	NaN	NaN	NaN	NaN
142.50915209999948	0.1336	sub-25	1	sequence	interval	dot	NaN	NaN	NaN	NaN	NaN	NaN	NaN	NaN	NaN	NaN	NaN	NaN
142.6427146999995	0.1	sub-25	1	sequence	stimulus	Gesicht	NaN	NaN	128.0	NaN	NaN	1.0	5.0	NaN	NaN	NaN	NaN	NaN
142.74267940000027	0.1334	sub-25	1	sequence	interval	dot	NaN	NaN	NaN	NaN	NaN	NaN	NaN	NaN	NaN	NaN	NaN	NaN
142.8761226000006	8.0545	sub-25	1	sequence	delay	dot	NaN	NaN	NaN	NaN	NaN	NaN	NaN	NaN	NaN	NaN	NaN	NaN
150.91302709999945	0.8537	sub-25	1	sequence	choice	choice	left	NaN	NaN	0.8306482000007236	True	NaN	NaN	left	True	5.0	4.0	5.0
151.76689570000053	0.5002	sub-25	1	sequence	feedback	NaN	NaN	NaN	NaN	NaN	NaN	NaN	NaN	NaN	NaN	NaN	NaN	NaN
152.26718299999993	1.0007	sub-25	1	sequence	cue	Gesicht	NaN	NaN	NaN	NaN	NaN	NaN	NaN	NaN	NaN	NaN	NaN	NaN
153.26792039999964	2.0016	sub-25	1	sequence	blank	blank	NaN	NaN	NaN	NaN	NaN	NaN	NaN	NaN	NaN	NaN	NaN	NaN
155.26956520000022	0.3003	sub-25	1	sequence	fixation	dot	NaN	NaN	NaN	NaN	NaN	NaN	NaN	NaN	NaN	NaN	NaN	NaN
155.5880906000002	0.1151	sub-25	1	sequence	stimulus	Katze	NaN	NaN	32.0	NaN	NaN	3.0	1.0	NaN	NaN	NaN	NaN	NaN
155.70316280000043	0.0335	sub-25	1	sequence	interval	dot	NaN	NaN	NaN	NaN	NaN	NaN	NaN	NaN	NaN	NaN	NaN	NaN
155.7366495999995	0.0999	sub-25	1	sequence	stimulus	Stuhl	NaN	NaN	32.0	NaN	NaN	5.0	2.0	NaN	NaN	NaN	NaN	NaN
155.83659889999944	0.0335	sub-25	1	sequence	interval	dot	NaN	NaN	NaN	NaN	NaN	NaN	NaN	NaN	NaN	NaN	NaN	NaN
155.87008539999988	0.1	sub-25	1	sequence	stimulus	Schuh	NaN	NaN	32.0	NaN	NaN	4.0	3.0	NaN	NaN	NaN	NaN	NaN
155.97003980000045	0.0335	sub-25	1	sequence	interval	dot	NaN	NaN	NaN	NaN	NaN	NaN	NaN	NaN	NaN	NaN	NaN	NaN
156.00357950000034	0.1	sub-25	1	sequence	stimulus	Haus	NaN	NaN	32.0	NaN	NaN	2.0	4.0	NaN	NaN	NaN	NaN	NaN
156.1035324000004	0.0335	sub-25	1	sequence	interval	dot	NaN	NaN	NaN	NaN	NaN	NaN	NaN	NaN	NaN	NaN	NaN	NaN
156.13702990000093	0.0999	sub-25	1	sequence	stimulus	Gesicht	NaN	NaN	32.0	NaN	NaN	1.0	5.0	NaN	NaN	NaN	NaN	NaN
156.23697709999942	0.0334	sub-25	1	sequence	interval	dot	NaN	NaN	NaN	NaN	NaN	NaN	NaN	NaN	NaN	NaN	NaN	NaN
156.2703504000001	8.5384	sub-25	1	sequence	delay	dot	NaN	NaN	NaN	NaN	NaN	NaN	NaN	NaN	NaN	NaN	NaN	NaN
164.7966806000004	1.2816	sub-25	1	sequence	choice	choice	left	NaN	NaN	1.2645368999983475	False	NaN	NaN	right	True	4.0	5.0	5.0
166.0784851999997	0.5001	sub-25	1	sequence	feedback	NaN	NaN	NaN	NaN	NaN	NaN	NaN	NaN	NaN	NaN	NaN	NaN	NaN
166.578759	1.0007	sub-25	1	sequence	cue	Stuhl	NaN	NaN	NaN	NaN	NaN	NaN	NaN	NaN	NaN	NaN	NaN	NaN
167.57946149999952	2.0016	sub-25	1	sequence	blank	blank	NaN	NaN	NaN	NaN	NaN	NaN	NaN	NaN	NaN	NaN	NaN	NaN
169.58105419999993	0.3003	sub-25	1	sequence	fixation	dot	NaN	NaN	NaN	NaN	NaN	NaN	NaN	NaN	NaN	NaN	NaN	NaN
169.89886450000083	0.0992	sub-25	1	sequence	stimulus	Schuh	NaN	NaN	32.0	NaN	NaN	4.0	1.0	NaN	NaN	NaN	NaN	NaN
169.99803280000015	0.0335	sub-25	1	sequence	interval	dot	NaN	NaN	NaN	NaN	NaN	NaN	NaN	NaN	NaN	NaN	NaN	NaN
170.03153790000033	0.0999	sub-25	1	sequence	stimulus	Katze	NaN	NaN	32.0	NaN	NaN	3.0	2.0	NaN	NaN	NaN	NaN	NaN
170.1314863000007	0.0335	sub-25	1	sequence	interval	dot	NaN	NaN	NaN	NaN	NaN	NaN	NaN	NaN	NaN	NaN	NaN	NaN
170.16497470000104	0.1	sub-25	1	sequence	stimulus	Haus	NaN	NaN	32.0	NaN	NaN	2.0	3.0	NaN	NaN	NaN	NaN	NaN
170.2649290999998	0.0335	sub-25	1	sequence	interval	dot	NaN	NaN	NaN	NaN	NaN	NaN	NaN	NaN	NaN	NaN	NaN	NaN
170.29842790000112	0.0999	sub-25	1	sequence	stimulus	Stuhl	NaN	NaN	32.0	NaN	NaN	5.0	4.0	NaN	NaN	NaN	NaN	NaN
170.3983569000011	0.0335	sub-25	1	sequence	interval	dot	NaN	NaN	NaN	NaN	NaN	NaN	NaN	NaN	NaN	NaN	NaN	NaN
170.43185190000077	0.0999	sub-25	1	sequence	stimulus	Gesicht	NaN	NaN	32.0	NaN	NaN	1.0	5.0	NaN	NaN	NaN	NaN	NaN
170.53178110000044	0.0334	sub-25	1	sequence	interval	dot	NaN	NaN	NaN	NaN	NaN	NaN	NaN	NaN	NaN	NaN	NaN	NaN
170.56517540000095	8.5217	sub-25	1	sequence	delay	dot	NaN	NaN	NaN	NaN	NaN	NaN	NaN	NaN	NaN	NaN	NaN	NaN
179.07038190000094	0.736	sub-25	1	sequence	choice	choice	left	NaN	NaN	0.7143061000006128	True	NaN	NaN	left	True	4.0	3.0	4.0
179.80656819999967	0.5001	sub-25	1	sequence	feedback	NaN	NaN	NaN	NaN	NaN	NaN	NaN	NaN	NaN	NaN	NaN	NaN	NaN
180.3067798000011	1.0004	sub-25	1	sequence	cue	Gesicht	NaN	NaN	NaN	NaN	NaN	NaN	NaN	NaN	NaN	NaN	NaN	NaN
181.3072253000009	2.0016	sub-25	1	sequence	blank	blank	NaN	NaN	NaN	NaN	NaN	NaN	NaN	NaN	NaN	NaN	NaN	NaN
183.30883750000064	0.3003	sub-25	1	sequence	fixation	dot	NaN	NaN	NaN	NaN	NaN	NaN	NaN	NaN	NaN	NaN	NaN	NaN
183.6267389000004	0.0991	sub-25	1	sequence	stimulus	Haus	NaN	NaN	128.0	NaN	NaN	2.0	1.0	NaN	NaN	NaN	NaN	NaN
183.72580010000087	0.1336	sub-25	1	sequence	interval	dot	NaN	NaN	NaN	NaN	NaN	NaN	NaN	NaN	NaN	NaN	NaN	NaN
183.85940540000047	0.1	sub-25	1	sequence	stimulus	Schuh	NaN	NaN	128.0	NaN	NaN	4.0	2.0	NaN	NaN	NaN	NaN	NaN
183.9593592000001	0.1336	sub-25	1	sequence	interval	dot	NaN	NaN	NaN	NaN	NaN	NaN	NaN	NaN	NaN	NaN	NaN	NaN
184.09292260000075	0.0999	sub-25	1	sequence	stimulus	Stuhl	NaN	NaN	128.0	NaN	NaN	5.0	3.0	NaN	NaN	NaN	NaN	NaN
184.19286850000023	0.1336	sub-25	1	sequence	interval	dot	NaN	NaN	NaN	NaN	NaN	NaN	NaN	NaN	NaN	NaN	NaN	NaN
184.32643370000005	0.1	sub-25	1	sequence	stimulus	Gesicht	NaN	NaN	128.0	NaN	NaN	1.0	4.0	NaN	NaN	NaN	NaN	NaN
184.426446200001	0.1335	sub-25	1	sequence	interval	dot	NaN	NaN	NaN	NaN	NaN	NaN	NaN	NaN	NaN	NaN	NaN	NaN
184.5599562999996	0.1	sub-25	1	sequence	stimulus	Katze	NaN	NaN	128.0	NaN	NaN	3.0	5.0	NaN	NaN	NaN	NaN	NaN
184.65991340000076	0.1335	sub-25	1	sequence	interval	dot	NaN	NaN	NaN	NaN	NaN	NaN	NaN	NaN	NaN	NaN	NaN	NaN
184.79336830000105	8.0549	sub-25	1	sequence	delay	dot	NaN	NaN	NaN	NaN	NaN	NaN	NaN	NaN	NaN	NaN	NaN	NaN
192.82411499999944	0.6931	sub-25	1	sequence	choice	choice	left	NaN	NaN	0.6649108999990858	True	NaN	NaN	left	True	4.0	3.0	4.0
193.51734270000088	0.5001	sub-25	1	sequence	feedback	NaN	NaN	NaN	NaN	NaN	NaN	NaN	NaN	NaN	NaN	NaN	NaN	NaN
194.01761690000055	1.0007	sub-25	1	sequence	cue	Haus	NaN	NaN	NaN	NaN	NaN	NaN	NaN	NaN	NaN	NaN	NaN	NaN
195.0183522999996	2.0016	sub-25	1	sequence	blank	blank	NaN	NaN	NaN	NaN	NaN	NaN	NaN	NaN	NaN	NaN	NaN	NaN
197.01994100000047	0.3003	sub-25	1	sequence	fixation	dot	NaN	NaN	NaN	NaN	NaN	NaN	NaN	NaN	NaN	NaN	NaN	NaN
197.338495	0.1151	sub-25	1	sequence	stimulus	Stuhl	NaN	NaN	512.0	NaN	NaN	5.0	1.0	NaN	NaN	NaN	NaN	NaN
197.4535753	0.5172	sub-25	1	sequence	interval	dot	NaN	NaN	NaN	NaN	NaN	NaN	NaN	NaN	NaN	NaN	NaN	NaN
197.9708122000011	0.1	sub-25	1	sequence	stimulus	Katze	NaN	NaN	512.0	NaN	NaN	3.0	2.0	NaN	NaN	NaN	NaN	NaN
198.07076229999984	0.5173	sub-25	1	sequence	interval	dot	NaN	NaN	NaN	NaN	NaN	NaN	NaN	NaN	NaN	NaN	NaN	NaN
198.5881096000012	0.0999	sub-25	1	sequence	stimulus	Haus	NaN	NaN	512.0	NaN	NaN	2.0	3.0	NaN	NaN	NaN	NaN	NaN
198.68801809999968	0.5172	sub-25	1	sequence	interval	dot	NaN	NaN	NaN	NaN	NaN	NaN	NaN	NaN	NaN	NaN	NaN	NaN
199.2052244000006	0.1	sub-25	1	sequence	stimulus	Schuh	NaN	NaN	512.0	NaN	NaN	4.0	4.0	NaN	NaN	NaN	NaN	NaN
199.3051856000002	0.5172	sub-25	1	sequence	interval	dot	NaN	NaN	NaN	NaN	NaN	NaN	NaN	NaN	NaN	NaN	NaN	NaN
199.82239769999975	0.0999	sub-25	1	sequence	stimulus	Gesicht	NaN	NaN	512.0	NaN	NaN	1.0	5.0	NaN	NaN	NaN	NaN	NaN
199.9223419000009	0.5171	sub-25	1	sequence	interval	dot	NaN	NaN	NaN	NaN	NaN	NaN	NaN	NaN	NaN	NaN	NaN	NaN
200.43948529999943	6.153	sub-25	1	sequence	delay	dot	NaN	NaN	NaN	NaN	NaN	NaN	NaN	NaN	NaN	NaN	NaN	NaN
206.5778166	0.8172	sub-25	1	sequence	choice	choice	left	NaN	NaN	0.7926284999994095	True	NaN	NaN	left	True	3.0	4.0	3.0
207.39521199999945	0.5003	sub-25	1	sequence	feedback	NaN	NaN	NaN	NaN	NaN	NaN	NaN	NaN	NaN	NaN	NaN	NaN	NaN
207.89560560000064	1.0007	sub-25	1	sequence	cue	Katze	NaN	NaN	NaN	NaN	NaN	NaN	NaN	NaN	NaN	NaN	NaN	NaN
208.8963119	2.0016	sub-25	1	sequence	blank	blank	NaN	NaN	NaN	NaN	NaN	NaN	NaN	NaN	NaN	NaN	NaN	NaN
210.89794299999997	0.3002	sub-25	1	sequence	fixation	dot	NaN	NaN	NaN	NaN	NaN	NaN	NaN	NaN	NaN	NaN	NaN	NaN
211.21568769999976	0.0991	sub-25	1	sequence	stimulus	Schuh	NaN	NaN	64.0	NaN	NaN	4.0	1.0	NaN	NaN	NaN	NaN	NaN
211.31476680000011	0.0669	sub-25	1	sequence	interval	dot	NaN	NaN	NaN	NaN	NaN	NaN	NaN	NaN	NaN	NaN	NaN	NaN
211.3816220000008	0.0999	sub-25	1	sequence	stimulus	Katze	NaN	NaN	64.0	NaN	NaN	3.0	2.0	NaN	NaN	NaN	NaN	NaN
211.48156019999988	0.0669	sub-25	1	sequence	interval	dot	NaN	NaN	NaN	NaN	NaN	NaN	NaN	NaN	NaN	NaN	NaN	NaN
211.5484225	0.1	sub-25	1	sequence	stimulus	Gesicht	NaN	NaN	64.0	NaN	NaN	1.0	3.0	NaN	NaN	NaN	NaN	NaN
211.648397500001	0.0668	sub-25	1	sequence	interval	dot	NaN	NaN	NaN	NaN	NaN	NaN	NaN	NaN	NaN	NaN	NaN	NaN
211.7152313000006	0.0999	sub-25	1	sequence	stimulus	Haus	NaN	NaN	64.0	NaN	NaN	2.0	4.0	NaN	NaN	NaN	NaN	NaN
211.8151792000008	0.0668	sub-25	1	sequence	interval	dot	NaN	NaN	NaN	NaN	NaN	NaN	NaN	NaN	NaN	NaN	NaN	NaN
211.88201450000088	0.1	sub-25	1	sequence	stimulus	Stuhl	NaN	NaN	64.0	NaN	NaN	5.0	5.0	NaN	NaN	NaN	NaN	NaN
211.9819774000007	0.0667	sub-25	1	sequence	interval	dot	NaN	NaN	NaN	NaN	NaN	NaN	NaN	NaN	NaN	NaN	NaN	NaN
212.04870830000075	8.3882	sub-25	1	sequence	delay	dot	NaN	NaN	NaN	NaN	NaN	NaN	NaN	NaN	NaN	NaN	NaN	NaN
220.4094419000012	0.8805	sub-25	1	sequence	choice	choice	right	NaN	NaN	0.8362897000006342	True	NaN	NaN	right	True	3.0	2.0	2.0
221.2900611000005	0.5001	sub-25	1	sequence	feedback	NaN	NaN	NaN	NaN	NaN	NaN	NaN	NaN	NaN	NaN	NaN	NaN	NaN
225.61065280000005	0.4994	sub-25	1	localizer	stimulus	Schuh	NaN	0	2.885597699998442	NaN	True	NaN	NaN	NaN	NaN	NaN	NaN	NaN
226.093507900001	2.8856	sub-25	1	localizer	blank	interval	NaN	NaN	NaN	NaN	NaN	NaN	NaN	NaN	NaN	NaN	NaN	NaN
229.2802367000004	0.4996	sub-25	1	localizer	stimulus	Katze	NaN	0	2.835584899999958	NaN	True	NaN	NaN	NaN	NaN	NaN	NaN	NaN
229.76314439999987	2.8356	sub-25	1	localizer	blank	interval	NaN	NaN	NaN	NaN	NaN	NaN	NaN	NaN	NaN	NaN	NaN	NaN
232.8998100999997	0.4996	sub-25	1	localizer	stimulus	Katze	NaN	180	3.3024333000011836	0.4773753000008582	True	NaN	NaN	NaN	NaN	NaN	NaN	NaN
233.38282699999945	3.3024	sub-25	1	localizer	blank	interval	NaN	NaN	NaN	NaN	NaN	NaN	NaN	NaN	NaN	NaN	NaN	NaN
236.9864163000002	0.4995	sub-25	1	localizer	stimulus	Gesicht	NaN	0	3.0691559000005952	NaN	True	NaN	NaN	NaN	NaN	NaN	NaN	NaN
237.4693819000004	3.0692	sub-25	1	localizer	blank	interval	NaN	NaN	NaN	NaN	NaN	NaN	NaN	NaN	NaN	NaN	NaN	NaN
240.8396408999997	0.4995	sub-25	1	localizer	stimulus	Katze	NaN	0	2.3518874999990658	NaN	True	NaN	NaN	NaN	NaN	NaN	NaN	NaN
241.32261070000092	2.3519	sub-25	1	localizer	blank	interval	NaN	NaN	NaN	NaN	NaN	NaN	NaN	NaN	NaN	NaN	NaN	NaN
243.97557659999984	0.4993	sub-25	1	localizer	stimulus	Stuhl	NaN	0	3.1857764999986102	NaN	True	NaN	NaN	NaN	NaN	NaN	NaN	NaN
244.45835120000083	3.1858	sub-25	1	localizer	blank	interval	NaN	NaN	NaN	NaN	NaN	NaN	NaN	NaN	NaN	NaN	NaN	NaN
247.9453059999996	0.4994	sub-25	1	localizer	stimulus	Katze	NaN	0	1.4176451000002999	NaN	True	NaN	NaN	NaN	NaN	NaN	NaN	NaN
248.4282662000005	1.4176	sub-25	1	localizer	blank	interval	NaN	NaN	NaN	NaN	NaN	NaN	NaN	NaN	NaN	NaN	NaN	NaN
250.14711569999963	0.4994	sub-25	1	localizer	stimulus	Haus	NaN	0	2.6019806000004166	NaN	True	NaN	NaN	NaN	NaN	NaN	NaN	NaN
250.63003899999967	2.602	sub-25	1	localizer	blank	interval	NaN	NaN	NaN	NaN	NaN	NaN	NaN	NaN	NaN	NaN	NaN	NaN
253.53317629999947	0.4995	sub-25	1	localizer	stimulus	Gesicht	NaN	180	2.8855557999995654	0.5080144000003202	True	NaN	NaN	NaN	NaN	NaN	NaN	NaN
254.01609710000048	2.8856	sub-25	1	localizer	blank	interval	NaN	NaN	NaN	NaN	NaN	NaN	NaN	NaN	NaN	NaN	NaN	NaN
257.202831300001	0.4994	sub-25	1	localizer	stimulus	Haus	NaN	0	3.1190886000003957	NaN	True	NaN	NaN	NaN	NaN	NaN	NaN	NaN
257.6857407999996	3.1191	sub-25	1	localizer	blank	interval	NaN	NaN	NaN	NaN	NaN	NaN	NaN	NaN	NaN	NaN	NaN	NaN
261.10607340000024	0.4995	sub-25	1	localizer	stimulus	Schuh	NaN	0	2.3352310999998735	NaN	True	NaN	NaN	NaN	NaN	NaN	NaN	NaN
261.58903310000096	2.3352	sub-25	1	localizer	blank	interval	NaN	NaN	NaN	NaN	NaN	NaN	NaN	NaN	NaN	NaN	NaN	NaN
264.2253610000007	0.4995	sub-25	1	localizer	stimulus	Stuhl	NaN	0	2.1680606999998986	NaN	True	NaN	NaN	NaN	NaN	NaN	NaN	NaN
264.70828260000053	2.1681	sub-25	1	localizer	blank	interval	NaN	NaN	NaN	NaN	NaN	NaN	NaN	NaN	NaN	NaN	NaN	NaN
267.1775111999996	0.4995	sub-25	1	localizer	stimulus	Haus	NaN	0	3.5694241000001057	NaN	True	NaN	NaN	NaN	NaN	NaN	NaN	NaN
267.6604604000004	3.5694	sub-25	1	localizer	blank	interval	NaN	NaN	NaN	NaN	NaN	NaN	NaN	NaN	NaN	NaN	NaN	NaN
271.53103980000014	0.4995	sub-25	1	localizer	stimulus	Stuhl	NaN	0	2.7187281000005896	NaN	True	NaN	NaN	NaN	NaN	NaN	NaN	NaN
272.0139820000004	2.7187	sub-25	1	localizer	blank	interval	NaN	NaN	NaN	NaN	NaN	NaN	NaN	NaN	NaN	NaN	NaN	NaN
275.03388350000023	0.4995	sub-25	1	localizer	stimulus	Gesicht	NaN	0	2.05149849999907	NaN	True	NaN	NaN	NaN	NaN	NaN	NaN	NaN
275.5168398000005	2.0515	sub-25	1	localizer	blank	interval	NaN	NaN	NaN	NaN	NaN	NaN	NaN	NaN	NaN	NaN	NaN	NaN
277.8694857999999	0.4995	sub-25	1	localizer	stimulus	Stuhl	NaN	180	2.9022662000006676	0.5396680000012566	True	NaN	NaN	NaN	NaN	NaN	NaN	NaN
278.35241979999955	2.9023	sub-25	1	localizer	blank	interval	NaN	NaN	NaN	NaN	NaN	NaN	NaN	NaN	NaN	NaN	NaN	NaN
281.5559831999999	0.4994	sub-25	1	localizer	stimulus	Stuhl	NaN	0	2.3351793000001635	NaN	True	NaN	NaN	NaN	NaN	NaN	NaN	NaN
282.0388346	2.3352	sub-25	1	localizer	blank	interval	NaN	NaN	NaN	NaN	NaN	NaN	NaN	NaN	NaN	NaN	NaN	NaN
284.6752400000005	0.4995	sub-25	1	localizer	stimulus	Schuh	NaN	0	2.601726200000485	NaN	True	NaN	NaN	NaN	NaN	NaN	NaN	NaN
285.15818519999993	2.6017	sub-25	1	localizer	blank	interval	NaN	NaN	NaN	NaN	NaN	NaN	NaN	NaN	NaN	NaN	NaN	NaN
288.06110199999966	0.4994	sub-25	1	localizer	stimulus	Haus	NaN	0	1.7679659999994328	NaN	True	NaN	NaN	NaN	NaN	NaN	NaN	NaN
288.54400970000097	1.768	sub-25	1	localizer	blank	interval	NaN	NaN	NaN	NaN	NaN	NaN	NaN	NaN	NaN	NaN	NaN	NaN
290.61315680000007	0.4994	sub-25	1	localizer	stimulus	Haus	NaN	180	1.6511678000006782	0.5560261000009632	True	NaN	NaN	NaN	NaN	NaN	NaN	NaN
291.0960856000001	1.6512	sub-25	1	localizer	blank	interval	NaN	NaN	NaN	NaN	NaN	NaN	NaN	NaN	NaN	NaN	NaN	NaN
293.04839790000005	0.4995	sub-25	1	localizer	stimulus	Katze	NaN	0	2.852179299999989	NaN	True	NaN	NaN	NaN	NaN	NaN	NaN	NaN
293.53135699999984	2.8522	sub-25	1	localizer	blank	interval	NaN	NaN	NaN	NaN	NaN	NaN	NaN	NaN	NaN	NaN	NaN	NaN
296.68469689999984	0.4995	sub-25	1	localizer	stimulus	Schuh	NaN	180	2.134954500001186	0.5724532999993244	True	NaN	NaN	NaN	NaN	NaN	NaN	NaN
297.1675981999997	2.135	sub-25	1	localizer	blank	interval	NaN	NaN	NaN	NaN	NaN	NaN	NaN	NaN	NaN	NaN	NaN	NaN
299.6037395000003	0.4995	sub-25	1	localizer	stimulus	Gesicht	NaN	0	2.8022318999991853	NaN	True	NaN	NaN	NaN	NaN	NaN	NaN	NaN
300.0866633000005	2.8022	sub-25	1	localizer	blank	interval	NaN	NaN	NaN	NaN	NaN	NaN	NaN	NaN	NaN	NaN	NaN	NaN
303.19007240000064	0.4995	sub-25	1	localizer	stimulus	Gesicht	NaN	0	2.235091399999874	NaN	True	NaN	NaN	NaN	NaN	NaN	NaN	NaN
303.67306180000014	2.2351	sub-25	1	localizer	blank	interval	NaN	NaN	NaN	NaN	NaN	NaN	NaN	NaN	NaN	NaN	NaN	NaN
306.20928300000014	0.4995	sub-25	1	localizer	stimulus	Schuh	NaN	0	3.1521931999996013	NaN	True	NaN	NaN	NaN	NaN	NaN	NaN	NaN
306.6922271000003	3.1522	sub-25	1	localizer	blank	interval	NaN	NaN	NaN	NaN	NaN	NaN	NaN	NaN	NaN	NaN	NaN	NaN
313.33092810000016	1.0005	sub-25	1	sequence	cue	Stuhl	NaN	NaN	NaN	NaN	NaN	NaN	NaN	NaN	NaN	NaN	NaN	NaN
314.3314265000008	2.0016	sub-25	1	sequence	blank	blank	NaN	NaN	NaN	NaN	NaN	NaN	NaN	NaN	NaN	NaN	NaN	NaN
316.33302430000003	0.3002	sub-25	1	sequence	fixation	dot	NaN	NaN	NaN	NaN	NaN	NaN	NaN	NaN	NaN	NaN	NaN	NaN
316.6508173000002	0.0992	sub-25	1	sequence	stimulus	Gesicht	NaN	NaN	64.0	NaN	NaN	1.0	1.0	NaN	NaN	NaN	NaN	NaN
316.7499958999997	0.0669	sub-25	1	sequence	interval	dot	NaN	NaN	NaN	NaN	NaN	NaN	NaN	NaN	NaN	NaN	NaN	NaN
316.81685070000094	0.1	sub-25	1	sequence	stimulus	Haus	NaN	NaN	64.0	NaN	NaN	2.0	2.0	NaN	NaN	NaN	NaN	NaN
316.9168067999999	0.0668	sub-25	1	sequence	interval	dot	NaN	NaN	NaN	NaN	NaN	NaN	NaN	NaN	NaN	NaN	NaN	NaN
316.98364279999987	0.1	sub-25	1	sequence	stimulus	Katze	NaN	NaN	64.0	NaN	NaN	3.0	3.0	NaN	NaN	NaN	NaN	NaN
317.0836035000011	0.0668	sub-25	1	sequence	interval	dot	NaN	NaN	NaN	NaN	NaN	NaN	NaN	NaN	NaN	NaN	NaN	NaN
317.1504358000002	0.1	sub-25	1	sequence	stimulus	Stuhl	NaN	NaN	64.0	NaN	NaN	5.0	4.0	NaN	NaN	NaN	NaN	NaN
317.2504031000008	0.0669	sub-25	1	sequence	interval	dot	NaN	NaN	NaN	NaN	NaN	NaN	NaN	NaN	NaN	NaN	NaN	NaN
317.31727200000023	0.0999	sub-25	1	sequence	stimulus	Schuh	NaN	NaN	64.0	NaN	NaN	4.0	5.0	NaN	NaN	NaN	NaN	NaN
317.41719270000067	0.0667	sub-25	1	sequence	interval	dot	NaN	NaN	NaN	NaN	NaN	NaN	NaN	NaN	NaN	NaN	NaN	NaN
317.4839145999995	8.3718	sub-25	1	sequence	delay	dot	NaN	NaN	NaN	NaN	NaN	NaN	NaN	NaN	NaN	NaN	NaN	NaN
325.837126800001	0.8548	sub-25	1	sequence	choice	choice	right	NaN	NaN	0.8334771999998338	True	NaN	NaN	right	True	5.0	4.0	4.0
326.69209500000034	0.5001	sub-25	1	sequence	feedback	NaN	NaN	NaN	NaN	NaN	NaN	NaN	NaN	NaN	NaN	NaN	NaN	NaN
327.1923113000012	1.0003	sub-25	1	sequence	cue	Gesicht	NaN	NaN	NaN	NaN	NaN	NaN	NaN	NaN	NaN	NaN	NaN	NaN
328.1926394000002	2.0016	sub-25	1	sequence	blank	blank	NaN	NaN	NaN	NaN	NaN	NaN	NaN	NaN	NaN	NaN	NaN	NaN
330.19426849999945	0.3002	sub-25	1	sequence	fixation	dot	NaN	NaN	NaN	NaN	NaN	NaN	NaN	NaN	NaN	NaN	NaN	NaN
330.51301539999986	0.1149	sub-25	1	sequence	stimulus	Katze	NaN	NaN	128.0	NaN	NaN	3.0	1.0	NaN	NaN	NaN	NaN	NaN
330.62788230000115	0.1336	sub-25	1	sequence	interval	dot	NaN	NaN	NaN	NaN	NaN	NaN	NaN	NaN	NaN	NaN	NaN	NaN
330.76143390000107	0.1	sub-25	1	sequence	stimulus	Stuhl	NaN	NaN	128.0	NaN	NaN	5.0	2.0	NaN	NaN	NaN	NaN	NaN
330.86138740000024	0.1336	sub-25	1	sequence	interval	dot	NaN	NaN	NaN	NaN	NaN	NaN	NaN	NaN	NaN	NaN	NaN	NaN
330.99502550000034	0.0999	sub-25	1	sequence	stimulus	Haus	NaN	NaN	128.0	NaN	NaN	2.0	3.0	NaN	NaN	NaN	NaN	NaN
331.0949161999997	0.1336	sub-25	1	sequence	interval	dot	NaN	NaN	NaN	NaN	NaN	NaN	NaN	NaN	NaN	NaN	NaN	NaN
331.2284662000002	0.1	sub-25	1	sequence	stimulus	Schuh	NaN	NaN	128.0	NaN	NaN	4.0	4.0	NaN	NaN	NaN	NaN	NaN
331.3284502999996	0.1335	sub-25	1	sequence	interval	dot	NaN	NaN	NaN	NaN	NaN	NaN	NaN	NaN	NaN	NaN	NaN	NaN
331.46199460000025	0.1	sub-25	1	sequence	stimulus	Gesicht	NaN	NaN	128.0	NaN	NaN	1.0	5.0	NaN	NaN	NaN	NaN	NaN
331.5619638999997	0.1335	sub-25	1	sequence	interval	dot	NaN	NaN	NaN	NaN	NaN	NaN	NaN	NaN	NaN	NaN	NaN	NaN
331.69543130000056	8.0713	sub-25	1	sequence	delay	dot	NaN	NaN	NaN	NaN	NaN	NaN	NaN	NaN	NaN	NaN	NaN	NaN
339.74677800000063	0.8059	sub-25	1	sequence	choice	choice	right	NaN	NaN	0.7783115999991423	True	NaN	NaN	right	True	4.0	5.0	5.0
340.5528703	0.5005	sub-25	1	sequence	feedback	NaN	NaN	NaN	NaN	NaN	NaN	NaN	NaN	NaN	NaN	NaN	NaN	NaN
341.05355710000003	1.0007	sub-25	1	sequence	cue	Gesicht	NaN	NaN	NaN	NaN	NaN	NaN	NaN	NaN	NaN	NaN	NaN	NaN
342.0542889999997	2.0011	sub-25	1	sequence	blank	blank	NaN	NaN	NaN	NaN	NaN	NaN	NaN	NaN	NaN	NaN	NaN	NaN
344.05541319999975	0.3002	sub-25	1	sequence	fixation	dot	NaN	NaN	NaN	NaN	NaN	NaN	NaN	NaN	NaN	NaN	NaN	NaN
344.3740226000009	0.1151	sub-25	1	sequence	stimulus	Katze	NaN	NaN	512.0	NaN	NaN	3.0	1.0	NaN	NaN	NaN	NaN	NaN
344.48907900000086	0.5173	sub-25	1	sequence	interval	dot	NaN	NaN	NaN	NaN	NaN	NaN	NaN	NaN	NaN	NaN	NaN	NaN
345.00636190000114	0.1	sub-25	1	sequence	stimulus	Stuhl	NaN	NaN	512.0	NaN	NaN	5.0	2.0	NaN	NaN	NaN	NaN	NaN
345.1063253000011	0.5173	sub-25	1	sequence	interval	dot	NaN	NaN	NaN	NaN	NaN	NaN	NaN	NaN	NaN	NaN	NaN	NaN
345.6236116	0.0999	sub-25	1	sequence	stimulus	Gesicht	NaN	NaN	512.0	NaN	NaN	1.0	3.0	NaN	NaN	NaN	NaN	NaN
345.7235295999999	0.5172	sub-25	1	sequence	interval	dot	NaN	NaN	NaN	NaN	NaN	NaN	NaN	NaN	NaN	NaN	NaN	NaN
346.2407499000001	0.0999	sub-25	1	sequence	stimulus	Schuh	NaN	NaN	512.0	NaN	NaN	4.0	4.0	NaN	NaN	NaN	NaN	NaN
346.3406586000001	0.5173	sub-25	1	sequence	interval	dot	NaN	NaN	NaN	NaN	NaN	NaN	NaN	NaN	NaN	NaN	NaN	NaN
346.8579222000008	0.0999	sub-25	1	sequence	stimulus	Haus	NaN	NaN	512.0	NaN	NaN	2.0	5.0	NaN	NaN	NaN	NaN	NaN
346.95786840000073	0.5172	sub-25	1	sequence	interval	dot	NaN	NaN	NaN	NaN	NaN	NaN	NaN	NaN	NaN	NaN	NaN	NaN
347.4750318999995	6.153	sub-25	1	sequence	delay	dot	NaN	NaN	NaN	NaN	NaN	NaN	NaN	NaN	NaN	NaN	NaN	NaN
353.6044739999997	0.8261	sub-25	1	sequence	choice	choice	right	NaN	NaN	0.7890176000000793	True	NaN	NaN	right	True	2.0	3.0	3.0
354.4306979000012	0.5003	sub-25	1	sequence	feedback	NaN	NaN	NaN	NaN	NaN	NaN	NaN	NaN	NaN	NaN	NaN	NaN	NaN
354.9311197999996	1.0006	sub-25	1	sequence	cue	Gesicht	NaN	NaN	NaN	NaN	NaN	NaN	NaN	NaN	NaN	NaN	NaN	NaN
355.9317110000011	2.0016	sub-25	1	sequence	blank	blank	NaN	NaN	NaN	NaN	NaN	NaN	NaN	NaN	NaN	NaN	NaN	NaN
357.93330369999967	0.3003	sub-25	1	sequence	fixation	dot	NaN	NaN	NaN	NaN	NaN	NaN	NaN	NaN	NaN	NaN	NaN	NaN
358.2511357000003	0.0992	sub-25	1	sequence	stimulus	Schuh	NaN	NaN	64.0	NaN	NaN	4.0	1.0	NaN	NaN	NaN	NaN	NaN
358.35031420000087	0.0668	sub-25	1	sequence	interval	dot	NaN	NaN	NaN	NaN	NaN	NaN	NaN	NaN	NaN	NaN	NaN	NaN
358.4171315000003	0.1	sub-25	1	sequence	stimulus	Katze	NaN	NaN	64.0	NaN	NaN	3.0	2.0	NaN	NaN	NaN	NaN	NaN
358.51709330000085	0.0668	sub-25	1	sequence	interval	dot	NaN	NaN	NaN	NaN	NaN	NaN	NaN	NaN	NaN	NaN	NaN	NaN
358.58392710000044	0.1	sub-25	1	sequence	stimulus	Gesicht	NaN	NaN	64.0	NaN	NaN	1.0	3.0	NaN	NaN	NaN	NaN	NaN
358.68391560000055	0.0669	sub-25	1	sequence	interval	dot	NaN	NaN	NaN	NaN	NaN	NaN	NaN	NaN	NaN	NaN	NaN	NaN
358.7507714000003	0.0999	sub-25	1	sequence	stimulus	Haus	NaN	NaN	64.0	NaN	NaN	2.0	4.0	NaN	NaN	NaN	NaN	NaN
358.8507014999996	0.0668	sub-25	1	sequence	interval	dot	NaN	NaN	NaN	NaN	NaN	NaN	NaN	NaN	NaN	NaN	NaN	NaN
358.9175097999996	0.1	sub-25	1	sequence	stimulus	Stuhl	NaN	NaN	64.0	NaN	NaN	5.0	5.0	NaN	NaN	NaN	NaN	NaN
359.0174889000009	0.0667	sub-25	1	sequence	interval	dot	NaN	NaN	NaN	NaN	NaN	NaN	NaN	NaN	NaN	NaN	NaN	NaN
359.0842296999999	8.3717	sub-25	1	sequence	delay	dot	NaN	NaN	NaN	NaN	NaN	NaN	NaN	NaN	NaN	NaN	NaN	NaN
367.4361673000003	0.8224	sub-25	1	sequence	choice	choice	left	NaN	NaN	0.8013439000005746	True	NaN	NaN	left	True	3.0	4.0	3.0
368.25873150000007	0.5002	sub-25	1	sequence	feedback	NaN	NaN	NaN	NaN	NaN	NaN	NaN	NaN	NaN	NaN	NaN	NaN	NaN
368.75911240000096	1.0006	sub-25	1	sequence	cue	Haus	NaN	NaN	NaN	NaN	NaN	NaN	NaN	NaN	NaN	NaN	NaN	NaN
369.7596749000004	2.0014	sub-25	1	sequence	blank	blank	NaN	NaN	NaN	NaN	NaN	NaN	NaN	NaN	NaN	NaN	NaN	NaN
371.7611267000011	0.3004	sub-25	1	sequence	fixation	dot	NaN	NaN	NaN	NaN	NaN	NaN	NaN	NaN	NaN	NaN	NaN	NaN
372.0798063000002	0.115	sub-25	1	sequence	stimulus	Katze	NaN	NaN	32.0	NaN	NaN	3.0	1.0	NaN	NaN	NaN	NaN	NaN
372.194809300001	0.0335	sub-25	1	sequence	interval	dot	NaN	NaN	NaN	NaN	NaN	NaN	NaN	NaN	NaN	NaN	NaN	NaN
372.228296700001	0.1	sub-25	1	sequence	stimulus	Stuhl	NaN	NaN	32.0	NaN	NaN	5.0	2.0	NaN	NaN	NaN	NaN	NaN
372.3282639000008	0.0335	sub-25	1	sequence	interval	dot	NaN	NaN	NaN	NaN	NaN	NaN	NaN	NaN	NaN	NaN	NaN	NaN
372.3617408999999	0.0999	sub-25	1	sequence	stimulus	Schuh	NaN	NaN	32.0	NaN	NaN	4.0	3.0	NaN	NaN	NaN	NaN	NaN
372.46169030000055	0.0335	sub-25	1	sequence	interval	dot	NaN	NaN	NaN	NaN	NaN	NaN	NaN	NaN	NaN	NaN	NaN	NaN
372.4952234000011	0.0999	sub-25	1	sequence	stimulus	Haus	NaN	NaN	32.0	NaN	NaN	2.0	4.0	NaN	NaN	NaN	NaN	NaN
372.5951181	0.0335	sub-25	1	sequence	interval	dot	NaN	NaN	NaN	NaN	NaN	NaN	NaN	NaN	NaN	NaN	NaN	NaN
372.62861150000026	0.1	sub-25	1	sequence	stimulus	Gesicht	NaN	NaN	32.0	NaN	NaN	1.0	5.0	NaN	NaN	NaN	NaN	NaN
372.7285692000005	0.0337	sub-25	1	sequence	interval	dot	NaN	NaN	NaN	NaN	NaN	NaN	NaN	NaN	NaN	NaN	NaN	NaN
372.7622229000008	8.5216	sub-25	1	sequence	delay	dot	NaN	NaN	NaN	NaN	NaN	NaN	NaN	NaN	NaN	NaN	NaN	NaN
381.2679198000005	0.835	sub-25	1	sequence	choice	choice	left	NaN	NaN	0.813182500000039	True	NaN	NaN	left	True	4.0	5.0	4.0
382.1030948999996	0.5002	sub-25	1	sequence	feedback	NaN	NaN	NaN	NaN	NaN	NaN	NaN	NaN	NaN	NaN	NaN	NaN	NaN
382.6034012	1.0007	sub-25	1	sequence	cue	Katze	NaN	NaN	NaN	NaN	NaN	NaN	NaN	NaN	NaN	NaN	NaN	NaN
383.6040783999997	2.0016	sub-25	1	sequence	blank	blank	NaN	NaN	NaN	NaN	NaN	NaN	NaN	NaN	NaN	NaN	NaN	NaN
385.6056726999996	0.3003	sub-25	1	sequence	fixation	dot	NaN	NaN	NaN	NaN	NaN	NaN	NaN	NaN	NaN	NaN	NaN	NaN
385.9242974999997	0.115	sub-25	1	sequence	stimulus	Stuhl	NaN	NaN	512.0	NaN	NaN	5.0	1.0	NaN	NaN	NaN	NaN	NaN
386.0393242999999	0.5172	sub-25	1	sequence	interval	dot	NaN	NaN	NaN	NaN	NaN	NaN	NaN	NaN	NaN	NaN	NaN	NaN
386.55657240000073	0.1	sub-25	1	sequence	stimulus	Katze	NaN	NaN	512.0	NaN	NaN	3.0	2.0	NaN	NaN	NaN	NaN	NaN
386.65653290000046	0.5173	sub-25	1	sequence	interval	dot	NaN	NaN	NaN	NaN	NaN	NaN	NaN	NaN	NaN	NaN	NaN	NaN
387.1738544	0.1	sub-25	1	sequence	stimulus	Haus	NaN	NaN	512.0	NaN	NaN	2.0	3.0	NaN	NaN	NaN	NaN	NaN
387.273817700001	0.5172	sub-25	1	sequence	interval	dot	NaN	NaN	NaN	NaN	NaN	NaN	NaN	NaN	NaN	NaN	NaN	NaN
387.79103940000095	0.0999	sub-25	1	sequence	stimulus	Schuh	NaN	NaN	512.0	NaN	NaN	4.0	4.0	NaN	NaN	NaN	NaN	NaN
387.89095889999953	0.5171	sub-25	1	sequence	interval	dot	NaN	NaN	NaN	NaN	NaN	NaN	NaN	NaN	NaN	NaN	NaN	NaN
388.4080238000006	0.1168	sub-25	1	sequence	stimulus	Gesicht	NaN	NaN	512.0	NaN	NaN	1.0	5.0	NaN	NaN	NaN	NaN	NaN
388.5247983000008	0.5171	sub-25	1	sequence	interval	dot	NaN	NaN	NaN	NaN	NaN	NaN	NaN	NaN	NaN	NaN	NaN	NaN
389.0419316000007	6.1531	sub-25	1	sequence	delay	dot	NaN	NaN	NaN	NaN	NaN	NaN	NaN	NaN	NaN	NaN	NaN	NaN
395.1775686000001	0.8034	sub-25	1	sequence	choice	choice	right	NaN	NaN	0.7740739000000758	True	NaN	NaN	right	True	5.0	2.0	2.0
395.98114110000097	0.5	sub-25	1	sequence	feedback	NaN	NaN	NaN	NaN	NaN	NaN	NaN	NaN	NaN	NaN	NaN	NaN	NaN
396.48130540000056	1.0007	sub-25	1	sequence	cue	Katze	NaN	NaN	NaN	NaN	NaN	NaN	NaN	NaN	NaN	NaN	NaN	NaN
397.48203920000014	2.0015	sub-25	1	sequence	blank	blank	NaN	NaN	NaN	NaN	NaN	NaN	NaN	NaN	NaN	NaN	NaN	NaN
399.4835220000005	0.3003	sub-25	1	sequence	fixation	dot	NaN	NaN	NaN	NaN	NaN	NaN	NaN	NaN	NaN	NaN	NaN	NaN
399.8015240000004	0.1157	sub-25	1	sequence	stimulus	Haus	NaN	NaN	128.0	NaN	NaN	2.0	1.0	NaN	NaN	NaN	NaN	NaN
399.9172025000007	0.1336	sub-25	1	sequence	interval	dot	NaN	NaN	NaN	NaN	NaN	NaN	NaN	NaN	NaN	NaN	NaN	NaN
400.0507722000002	0.1	sub-25	1	sequence	stimulus	Schuh	NaN	NaN	128.0	NaN	NaN	4.0	2.0	NaN	NaN	NaN	NaN	NaN
400.15080450000096	0.1335	sub-25	1	sequence	interval	dot	NaN	NaN	NaN	NaN	NaN	NaN	NaN	NaN	NaN	NaN	NaN	NaN
400.2842889000003	0.1	sub-25	1	sequence	stimulus	Stuhl	NaN	NaN	128.0	NaN	NaN	5.0	3.0	NaN	NaN	NaN	NaN	NaN
400.3843176999999	0.1335	sub-25	1	sequence	interval	dot	NaN	NaN	NaN	NaN	NaN	NaN	NaN	NaN	NaN	NaN	NaN	NaN
400.51780789999975	0.1	sub-25	1	sequence	stimulus	Gesicht	NaN	NaN	128.0	NaN	NaN	1.0	4.0	NaN	NaN	NaN	NaN	NaN
400.617781500001	0.1336	sub-25	1	sequence	interval	dot	NaN	NaN	NaN	NaN	NaN	NaN	NaN	NaN	NaN	NaN	NaN	NaN
400.75134570000046	0.1	sub-25	1	sequence	stimulus	Katze	NaN	NaN	128.0	NaN	NaN	3.0	5.0	NaN	NaN	NaN	NaN	NaN
400.85131	0.1334	sub-25	1	sequence	interval	dot	NaN	NaN	NaN	NaN	NaN	NaN	NaN	NaN	NaN	NaN	NaN	NaN
400.98474780000106	8.0714	sub-25	1	sequence	delay	dot	NaN	NaN	NaN	NaN	NaN	NaN	NaN	NaN	NaN	NaN	NaN	NaN
409.03524990000005	0.8236	sub-25	1	sequence	choice	choice	left	NaN	NaN	0.7928704999994807	True	NaN	NaN	left	True	5.0	1.0	5.0
409.8590263999995	0.5002	sub-25	1	sequence	feedback	NaN	NaN	NaN	NaN	NaN	NaN	NaN	NaN	NaN	NaN	NaN	NaN	NaN
410.3594028999996	1.0007	sub-25	1	sequence	cue	Stuhl	NaN	NaN	NaN	NaN	NaN	NaN	NaN	NaN	NaN	NaN	NaN	NaN
411.3600932000009	2.0014	sub-25	1	sequence	blank	blank	NaN	NaN	NaN	NaN	NaN	NaN	NaN	NaN	NaN	NaN	NaN	NaN
413.3614508999999	0.3003	sub-25	1	sequence	fixation	dot	NaN	NaN	NaN	NaN	NaN	NaN	NaN	NaN	NaN	NaN	NaN	NaN
413.6802595000008	0.1148	sub-25	1	sequence	stimulus	Schuh	NaN	NaN	32.0	NaN	NaN	4.0	1.0	NaN	NaN	NaN	NaN	NaN
413.7950801999996	0.0335	sub-25	1	sequence	interval	dot	NaN	NaN	NaN	NaN	NaN	NaN	NaN	NaN	NaN	NaN	NaN	NaN
413.82857850000073	0.1	sub-25	1	sequence	stimulus	Katze	NaN	NaN	32.0	NaN	NaN	3.0	2.0	NaN	NaN	NaN	NaN	NaN
413.9285369999998	0.0335	sub-25	1	sequence	interval	dot	NaN	NaN	NaN	NaN	NaN	NaN	NaN	NaN	NaN	NaN	NaN	NaN
413.9620689000003	0.0999	sub-25	1	sequence	stimulus	Haus	NaN	NaN	32.0	NaN	NaN	2.0	3.0	NaN	NaN	NaN	NaN	NaN
414.0619958000007	0.0334	sub-25	1	sequence	interval	dot	NaN	NaN	NaN	NaN	NaN	NaN	NaN	NaN	NaN	NaN	NaN	NaN
414.09543440000016	0.1	sub-25	1	sequence	stimulus	Stuhl	NaN	NaN	32.0	NaN	NaN	5.0	4.0	NaN	NaN	NaN	NaN	NaN
414.1954249999999	0.0335	sub-25	1	sequence	interval	dot	NaN	NaN	NaN	NaN	NaN	NaN	NaN	NaN	NaN	NaN	NaN	NaN
414.2289056999998	0.0999	sub-25	1	sequence	stimulus	Gesicht	NaN	NaN	32.0	NaN	NaN	1.0	5.0	NaN	NaN	NaN	NaN	NaN
414.3288556000007	0.0334	sub-25	1	sequence	interval	dot	NaN	NaN	NaN	NaN	NaN	NaN	NaN	NaN	NaN	NaN	NaN	NaN
414.3622250000008	8.5218	sub-25	1	sequence	delay	dot	NaN	NaN	NaN	NaN	NaN	NaN	NaN	NaN	NaN	NaN	NaN	NaN
422.8669580000005	0.7529	sub-25	1	sequence	choice	choice	left	NaN	NaN	0.7250737999984267	True	NaN	NaN	left	True	4.0	5.0	4.0
423.6199818999994	0.5002	sub-25	1	sequence	feedback	NaN	NaN	NaN	NaN	NaN	NaN	NaN	NaN	NaN	NaN	NaN	NaN	NaN
424.1205098999999	6.7053	sub-25	1	other	break	break	NaN	NaN	NaN	NaN	NaN	NaN	NaN	NaN	NaN	NaN	NaN	NaN
434.6462241000008	0.4995	sub-25	1	localizer	stimulus	Katze	NaN	0	2.6521809000005305	NaN	True	NaN	NaN	NaN	NaN	NaN	NaN	NaN
435.1456870000002	2.6522	sub-25	1	localizer	blank	interval	NaN	NaN	NaN	NaN	NaN	NaN	NaN	NaN	NaN	NaN	NaN	NaN
438.09901700000046	0.4996	sub-25	1	localizer	stimulus	Gesicht	NaN	0	2.802004899998792	NaN	True	NaN	NaN	NaN	NaN	NaN	NaN	NaN
438.5820971000012	2.802	sub-25	1	localizer	blank	interval	NaN	NaN	NaN	NaN	NaN	NaN	NaN	NaN	NaN	NaN	NaN	NaN
441.6852784000002	0.4994	sub-25	1	localizer	stimulus	Katze	NaN	180	2.868888099999822	0.5318862999993144	True	NaN	NaN	NaN	NaN	NaN	NaN	NaN
442.1681767000009	2.8689	sub-25	1	localizer	blank	interval	NaN	NaN	NaN	NaN	NaN	NaN	NaN	NaN	NaN	NaN	NaN	NaN
445.3381862999995	0.4995	sub-25	1	localizer	stimulus	Schuh	NaN	0	2.2683649999998465	NaN	True	NaN	NaN	NaN	NaN	NaN	NaN	NaN
445.8211568999996	2.2684	sub-25	1	localizer	blank	interval	NaN	NaN	NaN	NaN	NaN	NaN	NaN	NaN	NaN	NaN	NaN	NaN
448.3908773000003	0.4993	sub-25	1	localizer	stimulus	Schuh	NaN	0	2.368653900000936	NaN	True	NaN	NaN	NaN	NaN	NaN	NaN	NaN
448.8736074999997	2.3687	sub-25	1	localizer	blank	interval	NaN	NaN	NaN	NaN	NaN	NaN	NaN	NaN	NaN	NaN	NaN	NaN
451.54331880000063	0.4995	sub-25	1	localizer	stimulus	Haus	NaN	0	2.518404799999189	NaN	True	NaN	NaN	NaN	NaN	NaN	NaN	NaN
452.0263403000008	2.5184	sub-25	1	localizer	blank	interval	NaN	NaN	NaN	NaN	NaN	NaN	NaN	NaN	NaN	NaN	NaN	NaN
454.8459411000004	0.4995	sub-25	1	localizer	stimulus	Haus	NaN	0	2.9521393999984866	NaN	True	NaN	NaN	NaN	NaN	NaN	NaN	NaN
455.3289450000011	2.9521	sub-25	1	localizer	blank	interval	NaN	NaN	NaN	NaN	NaN	NaN	NaN	NaN	NaN	NaN	NaN	NaN
458.5822688999997	0.4995	sub-25	1	localizer	stimulus	Schuh	NaN	0	3.1691554999997607	NaN	True	NaN	NaN	NaN	NaN	NaN	NaN	NaN
459.0651533	3.1692	sub-25	1	localizer	blank	interval	NaN	NaN	NaN	NaN	NaN	NaN	NaN	NaN	NaN	NaN	NaN	NaN
462.5354578999995	0.4995	sub-25	1	localizer	stimulus	Stuhl	NaN	0	3.302498699998921	NaN	True	NaN	NaN	NaN	NaN	NaN	NaN	NaN
463.01844470000106	3.3025	sub-25	1	localizer	blank	interval	NaN	NaN	NaN	NaN	NaN	NaN	NaN	NaN	NaN	NaN	NaN	NaN
466.6220799000002	0.4995	sub-25	1	localizer	stimulus	Schuh	NaN	180	1.801326799999515	0.5069485000003624	True	NaN	NaN	NaN	NaN	NaN	NaN	NaN
467.1050180000002	1.8013	sub-25	1	localizer	blank	interval	NaN	NaN	NaN	NaN	NaN	NaN	NaN	NaN	NaN	NaN	NaN	NaN
469.2076981000009	0.4993	sub-25	1	localizer	stimulus	Katze	NaN	0	2.318507699999884	NaN	True	NaN	NaN	NaN	NaN	NaN	NaN	NaN
469.6904118000002	2.3185	sub-25	1	localizer	blank	interval	NaN	NaN	NaN	NaN	NaN	NaN	NaN	NaN	NaN	NaN	NaN	NaN
472.3108731000011	0.5154	sub-25	1	localizer	stimulus	Katze	NaN	0	2.3016179999994506	NaN	True	NaN	NaN	NaN	NaN	NaN	NaN	NaN
472.7930686	2.3016	sub-25	1	localizer	blank	interval	NaN	NaN	NaN	NaN	NaN	NaN	NaN	NaN	NaN	NaN	NaN	NaN
475.395838800001	0.4995	sub-25	1	localizer	stimulus	Haus	NaN	0	2.5019295000001307	NaN	True	NaN	NaN	NaN	NaN	NaN	NaN	NaN
475.8787797000005	2.5019	sub-25	1	localizer	blank	interval	NaN	NaN	NaN	NaN	NaN	NaN	NaN	NaN	NaN	NaN	NaN	NaN
478.68183490000047	0.4995	sub-25	1	localizer	stimulus	Stuhl	NaN	0	1.6845781999999758	NaN	True	NaN	NaN	NaN	NaN	NaN	NaN	NaN
479.1647494000008	1.6846	sub-25	1	localizer	blank	interval	NaN	NaN	NaN	NaN	NaN	NaN	NaN	NaN	NaN	NaN	NaN	NaN
481.15049610000096	0.4994	sub-25	1	localizer	stimulus	Katze	NaN	0	2.3184191999989707	NaN	True	NaN	NaN	NaN	NaN	NaN	NaN	NaN
481.6333917000011	2.3184	sub-25	1	localizer	blank	interval	NaN	NaN	NaN	NaN	NaN	NaN	NaN	NaN	NaN	NaN	NaN	NaN
484.2529869000009	0.4994	sub-25	1	localizer	stimulus	Stuhl	NaN	180	2.4685368000010044	0.54004359999999	True	NaN	NaN	NaN	NaN	NaN	NaN	NaN
484.7359121999998	2.4685	sub-25	1	localizer	blank	interval	NaN	NaN	NaN	NaN	NaN	NaN	NaN	NaN	NaN	NaN	NaN	NaN
487.5056337999995	0.4995	sub-25	1	localizer	stimulus	Gesicht	NaN	0	2.968840600000476	NaN	True	NaN	NaN	NaN	NaN	NaN	NaN	NaN
487.98863320000055	2.9688	sub-25	1	localizer	blank	interval	NaN	NaN	NaN	NaN	NaN	NaN	NaN	NaN	NaN	NaN	NaN	NaN
491.25883760000033	0.4994	sub-25	1	localizer	stimulus	Schuh	NaN	0	2.3351173999999446	NaN	True	NaN	NaN	NaN	NaN	NaN	NaN	NaN
491.7417710999998	2.3351	sub-25	1	localizer	blank	interval	NaN	NaN	NaN	NaN	NaN	NaN	NaN	NaN	NaN	NaN	NaN	NaN
494.3781190000009	0.4994	sub-25	1	localizer	stimulus	Gesicht	NaN	0	3.352350799999897	NaN	True	NaN	NaN	NaN	NaN	NaN	NaN	NaN
494.8609840000008	3.3524	sub-25	1	localizer	blank	interval	NaN	NaN	NaN	NaN	NaN	NaN	NaN	NaN	NaN	NaN	NaN	NaN
498.514492100001	0.4995	sub-25	1	localizer	stimulus	Stuhl	NaN	0	2.752103900000236	NaN	True	NaN	NaN	NaN	NaN	NaN	NaN	NaN
498.9974347000007	2.7521	sub-25	1	localizer	blank	interval	NaN	NaN	NaN	NaN	NaN	NaN	NaN	NaN	NaN	NaN	NaN	NaN
502.0506991000002	0.4995	sub-25	1	localizer	stimulus	Stuhl	NaN	0	2.5185823000010714	NaN	True	NaN	NaN	NaN	NaN	NaN	NaN	NaN
502.5336403000001	2.5186	sub-25	1	localizer	blank	interval	NaN	NaN	NaN	NaN	NaN	NaN	NaN	NaN	NaN	NaN	NaN	NaN
505.3533736999998	0.4995	sub-25	1	localizer	stimulus	Haus	NaN	180	1.6512340000008408	0.5116368999988481	True	NaN	NaN	NaN	NaN	NaN	NaN	NaN
505.8363121000002	1.6512	sub-25	1	localizer	blank	interval	NaN	NaN	NaN	NaN	NaN	NaN	NaN	NaN	NaN	NaN	NaN	NaN
507.7886975000001	0.4995	sub-25	1	localizer	stimulus	Gesicht	NaN	0	2.6186287000000448	NaN	True	NaN	NaN	NaN	NaN	NaN	NaN	NaN
508.2716123000009	2.6186	sub-25	1	localizer	blank	interval	NaN	NaN	NaN	NaN	NaN	NaN	NaN	NaN	NaN	NaN	NaN	NaN
511.1916163999995	0.4993	sub-25	1	localizer	stimulus	Gesicht	NaN	180	2.3686195999998745	0.5373808999993344	True	NaN	NaN	NaN	NaN	NaN	NaN	NaN
511.6743361000008	2.3686	sub-25	1	localizer	blank	interval	NaN	NaN	NaN	NaN	NaN	NaN	NaN	NaN	NaN	NaN	NaN	NaN
514.3607697999996	0.4995	sub-25	1	localizer	stimulus	Haus	NaN	0	3.15221930000007	NaN	True	NaN	NaN	NaN	NaN	NaN	NaN	NaN
514.8271084999997	3.1522	sub-25	1	localizer	blank	interval	NaN	NaN	NaN	NaN	NaN	NaN	NaN	NaN	NaN	NaN	NaN	NaN
521.4658177000001	1.0005	sub-25	1	sequence	cue	Stuhl	NaN	NaN	NaN	NaN	NaN	NaN	NaN	NaN	NaN	NaN	NaN	NaN
522.4663457999995	2.0016	sub-25	1	sequence	blank	blank	NaN	NaN	NaN	NaN	NaN	NaN	NaN	NaN	NaN	NaN	NaN	NaN
524.4679059999999	0.3003	sub-25	1	sequence	fixation	dot	NaN	NaN	NaN	NaN	NaN	NaN	NaN	NaN	NaN	NaN	NaN	NaN
524.7866887	0.1149	sub-25	1	sequence	stimulus	Haus	NaN	NaN	128.0	NaN	NaN	2.0	1.0	NaN	NaN	NaN	NaN	NaN
524.9015634000007	0.1336	sub-25	1	sequence	interval	dot	NaN	NaN	NaN	NaN	NaN	NaN	NaN	NaN	NaN	NaN	NaN	NaN
525.0351353999995	0.1	sub-25	1	sequence	stimulus	Schuh	NaN	NaN	128.0	NaN	NaN	4.0	2.0	NaN	NaN	NaN	NaN	NaN
525.1351040000009	0.1336	sub-25	1	sequence	interval	dot	NaN	NaN	NaN	NaN	NaN	NaN	NaN	NaN	NaN	NaN	NaN	NaN
525.2686582000006	0.0999	sub-25	1	sequence	stimulus	Stuhl	NaN	NaN	128.0	NaN	NaN	5.0	3.0	NaN	NaN	NaN	NaN	NaN
525.3685923000012	0.1336	sub-25	1	sequence	interval	dot	NaN	NaN	NaN	NaN	NaN	NaN	NaN	NaN	NaN	NaN	NaN	NaN
525.5022188000003	0.0999	sub-25	1	sequence	stimulus	Gesicht	NaN	NaN	128.0	NaN	NaN	1.0	4.0	NaN	NaN	NaN	NaN	NaN
525.602149100001	0.1335	sub-25	1	sequence	interval	dot	NaN	NaN	NaN	NaN	NaN	NaN	NaN	NaN	NaN	NaN	NaN	NaN
525.7356872	0.1	sub-25	1	sequence	stimulus	Katze	NaN	NaN	128.0	NaN	NaN	3.0	5.0	NaN	NaN	NaN	NaN	NaN
525.8356719000003	0.1334	sub-25	1	sequence	interval	dot	NaN	NaN	NaN	NaN	NaN	NaN	NaN	NaN	NaN	NaN	NaN	NaN
525.9691055000003	8.0715	sub-25	1	sequence	delay	dot	NaN	NaN	NaN	NaN	NaN	NaN	NaN	NaN	NaN	NaN	NaN	NaN
534.0145073000003	0.812	sub-25	1	sequence	choice	choice	right	NaN	NaN	0.7763505999992049	True	NaN	NaN	right	True	2.0	3.0	3.0
534.826725500001	0.5001	sub-25	1	sequence	feedback	NaN	NaN	NaN	NaN	NaN	NaN	NaN	NaN	NaN	NaN	NaN	NaN	NaN
535.3269612000004	1.0008	sub-25	1	sequence	cue	Schuh	NaN	NaN	NaN	NaN	NaN	NaN	NaN	NaN	NaN	NaN	NaN	NaN
536.3278043999999	2.0016	sub-25	1	sequence	blank	blank	NaN	NaN	NaN	NaN	NaN	NaN	NaN	NaN	NaN	NaN	NaN	NaN
538.3294387000005	0.2999	sub-25	1	sequence	fixation	dot	NaN	NaN	NaN	NaN	NaN	NaN	NaN	NaN	NaN	NaN	NaN	NaN
538.6477066000007	0.1151	sub-25	1	sequence	stimulus	Stuhl	NaN	NaN	512.0	NaN	NaN	5.0	1.0	NaN	NaN	NaN	NaN	NaN
538.7627912000007	0.5172	sub-25	1	sequence	interval	dot	NaN	NaN	NaN	NaN	NaN	NaN	NaN	NaN	NaN	NaN	NaN	NaN
539.2799949	0.1	sub-25	1	sequence	stimulus	Katze	NaN	NaN	512.0	NaN	NaN	3.0	2.0	NaN	NaN	NaN	NaN	NaN
539.3799629999994	0.5172	sub-25	1	sequence	interval	dot	NaN	NaN	NaN	NaN	NaN	NaN	NaN	NaN	NaN	NaN	NaN	NaN
539.8971867	0.0999	sub-25	1	sequence	stimulus	Haus	NaN	NaN	512.0	NaN	NaN	2.0	3.0	NaN	NaN	NaN	NaN	NaN
539.9971151000009	0.5172	sub-25	1	sequence	interval	dot	NaN	NaN	NaN	NaN	NaN	NaN	NaN	NaN	NaN	NaN	NaN	NaN
540.5143480999996	0.0999	sub-25	1	sequence	stimulus	Schuh	NaN	NaN	512.0	NaN	NaN	4.0	4.0	NaN	NaN	NaN	NaN	NaN
540.614296400001	0.5172	sub-25	1	sequence	interval	dot	NaN	NaN	NaN	NaN	NaN	NaN	NaN	NaN	NaN	NaN	NaN	NaN
541.1315023000006	0.0999	sub-25	1	sequence	stimulus	Gesicht	NaN	NaN	512.0	NaN	NaN	1.0	5.0	NaN	NaN	NaN	NaN	NaN
541.231425	0.5171	sub-25	1	sequence	interval	dot	NaN	NaN	NaN	NaN	NaN	NaN	NaN	NaN	NaN	NaN	NaN	NaN
541.7485379000009	6.1364	sub-25	1	sequence	delay	dot	NaN	NaN	NaN	NaN	NaN	NaN	NaN	NaN	NaN	NaN	NaN	NaN
547.8721860999995	0.7487	sub-25	1	sequence	choice	choice	right	NaN	NaN	0.7320248999985779	True	NaN	NaN	right	True	2.0	4.0	4.0
548.6210609000009	0.5002	sub-25	1	sequence	feedback	NaN	NaN	NaN	NaN	NaN	NaN	NaN	NaN	NaN	NaN	NaN	NaN	NaN
549.1214368000001	1.0006	sub-25	1	sequence	cue	Schuh	NaN	NaN	NaN	NaN	NaN	NaN	NaN	NaN	NaN	NaN	NaN	NaN
550.121995200001	2.0015	sub-25	1	sequence	blank	blank	NaN	NaN	NaN	NaN	NaN	NaN	NaN	NaN	NaN	NaN	NaN	NaN
552.1235242000002	0.3005	sub-25	1	sequence	fixation	dot	NaN	NaN	NaN	NaN	NaN	NaN	NaN	NaN	NaN	NaN	NaN	NaN
552.4419068000007	0.1154	sub-25	1	sequence	stimulus	Gesicht	NaN	NaN	64.0	NaN	NaN	1.0	1.0	NaN	NaN	NaN	NaN	NaN
552.5572974000006	0.0669	sub-25	1	sequence	interval	dot	NaN	NaN	NaN	NaN	NaN	NaN	NaN	NaN	NaN	NaN	NaN	NaN
552.6241559999999	0.1002	sub-25	1	sequence	stimulus	Haus	NaN	NaN	64.0	NaN	NaN	2.0	2.0	NaN	NaN	NaN	NaN	NaN
552.7243133000011	0.0666	sub-25	1	sequence	interval	dot	NaN	NaN	NaN	NaN	NaN	NaN	NaN	NaN	NaN	NaN	NaN	NaN
552.7909457000005	0.1001	sub-25	1	sequence	stimulus	Katze	NaN	NaN	64.0	NaN	NaN	3.0	3.0	NaN	NaN	NaN	NaN	NaN
552.8910324999997	0.0667	sub-25	1	sequence	interval	dot	NaN	NaN	NaN	NaN	NaN	NaN	NaN	NaN	NaN	NaN	NaN	NaN
552.9577270999998	0.1	sub-25	1	sequence	stimulus	Stuhl	NaN	NaN	64.0	NaN	NaN	5.0	4.0	NaN	NaN	NaN	NaN	NaN
553.0577037000003	0.0668	sub-25	1	sequence	interval	dot	NaN	NaN	NaN	NaN	NaN	NaN	NaN	NaN	NaN	NaN	NaN	NaN
553.1245242000005	0.1	sub-25	1	sequence	stimulus	Schuh	NaN	NaN	64.0	NaN	NaN	4.0	5.0	NaN	NaN	NaN	NaN	NaN
553.2244836999998	0.0667	sub-25	1	sequence	interval	dot	NaN	NaN	NaN	NaN	NaN	NaN	NaN	NaN	NaN	NaN	NaN	NaN
553.2912264999995	8.3717	sub-25	1	sequence	delay	dot	NaN	NaN	NaN	NaN	NaN	NaN	NaN	NaN	NaN	NaN	NaN	NaN
561.6519461000007	0.7968	sub-25	1	sequence	choice	choice	left	NaN	NaN	0.7779752999995253	True	NaN	NaN	left	True	5.0	4.0	5.0
562.4488438999997	0.5002	sub-25	1	sequence	feedback	NaN	NaN	NaN	NaN	NaN	NaN	NaN	NaN	NaN	NaN	NaN	NaN	NaN
562.9491587000011	1.0007	sub-25	1	sequence	cue	Gesicht	NaN	NaN	NaN	NaN	NaN	NaN	NaN	NaN	NaN	NaN	NaN	NaN
563.9498572000011	2.0016	sub-25	1	sequence	blank	blank	NaN	NaN	NaN	NaN	NaN	NaN	NaN	NaN	NaN	NaN	NaN	NaN
565.9514720999996	0.3002	sub-25	1	sequence	fixation	dot	NaN	NaN	NaN	NaN	NaN	NaN	NaN	NaN	NaN	NaN	NaN	NaN
566.2693694000009	0.0991	sub-25	1	sequence	stimulus	Katze	NaN	NaN	512.0	NaN	NaN	3.0	1.0	NaN	NaN	NaN	NaN	NaN
566.3685020000012	0.5171	sub-25	1	sequence	interval	dot	NaN	NaN	NaN	NaN	NaN	NaN	NaN	NaN	NaN	NaN	NaN	NaN
566.8856503999996	0.0999	sub-25	1	sequence	stimulus	Stuhl	NaN	NaN	512.0	NaN	NaN	5.0	2.0	NaN	NaN	NaN	NaN	NaN
566.9855922000006	0.5172	sub-25	1	sequence	interval	dot	NaN	NaN	NaN	NaN	NaN	NaN	NaN	NaN	NaN	NaN	NaN	NaN
567.5028246000002	0.1	sub-25	1	sequence	stimulus	Gesicht	NaN	NaN	512.0	NaN	NaN	1.0	3.0	NaN	NaN	NaN	NaN	NaN
567.6027986000008	0.5172	sub-25	1	sequence	interval	dot	NaN	NaN	NaN	NaN	NaN	NaN	NaN	NaN	NaN	NaN	NaN	NaN
568.1199869000011	0.0999	sub-25	1	sequence	stimulus	Schuh	NaN	NaN	512.0	NaN	NaN	4.0	4.0	NaN	NaN	NaN	NaN	NaN
568.2199269000012	0.5172	sub-25	1	sequence	interval	dot	NaN	NaN	NaN	NaN	NaN	NaN	NaN	NaN	NaN	NaN	NaN	NaN
568.7371598999998	0.0999	sub-25	1	sequence	stimulus	Haus	NaN	NaN	512.0	NaN	NaN	2.0	5.0	NaN	NaN	NaN	NaN	NaN
568.8370904000003	0.5171	sub-25	1	sequence	interval	dot	NaN	NaN	NaN	NaN	NaN	NaN	NaN	NaN	NaN	NaN	NaN	NaN
569.3541771	6.1533	sub-25	1	sequence	delay	dot	NaN	NaN	NaN	NaN	NaN	NaN	NaN	NaN	NaN	NaN	NaN	NaN
575.4836324999997	0.743	sub-25	1	sequence	choice	choice	right	NaN	NaN	0.7176714999986871	True	NaN	NaN	right	True	5.0	3.0	3.0
576.2268141000004	0.5004	sub-25	1	sequence	feedback	NaN	NaN	NaN	NaN	NaN	NaN	NaN	NaN	NaN	NaN	NaN	NaN	NaN
576.7273654	1.0005	sub-25	1	sequence	cue	Gesicht	NaN	NaN	NaN	NaN	NaN	NaN	NaN	NaN	NaN	NaN	NaN	NaN
577.727832300001	2.0016	sub-25	1	sequence	blank	blank	NaN	NaN	NaN	NaN	NaN	NaN	NaN	NaN	NaN	NaN	NaN	NaN
579.7294333999998	0.3001	sub-25	1	sequence	fixation	dot	NaN	NaN	NaN	NaN	NaN	NaN	NaN	NaN	NaN	NaN	NaN	NaN
580.047856000001	0.1151	sub-25	1	sequence	stimulus	Schuh	NaN	NaN	32.0	NaN	NaN	4.0	1.0	NaN	NaN	NaN	NaN	NaN
580.1629202000004	0.0335	sub-25	1	sequence	interval	dot	NaN	NaN	NaN	NaN	NaN	NaN	NaN	NaN	NaN	NaN	NaN	NaN
580.1964248000004	0.0999	sub-25	1	sequence	stimulus	Katze	NaN	NaN	32.0	NaN	NaN	3.0	2.0	NaN	NaN	NaN	NaN	NaN
580.2963583000001	0.0335	sub-25	1	sequence	interval	dot	NaN	NaN	NaN	NaN	NaN	NaN	NaN	NaN	NaN	NaN	NaN	NaN
580.3298599999998	0.0999	sub-25	1	sequence	stimulus	Haus	NaN	NaN	32.0	NaN	NaN	2.0	3.0	NaN	NaN	NaN	NaN	NaN
580.4298089000004	0.0335	sub-25	1	sequence	interval	dot	NaN	NaN	NaN	NaN	NaN	NaN	NaN	NaN	NaN	NaN	NaN	NaN
580.4632923000008	0.0999	sub-25	1	sequence	stimulus	Stuhl	NaN	NaN	32.0	NaN	NaN	5.0	4.0	NaN	NaN	NaN	NaN	NaN
580.5632364000012	0.0335	sub-25	1	sequence	interval	dot	NaN	NaN	NaN	NaN	NaN	NaN	NaN	NaN	NaN	NaN	NaN	NaN
580.5967215000001	0.1	sub-25	1	sequence	stimulus	Gesicht	NaN	NaN	32.0	NaN	NaN	1.0	5.0	NaN	NaN	NaN	NaN	NaN
580.696711300001	0.0333	sub-25	1	sequence	interval	dot	NaN	NaN	NaN	NaN	NaN	NaN	NaN	NaN	NaN	NaN	NaN	NaN
580.7300386000006	8.5217	sub-25	1	sequence	delay	dot	NaN	NaN	NaN	NaN	NaN	NaN	NaN	NaN	NaN	NaN	NaN	NaN
589.2373415000002	0.817	sub-25	1	sequence	choice	choice	left	NaN	NaN	0.7971797000009246	True	NaN	NaN	left	True	5.0	3.0	5.0
590.0544907000003	0.5002	sub-25	1	sequence	feedback	NaN	NaN	NaN	NaN	NaN	NaN	NaN	NaN	NaN	NaN	NaN	NaN	NaN
590.5547815999998	1.0007	sub-25	1	sequence	cue	Gesicht	NaN	NaN	NaN	NaN	NaN	NaN	NaN	NaN	NaN	NaN	NaN	NaN
591.555525400001	2.0018	sub-25	1	sequence	blank	blank	NaN	NaN	NaN	NaN	NaN	NaN	NaN	NaN	NaN	NaN	NaN	NaN
593.5573106000011	0.3003	sub-25	1	sequence	fixation	dot	NaN	NaN	NaN	NaN	NaN	NaN	NaN	NaN	NaN	NaN	NaN	NaN
593.8749664999996	0.0992	sub-25	1	sequence	stimulus	Katze	NaN	NaN	32.0	NaN	NaN	3.0	1.0	NaN	NaN	NaN	NaN	NaN
593.9741488	0.0334	sub-25	1	sequence	interval	dot	NaN	NaN	NaN	NaN	NaN	NaN	NaN	NaN	NaN	NaN	NaN	NaN
594.0075746000002	0.1	sub-25	1	sequence	stimulus	Stuhl	NaN	NaN	32.0	NaN	NaN	5.0	2.0	NaN	NaN	NaN	NaN	NaN
594.1075344000001	0.0336	sub-25	1	sequence	interval	dot	NaN	NaN	NaN	NaN	NaN	NaN	NaN	NaN	NaN	NaN	NaN	NaN
594.1411712000008	0.0998	sub-25	1	sequence	stimulus	Schuh	NaN	NaN	32.0	NaN	NaN	4.0	3.0	NaN	NaN	NaN	NaN	NaN
594.2410137999996	0.0336	sub-25	1	sequence	interval	dot	NaN	NaN	NaN	NaN	NaN	NaN	NaN	NaN	NaN	NaN	NaN	NaN
594.2746609000005	0.0998	sub-25	1	sequence	stimulus	Haus	NaN	NaN	32.0	NaN	NaN	2.0	4.0	NaN	NaN	NaN	NaN	NaN
594.3744348	0.0336	sub-25	1	sequence	interval	dot	NaN	NaN	NaN	NaN	NaN	NaN	NaN	NaN	NaN	NaN	NaN	NaN
594.4080709999998	0.0998	sub-25	1	sequence	stimulus	Gesicht	NaN	NaN	32.0	NaN	NaN	1.0	5.0	NaN	NaN	NaN	NaN	NaN
594.5078598	0.0335	sub-25	1	sequence	interval	dot	NaN	NaN	NaN	NaN	NaN	NaN	NaN	NaN	NaN	NaN	NaN	NaN
594.5413575000002	8.5384	sub-25	1	sequence	delay	dot	NaN	NaN	NaN	NaN	NaN	NaN	NaN	NaN	NaN	NaN	NaN	NaN
603.0690943000009	0.7965	sub-25	1	sequence	choice	choice	right	NaN	NaN	0.7771230999987893	True	NaN	NaN	right	True	2.0	5.0	5.0
603.8657242000008	0.5003	sub-25	1	sequence	feedback	NaN	NaN	NaN	NaN	NaN	NaN	NaN	NaN	NaN	NaN	NaN	NaN	NaN
604.3661740000007	1.0005	sub-25	1	sequence	cue	Gesicht	NaN	NaN	NaN	NaN	NaN	NaN	NaN	NaN	NaN	NaN	NaN	NaN
605.3666828000005	2.0016	sub-25	1	sequence	blank	blank	NaN	NaN	NaN	NaN	NaN	NaN	NaN	NaN	NaN	NaN	NaN	NaN
607.3682974000003	0.3002	sub-25	1	sequence	fixation	dot	NaN	NaN	NaN	NaN	NaN	NaN	NaN	NaN	NaN	NaN	NaN	NaN
607.6861516999998	0.0991	sub-25	1	sequence	stimulus	Schuh	NaN	NaN	64.0	NaN	NaN	4.0	1.0	NaN	NaN	NaN	NaN	NaN
607.7852636999996	0.0668	sub-25	1	sequence	interval	dot	NaN	NaN	NaN	NaN	NaN	NaN	NaN	NaN	NaN	NaN	NaN	NaN
607.8520915999998	0.1	sub-25	1	sequence	stimulus	Katze	NaN	NaN	64.0	NaN	NaN	3.0	2.0	NaN	NaN	NaN	NaN	NaN
607.9520649000006	0.0668	sub-25	1	sequence	interval	dot	NaN	NaN	NaN	NaN	NaN	NaN	NaN	NaN	NaN	NaN	NaN	NaN
608.0189042000002	0.1	sub-25	1	sequence	stimulus	Gesicht	NaN	NaN	64.0	NaN	NaN	1.0	3.0	NaN	NaN	NaN	NaN	NaN
608.1188588999994	0.0669	sub-25	1	sequence	interval	dot	NaN	NaN	NaN	NaN	NaN	NaN	NaN	NaN	NaN	NaN	NaN	NaN
608.1857325000001	0.1	sub-25	1	sequence	stimulus	Haus	NaN	NaN	64.0	NaN	NaN	2.0	4.0	NaN	NaN	NaN	NaN	NaN
608.2856998000007	0.0668	sub-25	1	sequence	interval	dot	NaN	NaN	NaN	NaN	NaN	NaN	NaN	NaN	NaN	NaN	NaN	NaN
608.3525090000003	0.1	sub-25	1	sequence	stimulus	Stuhl	NaN	NaN	64.0	NaN	NaN	5.0	5.0	NaN	NaN	NaN	NaN	NaN
608.4524896000003	0.0667	sub-25	1	sequence	interval	dot	NaN	NaN	NaN	NaN	NaN	NaN	NaN	NaN	NaN	NaN	NaN	NaN
608.5191931000008	8.3714	sub-25	1	sequence	delay	dot	NaN	NaN	NaN	NaN	NaN	NaN	NaN	NaN	NaN	NaN	NaN	NaN
616.8746924999996	0.8857	sub-25	1	sequence	choice	choice	left	NaN	NaN	0.8543153999999049	True	NaN	NaN	left	True	3.0	5.0	3.0
617.7605156999998	0.5002	sub-25	1	sequence	feedback	NaN	NaN	NaN	NaN	NaN	NaN	NaN	NaN	NaN	NaN	NaN	NaN	NaN
618.2608426999996	1.0005	sub-25	1	sequence	cue	Haus	NaN	NaN	NaN	NaN	NaN	NaN	NaN	NaN	NaN	NaN	NaN	NaN
619.2613493999997	2.0015	sub-25	1	sequence	blank	blank	NaN	NaN	NaN	NaN	NaN	NaN	NaN	NaN	NaN	NaN	NaN	NaN
621.2628717999996	0.3002	sub-25	1	sequence	fixation	dot	NaN	NaN	NaN	NaN	NaN	NaN	NaN	NaN	NaN	NaN	NaN	NaN
621.581434400001	0.1151	sub-25	1	sequence	stimulus	Katze	NaN	NaN	128.0	NaN	NaN	3.0	1.0	NaN	NaN	NaN	NaN	NaN
621.6965278000007	0.1336	sub-25	1	sequence	interval	dot	NaN	NaN	NaN	NaN	NaN	NaN	NaN	NaN	NaN	NaN	NaN	NaN
621.8301376	0.0999	sub-25	1	sequence	stimulus	Stuhl	NaN	NaN	128.0	NaN	NaN	5.0	2.0	NaN	NaN	NaN	NaN	NaN
621.9300272	0.1336	sub-25	1	sequence	interval	dot	NaN	NaN	NaN	NaN	NaN	NaN	NaN	NaN	NaN	NaN	NaN	NaN
622.0636458000008	0.0999	sub-25	1	sequence	stimulus	Haus	NaN	NaN	128.0	NaN	NaN	2.0	3.0	NaN	NaN	NaN	NaN	NaN
622.1635340000012	0.1336	sub-25	1	sequence	interval	dot	NaN	NaN	NaN	NaN	NaN	NaN	NaN	NaN	NaN	NaN	NaN	NaN
622.2971570000009	0.0999	sub-25	1	sequence	stimulus	Schuh	NaN	NaN	128.0	NaN	NaN	4.0	4.0	NaN	NaN	NaN	NaN	NaN
622.3970991000006	0.1336	sub-25	1	sequence	interval	dot	NaN	NaN	NaN	NaN	NaN	NaN	NaN	NaN	NaN	NaN	NaN	NaN
622.5306613000012	0.0999	sub-25	1	sequence	stimulus	Gesicht	NaN	NaN	128.0	NaN	NaN	1.0	5.0	NaN	NaN	NaN	NaN	NaN
622.6306036999995	0.1334	sub-25	1	sequence	interval	dot	NaN	NaN	NaN	NaN	NaN	NaN	NaN	NaN	NaN	NaN	NaN	NaN
622.7640444999997	8.0714	sub-25	1	sequence	delay	dot	NaN	NaN	NaN	NaN	NaN	NaN	NaN	NaN	NaN	NaN	NaN	NaN
630.8104019000002	0.7609	sub-25	1	sequence	choice	choice	left	NaN	NaN	0.7253989000000729	True	NaN	NaN	left	True	3.0	5.0	3.0
631.5714131000004	0.5003	sub-25	1	sequence	feedback	NaN	NaN	NaN	NaN	NaN	NaN	NaN	NaN	NaN	NaN	NaN	NaN	NaN
635.89228	0.4995	sub-25	1	localizer	stimulus	Haus	NaN	180	2.418600200000583	0.6445436000012705	True	NaN	NaN	NaN	NaN	NaN	NaN	NaN
636.3752189000006	2.4186	sub-25	1	localizer	blank	interval	NaN	NaN	NaN	NaN	NaN	NaN	NaN	NaN	NaN	NaN	NaN	NaN
639.0948743999998	0.4995	sub-25	1	localizer	stimulus	Katze	NaN	0	3.8361982999995234	NaN	True	NaN	NaN	NaN	NaN	NaN	NaN	NaN
639.5779037000011	3.8362	sub-25	1	localizer	blank	interval	NaN	NaN	NaN	NaN	NaN	NaN	NaN	NaN	NaN	NaN	NaN	NaN
643.7152593999999	0.4995	sub-25	1	localizer	stimulus	Katze	NaN	0	2.918888300000617	NaN	True	NaN	NaN	NaN	NaN	NaN	NaN	NaN
644.1981857999999	2.9189	sub-25	1	localizer	blank	interval	NaN	NaN	NaN	NaN	NaN	NaN	NaN	NaN	NaN	NaN	NaN	NaN
647.4182693000002	0.4995	sub-25	1	localizer	stimulus	Gesicht	NaN	180	2.5686592000001838	0.5026355000009062	True	NaN	NaN	NaN	NaN	NaN	NaN	NaN
647.9011592999996	2.5687	sub-25	1	localizer	blank	interval	NaN	NaN	NaN	NaN	NaN	NaN	NaN	NaN	NaN	NaN	NaN	NaN
650.7709654999999	0.4995	sub-25	1	localizer	stimulus	Stuhl	NaN	0	2.7520762999993167	NaN	True	NaN	NaN	NaN	NaN	NaN	NaN	NaN
651.2538984000003	2.7521	sub-25	1	localizer	blank	interval	NaN	NaN	NaN	NaN	NaN	NaN	NaN	NaN	NaN	NaN	NaN	NaN
654.3071462000007	0.4995	sub-25	1	localizer	stimulus	Stuhl	NaN	0	2.318380299999262	NaN	True	NaN	NaN	NaN	NaN	NaN	NaN	NaN
654.7901103000004	2.3184	sub-25	1	localizer	blank	interval	NaN	NaN	NaN	NaN	NaN	NaN	NaN	NaN	NaN	NaN	NaN	NaN
657.4096428000012	0.4995	sub-25	1	localizer	stimulus	Schuh	NaN	180	1.984987400001046	0.4472731000005296	True	NaN	NaN	NaN	NaN	NaN	NaN	NaN
657.8925646999996	1.985	sub-25	1	localizer	blank	interval	NaN	NaN	NaN	NaN	NaN	NaN	NaN	NaN	NaN	NaN	NaN	NaN
660.1785519999994	0.4996	sub-25	1	localizer	stimulus	Stuhl	NaN	0	2.5184467999988556	NaN	True	NaN	NaN	NaN	NaN	NaN	NaN	NaN
660.6616420000009	2.5184	sub-25	1	localizer	blank	interval	NaN	NaN	NaN	NaN	NaN	NaN	NaN	NaN	NaN	NaN	NaN	NaN
663.4812385999994	0.4995	sub-25	1	localizer	stimulus	Haus	NaN	0	2.5685929999999644	NaN	True	NaN	NaN	NaN	NaN	NaN	NaN	NaN
663.9642086000003	2.5686	sub-25	1	localizer	blank	interval	NaN	NaN	NaN	NaN	NaN	NaN	NaN	NaN	NaN	NaN	NaN	NaN
666.8340296999995	0.4994	sub-25	1	localizer	stimulus	Haus	NaN	0	3.018990099999428	NaN	True	NaN	NaN	NaN	NaN	NaN	NaN	NaN
667.3168896000006	3.019	sub-25	1	localizer	blank	interval	NaN	NaN	NaN	NaN	NaN	NaN	NaN	NaN	NaN	NaN	NaN	NaN
670.6370637	0.4995	sub-25	1	localizer	stimulus	Gesicht	NaN	0	2.385124899999937	0.5078155999999581	False	NaN	NaN	NaN	NaN	NaN	NaN	NaN
671.1199632000007	2.3851	sub-25	1	localizer	blank	interval	NaN	NaN	NaN	NaN	NaN	NaN	NaN	NaN	NaN	NaN	NaN	NaN
673.8062528999999	0.4995	sub-25	1	localizer	stimulus	Katze	NaN	180	3.5527392999993026	0.5466321000003518	True	NaN	NaN	NaN	NaN	NaN	NaN	NaN
674.2891736000001	3.5527	sub-25	1	localizer	blank	interval	NaN	NaN	NaN	NaN	NaN	NaN	NaN	NaN	NaN	NaN	NaN	NaN
678.1430914000011	0.4995	sub-25	1	localizer	stimulus	Stuhl	NaN	0	1.8348595000006753	NaN	True	NaN	NaN	NaN	NaN	NaN	NaN	NaN
678.6260075999999	1.8349	sub-25	1	localizer	blank	interval	NaN	NaN	NaN	NaN	NaN	NaN	NaN	NaN	NaN	NaN	NaN	NaN
680.7619394000012	0.4996	sub-25	1	localizer	stimulus	Katze	NaN	0	1.2008243999989645	NaN	True	NaN	NaN	NaN	NaN	NaN	NaN	NaN
681.2449668000008	1.2008	sub-25	1	localizer	blank	interval	NaN	NaN	NaN	NaN	NaN	NaN	NaN	NaN	NaN	NaN	NaN	NaN
682.7470604000009	0.4995	sub-25	1	localizer	stimulus	Haus	NaN	0	2.4682880000000296	NaN	True	NaN	NaN	NaN	NaN	NaN	NaN	NaN
683.2299903000003	2.4683	sub-25	1	localizer	blank	interval	NaN	NaN	NaN	NaN	NaN	NaN	NaN	NaN	NaN	NaN	NaN	NaN
685.9994325999996	0.4995	sub-25	1	localizer	stimulus	Schuh	NaN	0	2.568627700000434	NaN	True	NaN	NaN	NaN	NaN	NaN	NaN	NaN
686.4823756000005	2.5686	sub-25	1	localizer	blank	interval	NaN	NaN	NaN	NaN	NaN	NaN	NaN	NaN	NaN	NaN	NaN	NaN
689.3521454000002	0.4995	sub-25	1	localizer	stimulus	Katze	NaN	0	2.6186557000000903	NaN	True	NaN	NaN	NaN	NaN	NaN	NaN	NaN
689.835067	2.6187	sub-25	1	localizer	blank	interval	NaN	NaN	NaN	NaN	NaN	NaN	NaN	NaN	NaN	NaN	NaN	NaN
692.7550590999999	0.4993	sub-25	1	localizer	stimulus	Schuh	NaN	0	2.9856106999995973	NaN	True	NaN	NaN	NaN	NaN	NaN	NaN	NaN
693.2378088000005	2.9856	sub-25	1	localizer	blank	interval	NaN	NaN	NaN	NaN	NaN	NaN	NaN	NaN	NaN	NaN	NaN	NaN
696.5246382000005	0.4994	sub-25	1	localizer	stimulus	Schuh	NaN	0	2.601988000000347	NaN	True	NaN	NaN	NaN	NaN	NaN	NaN	NaN
697.0075429000008	2.602	sub-25	1	localizer	blank	interval	NaN	NaN	NaN	NaN	NaN	NaN	NaN	NaN	NaN	NaN	NaN	NaN
699.910907200001	0.4992	sub-25	1	localizer	stimulus	Haus	NaN	0	2.1016707999988284	NaN	True	NaN	NaN	NaN	NaN	NaN	NaN	NaN
700.3936193000009	2.1017	sub-25	1	localizer	blank	interval	NaN	NaN	NaN	NaN	NaN	NaN	NaN	NaN	NaN	NaN	NaN	NaN
702.7964000000011	0.4996	sub-25	1	localizer	stimulus	Stuhl	NaN	180	2.1681432999994286	0.5404978999995365	True	NaN	NaN	NaN	NaN	NaN	NaN	NaN
703.2794250000006	2.1681	sub-25	1	localizer	blank	interval	NaN	NaN	NaN	NaN	NaN	NaN	NaN	NaN	NaN	NaN	NaN	NaN
705.7487235999997	0.4995	sub-25	1	localizer	stimulus	Gesicht	NaN	0	2.301723499998843	NaN	True	NaN	NaN	NaN	NaN	NaN	NaN	NaN
706.2316568000006	2.3017	sub-25	1	localizer	blank	interval	NaN	NaN	NaN	NaN	NaN	NaN	NaN	NaN	NaN	NaN	NaN	NaN
708.8345557000011	0.4995	sub-25	1	localizer	stimulus	Gesicht	NaN	0	2.7354276000005484	NaN	True	NaN	NaN	NaN	NaN	NaN	NaN	NaN
709.3175011000003	2.7354	sub-25	1	localizer	blank	interval	NaN	NaN	NaN	NaN	NaN	NaN	NaN	NaN	NaN	NaN	NaN	NaN
712.3540670000002	0.4995	sub-25	1	localizer	stimulus	Schuh	NaN	0	2.902214900001127	NaN	True	NaN	NaN	NaN	NaN	NaN	NaN	NaN
712.8369899999998	2.9022	sub-25	1	localizer	blank	interval	NaN	NaN	NaN	NaN	NaN	NaN	NaN	NaN	NaN	NaN	NaN	NaN
716.0403719000005	0.4995	sub-25	1	localizer	stimulus	Gesicht	NaN	0	2.2349946000013006	NaN	True	NaN	NaN	NaN	NaN	NaN	NaN	NaN
716.5233129999997	2.235	sub-25	1	localizer	blank	interval	NaN	NaN	NaN	NaN	NaN	NaN	NaN	NaN	NaN	NaN	NaN	NaN
722.2450167999996	1.0004	sub-25	1	sequence	cue	Gesicht	NaN	NaN	NaN	NaN	NaN	NaN	NaN	NaN	NaN	NaN	NaN	NaN
723.2454164999999	2.0017	sub-25	1	sequence	blank	blank	NaN	NaN	NaN	NaN	NaN	NaN	NaN	NaN	NaN	NaN	NaN	NaN
725.2471471000008	0.3002	sub-25	1	sequence	fixation	dot	NaN	NaN	NaN	NaN	NaN	NaN	NaN	NaN	NaN	NaN	NaN	NaN
725.5657024000011	0.1151	sub-25	1	sequence	stimulus	Katze	NaN	NaN	128.0	NaN	NaN	3.0	1.0	NaN	NaN	NaN	NaN	NaN
725.6807699000001	0.1335	sub-25	1	sequence	interval	dot	NaN	NaN	NaN	NaN	NaN	NaN	NaN	NaN	NaN	NaN	NaN	NaN
725.8143034000004	0.0999	sub-25	1	sequence	stimulus	Stuhl	NaN	NaN	128.0	NaN	NaN	5.0	2.0	NaN	NaN	NaN	NaN	NaN
725.9141749999999	0.1335	sub-25	1	sequence	interval	dot	NaN	NaN	NaN	NaN	NaN	NaN	NaN	NaN	NaN	NaN	NaN	NaN
726.0476618000012	0.1	sub-25	1	sequence	stimulus	Haus	NaN	NaN	128.0	NaN	NaN	2.0	3.0	NaN	NaN	NaN	NaN	NaN
726.147613000001	0.1336	sub-25	1	sequence	interval	dot	NaN	NaN	NaN	NaN	NaN	NaN	NaN	NaN	NaN	NaN	NaN	NaN
726.2811676000001	0.1	sub-25	1	sequence	stimulus	Schuh	NaN	NaN	128.0	NaN	NaN	4.0	4.0	NaN	NaN	NaN	NaN	NaN
726.3811224000001	0.1336	sub-25	1	sequence	interval	dot	NaN	NaN	NaN	NaN	NaN	NaN	NaN	NaN	NaN	NaN	NaN	NaN
726.514705900001	0.0999	sub-25	1	sequence	stimulus	Gesicht	NaN	NaN	128.0	NaN	NaN	1.0	5.0	NaN	NaN	NaN	NaN	NaN
726.6146422000002	0.1335	sub-25	1	sequence	interval	dot	NaN	NaN	NaN	NaN	NaN	NaN	NaN	NaN	NaN	NaN	NaN	NaN
726.7481033000004	8.0715	sub-25	1	sequence	delay	dot	NaN	NaN	NaN	NaN	NaN	NaN	NaN	NaN	NaN	NaN	NaN	NaN
734.8081039000008	0.8307	sub-25	1	sequence	choice	choice	right	NaN	NaN	0.8131828999994468	True	NaN	NaN	right	True	3.0	5.0	5.0
735.6390037000001	0.5	sub-25	1	sequence	feedback	NaN	NaN	NaN	NaN	NaN	NaN	NaN	NaN	NaN	NaN	NaN	NaN	NaN
736.1392003000001	1.0006	sub-25	1	sequence	cue	Haus	NaN	NaN	NaN	NaN	NaN	NaN	NaN	NaN	NaN	NaN	NaN	NaN
737.1398547999997	2.0017	sub-25	1	sequence	blank	blank	NaN	NaN	NaN	NaN	NaN	NaN	NaN	NaN	NaN	NaN	NaN	NaN
739.1415280000001	0.3002	sub-25	1	sequence	fixation	dot	NaN	NaN	NaN	NaN	NaN	NaN	NaN	NaN	NaN	NaN	NaN	NaN
739.4592618000006	0.0992	sub-25	1	sequence	stimulus	Katze	NaN	NaN	512.0	NaN	NaN	3.0	1.0	NaN	NaN	NaN	NaN	NaN
739.558466800001	0.5172	sub-25	1	sequence	interval	dot	NaN	NaN	NaN	NaN	NaN	NaN	NaN	NaN	NaN	NaN	NaN	NaN
740.0756608000011	0.1	sub-25	1	sequence	stimulus	Stuhl	NaN	NaN	512.0	NaN	NaN	5.0	2.0	NaN	NaN	NaN	NaN	NaN
740.1756127999997	0.5172	sub-25	1	sequence	interval	dot	NaN	NaN	NaN	NaN	NaN	NaN	NaN	NaN	NaN	NaN	NaN	NaN
740.6928609999995	0.0999	sub-25	1	sequence	stimulus	Gesicht	NaN	NaN	512.0	NaN	NaN	1.0	3.0	NaN	NaN	NaN	NaN	NaN
740.792800700001	0.5172	sub-25	1	sequence	interval	dot	NaN	NaN	NaN	NaN	NaN	NaN	NaN	NaN	NaN	NaN	NaN	NaN
741.3100050000012	0.1	sub-25	1	sequence	stimulus	Schuh	NaN	NaN	512.0	NaN	NaN	4.0	4.0	NaN	NaN	NaN	NaN	NaN
741.4099741999999	0.5172	sub-25	1	sequence	interval	dot	NaN	NaN	NaN	NaN	NaN	NaN	NaN	NaN	NaN	NaN	NaN	NaN
741.9272117	0.1	sub-25	1	sequence	stimulus	Haus	NaN	NaN	512.0	NaN	NaN	2.0	5.0	NaN	NaN	NaN	NaN	NaN
742.0271816000004	0.517	sub-25	1	sequence	interval	dot	NaN	NaN	NaN	NaN	NaN	NaN	NaN	NaN	NaN	NaN	NaN	NaN
742.544219200001	6.1366	sub-25	1	sequence	delay	dot	NaN	NaN	NaN	NaN	NaN	NaN	NaN	NaN	NaN	NaN	NaN	NaN
748.6658360000001	0.9676	sub-25	1	sequence	choice	choice	left	NaN	NaN	0.944015600000057	True	NaN	NaN	left	True	5.0	2.0	5.0
749.6336314	0.5	sub-25	1	sequence	feedback	NaN	NaN	NaN	NaN	NaN	NaN	NaN	NaN	NaN	NaN	NaN	NaN	NaN
750.1338071000009	1.0008	sub-25	1	sequence	cue	Stuhl	NaN	NaN	NaN	NaN	NaN	NaN	NaN	NaN	NaN	NaN	NaN	NaN
751.1345851000005	2.0015	sub-25	1	sequence	blank	blank	NaN	NaN	NaN	NaN	NaN	NaN	NaN	NaN	NaN	NaN	NaN	NaN
753.1361107000012	0.3004	sub-25	1	sequence	fixation	dot	NaN	NaN	NaN	NaN	NaN	NaN	NaN	NaN	NaN	NaN	NaN	NaN
753.4547241	0.1151	sub-25	1	sequence	stimulus	Gesicht	NaN	NaN	64.0	NaN	NaN	1.0	1.0	NaN	NaN	NaN	NaN	NaN
753.5697782000007	0.0669	sub-25	1	sequence	interval	dot	NaN	NaN	NaN	NaN	NaN	NaN	NaN	NaN	NaN	NaN	NaN	NaN
753.6366302000006	0.0999	sub-25	1	sequence	stimulus	Haus	NaN	NaN	64.0	NaN	NaN	2.0	2.0	NaN	NaN	NaN	NaN	NaN
753.7365673000004	0.0669	sub-25	1	sequence	interval	dot	NaN	NaN	NaN	NaN	NaN	NaN	NaN	NaN	NaN	NaN	NaN	NaN
753.8034473000007	0.0999	sub-25	1	sequence	stimulus	Katze	NaN	NaN	64.0	NaN	NaN	3.0	3.0	NaN	NaN	NaN	NaN	NaN
753.9033708000006	0.0669	sub-25	1	sequence	interval	dot	NaN	NaN	NaN	NaN	NaN	NaN	NaN	NaN	NaN	NaN	NaN	NaN
753.9702261000002	0.0999	sub-25	1	sequence	stimulus	Stuhl	NaN	NaN	64.0	NaN	NaN	5.0	4.0	NaN	NaN	NaN	NaN	NaN
754.0701745999995	0.0668	sub-25	1	sequence	interval	dot	NaN	NaN	NaN	NaN	NaN	NaN	NaN	NaN	NaN	NaN	NaN	NaN
754.1370230000011	0.0999	sub-25	1	sequence	stimulus	Schuh	NaN	NaN	64.0	NaN	NaN	4.0	5.0	NaN	NaN	NaN	NaN	NaN
754.2369646000006	0.0668	sub-25	1	sequence	interval	dot	NaN	NaN	NaN	NaN	NaN	NaN	NaN	NaN	NaN	NaN	NaN	NaN
754.303715	8.3717	sub-25	1	sequence	delay	dot	NaN	NaN	NaN	NaN	NaN	NaN	NaN	NaN	NaN	NaN	NaN	NaN
762.6535143000001	0.9412	sub-25	1	sequence	choice	choice	right	NaN	NaN	0.9093429999993532	True	NaN	NaN	right	True	5.0	4.0	4.0
763.5948738000006	0.5002	sub-25	1	sequence	feedback	NaN	NaN	NaN	NaN	NaN	NaN	NaN	NaN	NaN	NaN	NaN	NaN	NaN
764.095248900001	1.0007	sub-25	1	sequence	cue	Haus	NaN	NaN	NaN	NaN	NaN	NaN	NaN	NaN	NaN	NaN	NaN	NaN
765.0959060000005	2.0017	sub-25	1	sequence	blank	blank	NaN	NaN	NaN	NaN	NaN	NaN	NaN	NaN	NaN	NaN	NaN	NaN
767.0976427000005	0.3002	sub-25	1	sequence	fixation	dot	NaN	NaN	NaN	NaN	NaN	NaN	NaN	NaN	NaN	NaN	NaN	NaN
767.4162414000002	0.115	sub-25	1	sequence	stimulus	Schuh	NaN	NaN	32.0	NaN	NaN	4.0	1.0	NaN	NaN	NaN	NaN	NaN
767.5312843000011	0.0335	sub-25	1	sequence	interval	dot	NaN	NaN	NaN	NaN	NaN	NaN	NaN	NaN	NaN	NaN	NaN	NaN
767.5647759000003	0.1	sub-25	1	sequence	stimulus	Katze	NaN	NaN	32.0	NaN	NaN	3.0	2.0	NaN	NaN	NaN	NaN	NaN
767.6647267000008	0.0335	sub-25	1	sequence	interval	dot	NaN	NaN	NaN	NaN	NaN	NaN	NaN	NaN	NaN	NaN	NaN	NaN
767.6981873000004	0.0999	sub-25	1	sequence	stimulus	Haus	NaN	NaN	32.0	NaN	NaN	2.0	3.0	NaN	NaN	NaN	NaN	NaN
767.7980387999996	0.0334	sub-25	1	sequence	interval	dot	NaN	NaN	NaN	NaN	NaN	NaN	NaN	NaN	NaN	NaN	NaN	NaN
767.831487200001	0.0999	sub-25	1	sequence	stimulus	Stuhl	NaN	NaN	32.0	NaN	NaN	5.0	4.0	NaN	NaN	NaN	NaN	NaN
767.9313923999998	0.0335	sub-25	1	sequence	interval	dot	NaN	NaN	NaN	NaN	NaN	NaN	NaN	NaN	NaN	NaN	NaN	NaN
767.9648691000002	0.0999	sub-25	1	sequence	stimulus	Gesicht	NaN	NaN	32.0	NaN	NaN	1.0	5.0	NaN	NaN	NaN	NaN	NaN
768.0648140000012	0.0334	sub-25	1	sequence	interval	dot	NaN	NaN	NaN	NaN	NaN	NaN	NaN	NaN	NaN	NaN	NaN	NaN
768.0981965999999	8.5385	sub-25	1	sequence	delay	dot	NaN	NaN	NaN	NaN	NaN	NaN	NaN	NaN	NaN	NaN	NaN	NaN
776.6151972999996	0.8407	sub-25	1	sequence	choice	choice	right	NaN	NaN	0.8041140999994241	True	NaN	NaN	right	True	4.0	3.0	3.0
777.4560010000005	0.5002	sub-25	1	sequence	feedback	NaN	NaN	NaN	NaN	NaN	NaN	NaN	NaN	NaN	NaN	NaN	NaN	NaN
777.956345300001	1.0006	sub-25	1	sequence	cue	Katze	NaN	NaN	NaN	NaN	NaN	NaN	NaN	NaN	NaN	NaN	NaN	NaN
778.9569850999997	2.0016	sub-25	1	sequence	blank	blank	NaN	NaN	NaN	NaN	NaN	NaN	NaN	NaN	NaN	NaN	NaN	NaN
780.958598700001	0.3002	sub-25	1	sequence	fixation	dot	NaN	NaN	NaN	NaN	NaN	NaN	NaN	NaN	NaN	NaN	NaN	NaN
781.2764071000001	0.0991	sub-25	1	sequence	stimulus	Haus	NaN	NaN	128.0	NaN	NaN	2.0	1.0	NaN	NaN	NaN	NaN	NaN
781.3755485000001	0.1336	sub-25	1	sequence	interval	dot	NaN	NaN	NaN	NaN	NaN	NaN	NaN	NaN	NaN	NaN	NaN	NaN
781.5091470999996	0.0999	sub-25	1	sequence	stimulus	Schuh	NaN	NaN	128.0	NaN	NaN	4.0	2.0	NaN	NaN	NaN	NaN	NaN
781.6090939000005	0.1336	sub-25	1	sequence	interval	dot	NaN	NaN	NaN	NaN	NaN	NaN	NaN	NaN	NaN	NaN	NaN	NaN
781.7426725999994	0.0999	sub-25	1	sequence	stimulus	Stuhl	NaN	NaN	128.0	NaN	NaN	5.0	3.0	NaN	NaN	NaN	NaN	NaN
781.8426192000006	0.1336	sub-25	1	sequence	interval	dot	NaN	NaN	NaN	NaN	NaN	NaN	NaN	NaN	NaN	NaN	NaN	NaN
781.9761705000001	0.1	sub-25	1	sequence	stimulus	Gesicht	NaN	NaN	128.0	NaN	NaN	1.0	4.0	NaN	NaN	NaN	NaN	NaN
782.0761573	0.1336	sub-25	1	sequence	interval	dot	NaN	NaN	NaN	NaN	NaN	NaN	NaN	NaN	NaN	NaN	NaN	NaN
782.2097128000005	0.0999	sub-25	1	sequence	stimulus	Katze	NaN	NaN	128.0	NaN	NaN	3.0	5.0	NaN	NaN	NaN	NaN	NaN
782.3096568000001	0.1335	sub-25	1	sequence	interval	dot	NaN	NaN	NaN	NaN	NaN	NaN	NaN	NaN	NaN	NaN	NaN	NaN
782.4431079000005	8.0714	sub-25	1	sequence	delay	dot	NaN	NaN	NaN	NaN	NaN	NaN	NaN	NaN	NaN	NaN	NaN	NaN
790.4988943999997	0.8682	sub-25	1	sequence	choice	choice	left	NaN	NaN	0.8381606999992073	True	NaN	NaN	left	True	5.0	3.0	5.0
791.3672700000006	0.5001	sub-25	1	sequence	feedback	NaN	NaN	NaN	NaN	NaN	NaN	NaN	NaN	NaN	NaN	NaN	NaN	NaN
791.867545000001	1.0007	sub-25	1	sequence	cue	Stuhl	NaN	NaN	NaN	NaN	NaN	NaN	NaN	NaN	NaN	NaN	NaN	NaN
792.8682798000009	2.0016	sub-25	1	sequence	blank	blank	NaN	NaN	NaN	NaN	NaN	NaN	NaN	NaN	NaN	NaN	NaN	NaN
794.8698662999996	0.3002	sub-25	1	sequence	fixation	dot	NaN	NaN	NaN	NaN	NaN	NaN	NaN	NaN	NaN	NaN	NaN	NaN
795.1879071000003	0.1156	sub-25	1	sequence	stimulus	Schuh	NaN	NaN	64.0	NaN	NaN	4.0	1.0	NaN	NaN	NaN	NaN	NaN
795.3035498000008	0.0668	sub-25	1	sequence	interval	dot	NaN	NaN	NaN	NaN	NaN	NaN	NaN	NaN	NaN	NaN	NaN	NaN
795.3703753000009	0.1	sub-25	1	sequence	stimulus	Katze	NaN	NaN	64.0	NaN	NaN	3.0	2.0	NaN	NaN	NaN	NaN	NaN
795.4703439000004	0.0668	sub-25	1	sequence	interval	dot	NaN	NaN	NaN	NaN	NaN	NaN	NaN	NaN	NaN	NaN	NaN	NaN
795.5371902999996	0.0999	sub-25	1	sequence	stimulus	Gesicht	NaN	NaN	64.0	NaN	NaN	1.0	3.0	NaN	NaN	NaN	NaN	NaN
795.6371240999997	0.0669	sub-25	1	sequence	interval	dot	NaN	NaN	NaN	NaN	NaN	NaN	NaN	NaN	NaN	NaN	NaN	NaN
795.7040161000004	0.0999	sub-25	1	sequence	stimulus	Haus	NaN	NaN	64.0	NaN	NaN	2.0	4.0	NaN	NaN	NaN	NaN	NaN
795.8039272000005	0.0668	sub-25	1	sequence	interval	dot	NaN	NaN	NaN	NaN	NaN	NaN	NaN	NaN	NaN	NaN	NaN	NaN
795.8707611000009	0.1	sub-25	1	sequence	stimulus	Stuhl	NaN	NaN	64.0	NaN	NaN	5.0	5.0	NaN	NaN	NaN	NaN	NaN
795.9707317000011	0.0667	sub-25	1	sequence	interval	dot	NaN	NaN	NaN	NaN	NaN	NaN	NaN	NaN	NaN	NaN	NaN	NaN
796.0374611999996	8.3884	sub-25	1	sequence	delay	dot	NaN	NaN	NaN	NaN	NaN	NaN	NaN	NaN	NaN	NaN	NaN	NaN
804.4085477999997	0.8531	sub-25	1	sequence	choice	choice	left	NaN	NaN	0.8228314999996655	True	NaN	NaN	left	True	5.0	3.0	5.0
805.2618454000003	0.5002	sub-25	1	sequence	feedback	NaN	NaN	NaN	NaN	NaN	NaN	NaN	NaN	NaN	NaN	NaN	NaN	NaN
805.7621966000006	1.0008	sub-25	1	sequence	cue	Haus	NaN	NaN	NaN	NaN	NaN	NaN	NaN	NaN	NaN	NaN	NaN	NaN
806.7629655000001	2.0017	sub-25	1	sequence	blank	blank	NaN	NaN	NaN	NaN	NaN	NaN	NaN	NaN	NaN	NaN	NaN	NaN
808.7646958000005	0.3002	sub-25	1	sequence	fixation	dot	NaN	NaN	NaN	NaN	NaN	NaN	NaN	NaN	NaN	NaN	NaN	NaN
809.0834138999999	0.1149	sub-25	1	sequence	stimulus	Stuhl	NaN	NaN	512.0	NaN	NaN	5.0	1.0	NaN	NaN	NaN	NaN	NaN
809.1983068999998	0.5171	sub-25	1	sequence	interval	dot	NaN	NaN	NaN	NaN	NaN	NaN	NaN	NaN	NaN	NaN	NaN	NaN
809.7154167000008	0.0999	sub-25	1	sequence	stimulus	Katze	NaN	NaN	512.0	NaN	NaN	3.0	2.0	NaN	NaN	NaN	NaN	NaN
809.8153471999995	0.5171	sub-25	1	sequence	interval	dot	NaN	NaN	NaN	NaN	NaN	NaN	NaN	NaN	NaN	NaN	NaN	NaN
810.3324849	0.0999	sub-25	1	sequence	stimulus	Haus	NaN	NaN	512.0	NaN	NaN	2.0	3.0	NaN	NaN	NaN	NaN	NaN
810.4324185999994	0.5172	sub-25	1	sequence	interval	dot	NaN	NaN	NaN	NaN	NaN	NaN	NaN	NaN	NaN	NaN	NaN	NaN
810.9496321999995	0.0999	sub-25	1	sequence	stimulus	Schuh	NaN	NaN	512.0	NaN	NaN	4.0	4.0	NaN	NaN	NaN	NaN	NaN
811.049570000001	0.5172	sub-25	1	sequence	interval	dot	NaN	NaN	NaN	NaN	NaN	NaN	NaN	NaN	NaN	NaN	NaN	NaN
811.5667997	0.0999	sub-25	1	sequence	stimulus	Gesicht	NaN	NaN	512.0	NaN	NaN	1.0	5.0	NaN	NaN	NaN	NaN	NaN
811.6667357999995	0.5171	sub-25	1	sequence	interval	dot	NaN	NaN	NaN	NaN	NaN	NaN	NaN	NaN	NaN	NaN	NaN	NaN
812.1838175000012	6.1533	sub-25	1	sequence	delay	dot	NaN	NaN	NaN	NaN	NaN	NaN	NaN	NaN	NaN	NaN	NaN	NaN
818.3182410000009	0.7713	sub-25	1	sequence	choice	choice	right	NaN	NaN	0.7436458000011044	True	NaN	NaN	right	True	2.0	3.0	3.0
819.0896978000001	0.5001	sub-25	1	sequence	feedback	NaN	NaN	NaN	NaN	NaN	NaN	NaN	NaN	NaN	NaN	NaN	NaN	NaN
819.5899838999994	1.0007	sub-25	1	sequence	cue	Haus	NaN	NaN	NaN	NaN	NaN	NaN	NaN	NaN	NaN	NaN	NaN	NaN
820.5907067000007	2.0016	sub-25	1	sequence	blank	blank	NaN	NaN	NaN	NaN	NaN	NaN	NaN	NaN	NaN	NaN	NaN	NaN
822.5923062000002	0.3002	sub-25	1	sequence	fixation	dot	NaN	NaN	NaN	NaN	NaN	NaN	NaN	NaN	NaN	NaN	NaN	NaN
822.9101200000005	0.0991	sub-25	1	sequence	stimulus	Katze	NaN	NaN	32.0	NaN	NaN	3.0	1.0	NaN	NaN	NaN	NaN	NaN
823.0092475000001	0.0335	sub-25	1	sequence	interval	dot	NaN	NaN	NaN	NaN	NaN	NaN	NaN	NaN	NaN	NaN	NaN	NaN
823.0427486999997	0.1	sub-25	1	sequence	stimulus	Stuhl	NaN	NaN	32.0	NaN	NaN	5.0	2.0	NaN	NaN	NaN	NaN	NaN
823.1427261000008	0.0335	sub-25	1	sequence	interval	dot	NaN	NaN	NaN	NaN	NaN	NaN	NaN	NaN	NaN	NaN	NaN	NaN
823.1761901999998	0.1	sub-25	1	sequence	stimulus	Schuh	NaN	NaN	32.0	NaN	NaN	4.0	3.0	NaN	NaN	NaN	NaN	NaN
823.2761492000009	0.0335	sub-25	1	sequence	interval	dot	NaN	NaN	NaN	NaN	NaN	NaN	NaN	NaN	NaN	NaN	NaN	NaN
823.3096430999994	0.0999	sub-25	1	sequence	stimulus	Haus	NaN	NaN	32.0	NaN	NaN	2.0	4.0	NaN	NaN	NaN	NaN	NaN
823.4095916999995	0.0335	sub-25	1	sequence	interval	dot	NaN	NaN	NaN	NaN	NaN	NaN	NaN	NaN	NaN	NaN	NaN	NaN
823.4430904000001	0.1	sub-25	1	sequence	stimulus	Gesicht	NaN	NaN	32.0	NaN	NaN	1.0	5.0	NaN	NaN	NaN	NaN	NaN
823.5430643	0.0333	sub-25	1	sequence	interval	dot	NaN	NaN	NaN	NaN	NaN	NaN	NaN	NaN	NaN	NaN	NaN	NaN
823.5763820000011	8.5384	sub-25	1	sequence	delay	dot	NaN	NaN	NaN	NaN	NaN	NaN	NaN	NaN	NaN	NaN	NaN	NaN
832.0979562000011	0.8863	sub-25	1	sequence	choice	choice	left	NaN	NaN	0.8539048999991792	True	NaN	NaN	left	True	4.0	5.0	4.0
832.9844508999995	0.5	sub-25	1	sequence	feedback	NaN	NaN	NaN	NaN	NaN	NaN	NaN	NaN	NaN	NaN	NaN	NaN	NaN
833.4847680000003	13.6942	sub-25	1	other	break	break	NaN	NaN	NaN	NaN	NaN	NaN	NaN	NaN	NaN	NaN	NaN	NaN
850.9997108000007	0.4994	sub-25	1	localizer	stimulus	Haus	NaN	180	2.218312999999398	0.5450289999989764	True	NaN	NaN	NaN	NaN	NaN	NaN	NaN
851.4991279000005	2.2183	sub-25	1	localizer	blank	interval	NaN	NaN	NaN	NaN	NaN	NaN	NaN	NaN	NaN	NaN	NaN	NaN
854.0186104000004	0.4994	sub-25	1	localizer	stimulus	Stuhl	NaN	0	2.0681802999988577	NaN	True	NaN	NaN	NaN	NaN	NaN	NaN	NaN
854.5015314000011	2.0682	sub-25	1	localizer	blank	interval	NaN	NaN	NaN	NaN	NaN	NaN	NaN	NaN	NaN	NaN	NaN	NaN
856.8709541000007	0.4994	sub-25	1	localizer	stimulus	Haus	NaN	0	2.1349126000004617	NaN	True	NaN	NaN	NaN	NaN	NaN	NaN	NaN
857.3538676000007	2.1349	sub-25	1	localizer	blank	interval	NaN	NaN	NaN	NaN	NaN	NaN	NaN	NaN	NaN	NaN	NaN	NaN
859.7899739000004	0.4994	sub-25	1	localizer	stimulus	Haus	NaN	0	2.3350608000000648	NaN	True	NaN	NaN	NaN	NaN	NaN	NaN	NaN
860.2729027999994	2.3351	sub-25	1	localizer	blank	interval	NaN	NaN	NaN	NaN	NaN	NaN	NaN	NaN	NaN	NaN	NaN	NaN
862.9091253999995	0.4994	sub-25	1	localizer	stimulus	Katze	NaN	0	2.2684109000001627	NaN	True	NaN	NaN	NaN	NaN	NaN	NaN	NaN
863.3920165	2.2684	sub-25	1	localizer	blank	interval	NaN	NaN	NaN	NaN	NaN	NaN	NaN	NaN	NaN	NaN	NaN	NaN
865.9615611999998	0.4995	sub-25	1	localizer	stimulus	Katze	NaN	180	2.301852199998393	0.4871868999998696	True	NaN	NaN	NaN	NaN	NaN	NaN	NaN
866.444518100001	2.3019	sub-25	1	localizer	blank	interval	NaN	NaN	NaN	NaN	NaN	NaN	NaN	NaN	NaN	NaN	NaN	NaN
869.0474876999997	0.4995	sub-25	1	localizer	stimulus	Gesicht	NaN	0	2.802170800001477	NaN	True	NaN	NaN	NaN	NaN	NaN	NaN	NaN
869.5305143999994	2.8022	sub-25	1	localizer	blank	interval	NaN	NaN	NaN	NaN	NaN	NaN	NaN	NaN	NaN	NaN	NaN	NaN
872.633694600001	0.4994	sub-25	1	localizer	stimulus	Katze	NaN	0	2.6853810000011435	NaN	True	NaN	NaN	NaN	NaN	NaN	NaN	NaN
873.1165677999998	2.6854	sub-25	1	localizer	blank	interval	NaN	NaN	NaN	NaN	NaN	NaN	NaN	NaN	NaN	NaN	NaN	NaN
876.1030974999994	0.4995	sub-25	1	localizer	stimulus	Schuh	NaN	180	2.735408099999404	0.5136554000000615	True	NaN	NaN	NaN	NaN	NaN	NaN	NaN
876.5860551000005	2.7354	sub-25	1	localizer	blank	interval	NaN	NaN	NaN	NaN	NaN	NaN	NaN	NaN	NaN	NaN	NaN	NaN
879.6226561000003	0.4994	sub-25	1	localizer	stimulus	Haus	NaN	0	1.5677887000001647	NaN	True	NaN	NaN	NaN	NaN	NaN	NaN	NaN
880.1055773999997	1.5678	sub-25	1	localizer	blank	interval	NaN	NaN	NaN	NaN	NaN	NaN	NaN	NaN	NaN	NaN	NaN	NaN
881.9745414000008	0.4995	sub-25	1	localizer	stimulus	Schuh	NaN	0	2.0015585999990435	NaN	True	NaN	NaN	NaN	NaN	NaN	NaN	NaN
882.4574289000011	2.0016	sub-25	1	localizer	blank	interval	NaN	NaN	NaN	NaN	NaN	NaN	NaN	NaN	NaN	NaN	NaN	NaN
884.7601138999999	0.4995	sub-25	1	localizer	stimulus	Katze	NaN	0	3.2858790999998746	NaN	True	NaN	NaN	NaN	NaN	NaN	NaN	NaN
885.2430196000005	3.2859	sub-25	1	localizer	blank	interval	NaN	NaN	NaN	NaN	NaN	NaN	NaN	NaN	NaN	NaN	NaN	NaN
888.8302760999995	0.4993	sub-25	1	localizer	stimulus	Haus	NaN	0	2.5186771000007866	NaN	True	NaN	NaN	NaN	NaN	NaN	NaN	NaN
889.3130474999998	2.5187	sub-25	1	localizer	blank	interval	NaN	NaN	NaN	NaN	NaN	NaN	NaN	NaN	NaN	NaN	NaN	NaN
892.1328957000005	0.4996	sub-25	1	localizer	stimulus	Gesicht	NaN	0	1.7176677000006748	NaN	True	NaN	NaN	NaN	NaN	NaN	NaN	NaN
892.6159167000005	1.7177	sub-25	1	localizer	blank	interval	NaN	NaN	NaN	NaN	NaN	NaN	NaN	NaN	NaN	NaN	NaN	NaN
894.6347722999999	0.4994	sub-25	1	localizer	stimulus	Gesicht	NaN	180	2.2349985000000743	0.6459400999992795	True	NaN	NaN	NaN	NaN	NaN	NaN	NaN
895.117683800001	2.235	sub-25	1	localizer	blank	interval	NaN	NaN	NaN	NaN	NaN	NaN	NaN	NaN	NaN	NaN	NaN	NaN
897.6538793	0.4995	sub-25	1	localizer	stimulus	Schuh	NaN	0	2.0515324999996665	NaN	True	NaN	NaN	NaN	NaN	NaN	NaN	NaN
898.136778	2.0515	sub-25	1	localizer	blank	interval	NaN	NaN	NaN	NaN	NaN	NaN	NaN	NaN	NaN	NaN	NaN	NaN
900.489461000001	0.4995	sub-25	1	localizer	stimulus	Schuh	NaN	0	2.768764000000374	NaN	True	NaN	NaN	NaN	NaN	NaN	NaN	NaN
900.9724095	2.7688	sub-25	1	localizer	blank	interval	NaN	NaN	NaN	NaN	NaN	NaN	NaN	NaN	NaN	NaN	NaN	NaN
904.0423257000002	0.4995	sub-25	1	localizer	stimulus	Stuhl	NaN	0	1.9847863999985975	NaN	True	NaN	NaN	NaN	NaN	NaN	NaN	NaN
904.525292100001	1.9848	sub-25	1	localizer	blank	interval	NaN	NaN	NaN	NaN	NaN	NaN	NaN	NaN	NaN	NaN	NaN	NaN
906.8112516	0.4995	sub-25	1	localizer	stimulus	Katze	NaN	0	2.4518867999995564	NaN	True	NaN	NaN	NaN	NaN	NaN	NaN	NaN
907.2942033	2.4519	sub-25	1	localizer	blank	interval	NaN	NaN	NaN	NaN	NaN	NaN	NaN	NaN	NaN	NaN	NaN	NaN
910.0473720999998	0.4994	sub-25	1	localizer	stimulus	Stuhl	NaN	0	2.93572560000041	NaN	True	NaN	NaN	NaN	NaN	NaN	NaN	NaN
910.5302210000008	2.9357	sub-25	1	localizer	blank	interval	NaN	NaN	NaN	NaN	NaN	NaN	NaN	NaN	NaN	NaN	NaN	NaN
913.7671123	0.4997	sub-25	1	localizer	stimulus	Gesicht	NaN	0	2.2681152999994083	NaN	True	NaN	NaN	NaN	NaN	NaN	NaN	NaN
914.250028800001	2.2681	sub-25	1	localizer	blank	interval	NaN	NaN	NaN	NaN	NaN	NaN	NaN	NaN	NaN	NaN	NaN	NaN
916.8193293000004	0.4995	sub-25	1	localizer	stimulus	Stuhl	NaN	0	1.801324299998555	NaN	True	NaN	NaN	NaN	NaN	NaN	NaN	NaN
917.3022546000012	1.8013	sub-25	1	localizer	blank	interval	NaN	NaN	NaN	NaN	NaN	NaN	NaN	NaN	NaN	NaN	NaN	NaN
919.4047432000008	0.4995	sub-25	1	localizer	stimulus	Stuhl	NaN	180	3.219140499999412	0.5800896000000648	True	NaN	NaN	NaN	NaN	NaN	NaN	NaN
919.8876698000004	3.2191	sub-25	1	localizer	blank	interval	NaN	NaN	NaN	NaN	NaN	NaN	NaN	NaN	NaN	NaN	NaN	NaN
923.4079923000008	0.4995	sub-25	1	localizer	stimulus	Schuh	NaN	0	2.518582599999604	NaN	True	NaN	NaN	NaN	NaN	NaN	NaN	NaN
923.8909239000004	2.5186	sub-25	1	localizer	blank	interval	NaN	NaN	NaN	NaN	NaN	NaN	NaN	NaN	NaN	NaN	NaN	NaN
926.7106636999996	0.4995	sub-25	1	localizer	stimulus	Gesicht	NaN	0	2.5686172999995733	NaN	True	NaN	NaN	NaN	NaN	NaN	NaN	NaN
927.1935850000008	2.5686	sub-25	1	localizer	blank	interval	NaN	NaN	NaN	NaN	NaN	NaN	NaN	NaN	NaN	NaN	NaN	NaN
933.2467950000008	1.0028	sub-25	1	sequence	cue	Gesicht	NaN	NaN	NaN	NaN	NaN	NaN	NaN	NaN	NaN	NaN	NaN	NaN
934.2495725999996	2.0012	sub-25	1	sequence	blank	blank	NaN	NaN	NaN	NaN	NaN	NaN	NaN	NaN	NaN	NaN	NaN	NaN
936.2508063000004	0.3002	sub-25	1	sequence	fixation	dot	NaN	NaN	NaN	NaN	NaN	NaN	NaN	NaN	NaN	NaN	NaN	NaN
936.5686172000004	0.0991	sub-25	1	sequence	stimulus	Katze	NaN	NaN	128.0	NaN	NaN	3.0	1.0	NaN	NaN	NaN	NaN	NaN
936.6677560000008	0.1336	sub-25	1	sequence	interval	dot	NaN	NaN	NaN	NaN	NaN	NaN	NaN	NaN	NaN	NaN	NaN	NaN
936.8013382000008	0.1	sub-25	1	sequence	stimulus	Stuhl	NaN	NaN	128.0	NaN	NaN	5.0	2.0	NaN	NaN	NaN	NaN	NaN
936.9012954999998	0.1336	sub-25	1	sequence	interval	dot	NaN	NaN	NaN	NaN	NaN	NaN	NaN	NaN	NaN	NaN	NaN	NaN
937.0348940000003	0.0999	sub-25	1	sequence	stimulus	Haus	NaN	NaN	128.0	NaN	NaN	2.0	3.0	NaN	NaN	NaN	NaN	NaN
937.1348237000002	0.1336	sub-25	1	sequence	interval	dot	NaN	NaN	NaN	NaN	NaN	NaN	NaN	NaN	NaN	NaN	NaN	NaN
937.2683918000002	0.0999	sub-25	1	sequence	stimulus	Schuh	NaN	NaN	128.0	NaN	NaN	4.0	4.0	NaN	NaN	NaN	NaN	NaN
937.3683326000008	0.1336	sub-25	1	sequence	interval	dot	NaN	NaN	NaN	NaN	NaN	NaN	NaN	NaN	NaN	NaN	NaN	NaN
937.5019157000006	0.1	sub-25	1	sequence	stimulus	Gesicht	NaN	NaN	128.0	NaN	NaN	1.0	5.0	NaN	NaN	NaN	NaN	NaN
937.6018716	0.1334	sub-25	1	sequence	interval	dot	NaN	NaN	NaN	NaN	NaN	NaN	NaN	NaN	NaN	NaN	NaN	NaN
937.7353185000012	8.0714	sub-25	1	sequence	delay	dot	NaN	NaN	NaN	NaN	NaN	NaN	NaN	NaN	NaN	NaN	NaN	NaN
945.793497300001	0.8491	sub-25	1	sequence	choice	choice	right	NaN	NaN	0.8340373999999429	True	NaN	NaN	right	True	3.0	5.0	5.0
946.6428335	0.5001	sub-25	1	sequence	feedback	NaN	NaN	NaN	NaN	NaN	NaN	NaN	NaN	NaN	NaN	NaN	NaN	NaN
947.1430382	1.0009	sub-25	1	sequence	cue	Schuh	NaN	NaN	NaN	NaN	NaN	NaN	NaN	NaN	NaN	NaN	NaN	NaN
948.1439558000002	2.0014	sub-25	1	sequence	blank	blank	NaN	NaN	NaN	NaN	NaN	NaN	NaN	NaN	NaN	NaN	NaN	NaN
950.1453619000004	0.3004	sub-25	1	sequence	fixation	dot	NaN	NaN	NaN	NaN	NaN	NaN	NaN	NaN	NaN	NaN	NaN	NaN
950.4635397000002	0.1155	sub-25	1	sequence	stimulus	Katze	NaN	NaN	32.0	NaN	NaN	3.0	1.0	NaN	NaN	NaN	NaN	NaN
950.5790447	0.0335	sub-25	1	sequence	interval	dot	NaN	NaN	NaN	NaN	NaN	NaN	NaN	NaN	NaN	NaN	NaN	NaN
950.6125119999996	0.1	sub-25	1	sequence	stimulus	Stuhl	NaN	NaN	32.0	NaN	NaN	5.0	2.0	NaN	NaN	NaN	NaN	NaN
950.7124896999994	0.0335	sub-25	1	sequence	interval	dot	NaN	NaN	NaN	NaN	NaN	NaN	NaN	NaN	NaN	NaN	NaN	NaN
950.745949600001	0.1	sub-25	1	sequence	stimulus	Schuh	NaN	NaN	32.0	NaN	NaN	4.0	3.0	NaN	NaN	NaN	NaN	NaN
950.8459278000008	0.0335	sub-25	1	sequence	interval	dot	NaN	NaN	NaN	NaN	NaN	NaN	NaN	NaN	NaN	NaN	NaN	NaN
950.8794455999996	0.0999	sub-25	1	sequence	stimulus	Haus	NaN	NaN	32.0	NaN	NaN	2.0	4.0	NaN	NaN	NaN	NaN	NaN
950.9793812000008	0.0335	sub-25	1	sequence	interval	dot	NaN	NaN	NaN	NaN	NaN	NaN	NaN	NaN	NaN	NaN	NaN	NaN
951.012862900001	0.0999	sub-25	1	sequence	stimulus	Gesicht	NaN	NaN	32.0	NaN	NaN	1.0	5.0	NaN	NaN	NaN	NaN	NaN
951.1127957000008	0.0334	sub-25	1	sequence	interval	dot	NaN	NaN	NaN	NaN	NaN	NaN	NaN	NaN	NaN	NaN	NaN	NaN
951.1461476000004	8.5217	sub-25	1	sequence	delay	dot	NaN	NaN	NaN	NaN	NaN	NaN	NaN	NaN	NaN	NaN	NaN	NaN
959.6512120000008	0.8026	sub-25	1	sequence	choice	choice	left	NaN	NaN	0.7728239999996731	True	NaN	NaN	left	True	3.0	5.0	3.0
960.4539225999996	0.5002	sub-25	1	sequence	feedback	NaN	NaN	NaN	NaN	NaN	NaN	NaN	NaN	NaN	NaN	NaN	NaN	NaN
960.9542220000004	1.0007	sub-25	1	sequence	cue	Schuh	NaN	NaN	NaN	NaN	NaN	NaN	NaN	NaN	NaN	NaN	NaN	NaN
961.9549519000012	2.0016	sub-25	1	sequence	blank	blank	NaN	NaN	NaN	NaN	NaN	NaN	NaN	NaN	NaN	NaN	NaN	NaN
963.9565240000012	0.3002	sub-25	1	sequence	fixation	dot	NaN	NaN	NaN	NaN	NaN	NaN	NaN	NaN	NaN	NaN	NaN	NaN
964.2751733999994	0.115	sub-25	1	sequence	stimulus	Gesicht	NaN	NaN	64.0	NaN	NaN	1.0	1.0	NaN	NaN	NaN	NaN	NaN
964.3901796000008	0.0669	sub-25	1	sequence	interval	dot	NaN	NaN	NaN	NaN	NaN	NaN	NaN	NaN	NaN	NaN	NaN	NaN
964.4570514000006	0.0999	sub-25	1	sequence	stimulus	Haus	NaN	NaN	64.0	NaN	NaN	2.0	2.0	NaN	NaN	NaN	NaN	NaN
964.5569723000008	0.0669	sub-25	1	sequence	interval	dot	NaN	NaN	NaN	NaN	NaN	NaN	NaN	NaN	NaN	NaN	NaN	NaN
964.6238391000006	0.0999	sub-25	1	sequence	stimulus	Katze	NaN	NaN	64.0	NaN	NaN	3.0	3.0	NaN	NaN	NaN	NaN	NaN
964.7237839000009	0.0668	sub-25	1	sequence	interval	dot	NaN	NaN	NaN	NaN	NaN	NaN	NaN	NaN	NaN	NaN	NaN	NaN
964.7906271000012	0.1	sub-25	1	sequence	stimulus	Stuhl	NaN	NaN	64.0	NaN	NaN	5.0	4.0	NaN	NaN	NaN	NaN	NaN
964.8905938000008	0.0668	sub-25	1	sequence	interval	dot	NaN	NaN	NaN	NaN	NaN	NaN	NaN	NaN	NaN	NaN	NaN	NaN
964.9574426	0.0999	sub-25	1	sequence	stimulus	Schuh	NaN	NaN	64.0	NaN	NaN	4.0	5.0	NaN	NaN	NaN	NaN	NaN
965.0573817000004	0.0667	sub-25	1	sequence	interval	dot	NaN	NaN	NaN	NaN	NaN	NaN	NaN	NaN	NaN	NaN	NaN	NaN
965.1241171	8.3715	sub-25	1	sequence	delay	dot	NaN	NaN	NaN	NaN	NaN	NaN	NaN	NaN	NaN	NaN	NaN	NaN
973.4828491000007	0.799	sub-25	1	sequence	choice	choice	right	NaN	NaN	0.7770299000003433	True	NaN	NaN	right	True	4.0	5.0	5.0
974.2819887999996	0.5	sub-25	1	sequence	feedback	NaN	NaN	NaN	NaN	NaN	NaN	NaN	NaN	NaN	NaN	NaN	NaN	NaN
974.7821646000012	1.0008	sub-25	1	sequence	cue	Haus	NaN	NaN	NaN	NaN	NaN	NaN	NaN	NaN	NaN	NaN	NaN	NaN
975.7829401	2.0014	sub-25	1	sequence	blank	blank	NaN	NaN	NaN	NaN	NaN	NaN	NaN	NaN	NaN	NaN	NaN	NaN
977.7843785999994	0.3004	sub-25	1	sequence	fixation	dot	NaN	NaN	NaN	NaN	NaN	NaN	NaN	NaN	NaN	NaN	NaN	NaN
978.1021944000004	0.0992	sub-25	1	sequence	stimulus	Stuhl	NaN	NaN	512.0	NaN	NaN	5.0	1.0	NaN	NaN	NaN	NaN	NaN
978.2013488000013	0.5172	sub-25	1	sequence	interval	dot	NaN	NaN	NaN	NaN	NaN	NaN	NaN	NaN	NaN	NaN	NaN	NaN
978.7185719999998	0.1	sub-25	1	sequence	stimulus	Katze	NaN	NaN	512.0	NaN	NaN	3.0	2.0	NaN	NaN	NaN	NaN	NaN
978.8185365999998	0.5172	sub-25	1	sequence	interval	dot	NaN	NaN	NaN	NaN	NaN	NaN	NaN	NaN	NaN	NaN	NaN	NaN
979.3357565999996	0.0999	sub-25	1	sequence	stimulus	Haus	NaN	NaN	512.0	NaN	NaN	2.0	3.0	NaN	NaN	NaN	NaN	NaN
979.4356910000006	0.5172	sub-25	1	sequence	interval	dot	NaN	NaN	NaN	NaN	NaN	NaN	NaN	NaN	NaN	NaN	NaN	NaN
979.9529007	0.0999	sub-25	1	sequence	stimulus	Schuh	NaN	NaN	512.0	NaN	NaN	4.0	4.0	NaN	NaN	NaN	NaN	NaN
980.0528453999996	0.5172	sub-25	1	sequence	interval	dot	NaN	NaN	NaN	NaN	NaN	NaN	NaN	NaN	NaN	NaN	NaN	NaN
980.570070400001	0.1	sub-25	1	sequence	stimulus	Gesicht	NaN	NaN	512.0	NaN	NaN	1.0	5.0	NaN	NaN	NaN	NaN	NaN
980.6700421999994	0.5171	sub-25	1	sequence	interval	dot	NaN	NaN	NaN	NaN	NaN	NaN	NaN	NaN	NaN	NaN	NaN	NaN
981.1870989	6.1533	sub-25	1	sequence	delay	dot	NaN	NaN	NaN	NaN	NaN	NaN	NaN	NaN	NaN	NaN	NaN	NaN
987.3145203000004	0.8116	sub-25	1	sequence	choice	choice	right	NaN	NaN	0.7801818999996613	True	NaN	NaN	right	True	4.0	3.0	3.0
988.1262972000004	0.5002	sub-25	1	sequence	feedback	NaN	NaN	NaN	NaN	NaN	NaN	NaN	NaN	NaN	NaN	NaN	NaN	NaN
988.6266414000002	1.0007	sub-25	1	sequence	cue	Stuhl	NaN	NaN	NaN	NaN	NaN	NaN	NaN	NaN	NaN	NaN	NaN	NaN
989.6272996999996	2.0016	sub-25	1	sequence	blank	blank	NaN	NaN	NaN	NaN	NaN	NaN	NaN	NaN	NaN	NaN	NaN	NaN
991.6289224000012	0.3002	sub-25	1	sequence	fixation	dot	NaN	NaN	NaN	NaN	NaN	NaN	NaN	NaN	NaN	NaN	NaN	NaN
991.9476954000002	0.1149	sub-25	1	sequence	stimulus	Schuh	NaN	NaN	64.0	NaN	NaN	4.0	1.0	NaN	NaN	NaN	NaN	NaN
992.0626310999996	0.0668	sub-25	1	sequence	interval	dot	NaN	NaN	NaN	NaN	NaN	NaN	NaN	NaN	NaN	NaN	NaN	NaN
992.1293967	0.1	sub-25	1	sequence	stimulus	Katze	NaN	NaN	64.0	NaN	NaN	3.0	2.0	NaN	NaN	NaN	NaN	NaN
992.2293836999996	0.0668	sub-25	1	sequence	interval	dot	NaN	NaN	NaN	NaN	NaN	NaN	NaN	NaN	NaN	NaN	NaN	NaN
992.2962148999997	0.0999	sub-25	1	sequence	stimulus	Gesicht	NaN	NaN	64.0	NaN	NaN	1.0	3.0	NaN	NaN	NaN	NaN	NaN
992.3961387	0.0669	sub-25	1	sequence	interval	dot	NaN	NaN	NaN	NaN	NaN	NaN	NaN	NaN	NaN	NaN	NaN	NaN
992.4630209000006	0.0999	sub-25	1	sequence	stimulus	Haus	NaN	NaN	64.0	NaN	NaN	2.0	4.0	NaN	NaN	NaN	NaN	NaN
992.5629643000012	0.0669	sub-25	1	sequence	interval	dot	NaN	NaN	NaN	NaN	NaN	NaN	NaN	NaN	NaN	NaN	NaN	NaN
992.6298160000006	0.1	sub-25	1	sequence	stimulus	Stuhl	NaN	NaN	64.0	NaN	NaN	5.0	5.0	NaN	NaN	NaN	NaN	NaN
992.7297890000008	0.0667	sub-25	1	sequence	interval	dot	NaN	NaN	NaN	NaN	NaN	NaN	NaN	NaN	NaN	NaN	NaN	NaN
992.796491000001	8.3716	sub-25	1	sequence	delay	dot	NaN	NaN	NaN	NaN	NaN	NaN	NaN	NaN	NaN	NaN	NaN	NaN
1001.1462728000006	0.741	sub-25	1	sequence	choice	choice	left	NaN	NaN	0.7124648000008165	True	NaN	NaN	left	True	5.0	4.0	5.0
1001.8873994000004	0.5002	sub-25	1	sequence	feedback	NaN	NaN	NaN	NaN	NaN	NaN	NaN	NaN	NaN	NaN	NaN	NaN	NaN
1002.3877121999994	1.0007	sub-25	1	sequence	cue	Gesicht	NaN	NaN	NaN	NaN	NaN	NaN	NaN	NaN	NaN	NaN	NaN	NaN
1003.3884665999994	2.0015	sub-25	1	sequence	blank	blank	NaN	NaN	NaN	NaN	NaN	NaN	NaN	NaN	NaN	NaN	NaN	NaN
1005.3900133999996	0.3003	sub-25	1	sequence	fixation	dot	NaN	NaN	NaN	NaN	NaN	NaN	NaN	NaN	NaN	NaN	NaN	NaN
1005.7086347000004	0.1151	sub-25	1	sequence	stimulus	Schuh	NaN	NaN	32.0	NaN	NaN	4.0	1.0	NaN	NaN	NaN	NaN	NaN
1005.8237277000007	0.0335	sub-25	1	sequence	interval	dot	NaN	NaN	NaN	NaN	NaN	NaN	NaN	NaN	NaN	NaN	NaN	NaN
1005.857184800001	0.1	sub-25	1	sequence	stimulus	Katze	NaN	NaN	32.0	NaN	NaN	3.0	2.0	NaN	NaN	NaN	NaN	NaN
1005.9571493000004	0.0336	sub-25	1	sequence	interval	dot	NaN	NaN	NaN	NaN	NaN	NaN	NaN	NaN	NaN	NaN	NaN	NaN
1005.9907005999994	0.0999	sub-25	1	sequence	stimulus	Haus	NaN	NaN	32.0	NaN	NaN	2.0	3.0	NaN	NaN	NaN	NaN	NaN
1006.0906018999996	0.0335	sub-25	1	sequence	interval	dot	NaN	NaN	NaN	NaN	NaN	NaN	NaN	NaN	NaN	NaN	NaN	NaN
1006.124080900001	0.0999	sub-25	1	sequence	stimulus	Stuhl	NaN	NaN	32.0	NaN	NaN	5.0	4.0	NaN	NaN	NaN	NaN	NaN
1006.2240120000006	0.0335	sub-25	1	sequence	interval	dot	NaN	NaN	NaN	NaN	NaN	NaN	NaN	NaN	NaN	NaN	NaN	NaN
1006.2575040000012	0.1	sub-25	1	sequence	stimulus	Gesicht	NaN	NaN	32.0	NaN	NaN	1.0	5.0	NaN	NaN	NaN	NaN	NaN
1006.3574664000008	0.0333	sub-25	1	sequence	interval	dot	NaN	NaN	NaN	NaN	NaN	NaN	NaN	NaN	NaN	NaN	NaN	NaN
1006.3908095000006	8.5217	sub-25	1	sequence	delay	dot	NaN	NaN	NaN	NaN	NaN	NaN	NaN	NaN	NaN	NaN	NaN	NaN
1014.8999758999998	0.8153	sub-25	1	sequence	choice	choice	right	NaN	NaN	0.7921037999985856	True	NaN	NaN	right	True	3.0	5.0	5.0
1015.7154530000008	0.5001	sub-25	1	sequence	feedback	NaN	NaN	NaN	NaN	NaN	NaN	NaN	NaN	NaN	NaN	NaN	NaN	NaN
1016.2157195	1.0007	sub-25	1	sequence	cue	Gesicht	NaN	NaN	NaN	NaN	NaN	NaN	NaN	NaN	NaN	NaN	NaN	NaN
1017.2164221000004	2.0016	sub-25	1	sequence	blank	blank	NaN	NaN	NaN	NaN	NaN	NaN	NaN	NaN	NaN	NaN	NaN	NaN
1019.2179969999996	0.3002	sub-25	1	sequence	fixation	dot	NaN	NaN	NaN	NaN	NaN	NaN	NaN	NaN	NaN	NaN	NaN	NaN
1019.5357347999998	0.0991	sub-25	1	sequence	stimulus	Haus	NaN	NaN	128.0	NaN	NaN	2.0	1.0	NaN	NaN	NaN	NaN	NaN
1019.6348816000008	0.1336	sub-25	1	sequence	interval	dot	NaN	NaN	NaN	NaN	NaN	NaN	NaN	NaN	NaN	NaN	NaN	NaN
1019.7684363999996	0.1	sub-25	1	sequence	stimulus	Schuh	NaN	NaN	128.0	NaN	NaN	4.0	2.0	NaN	NaN	NaN	NaN	NaN
1019.8683930999996	0.1336	sub-25	1	sequence	interval	dot	NaN	NaN	NaN	NaN	NaN	NaN	NaN	NaN	NaN	NaN	NaN	NaN
1020.0019475999998	0.1	sub-25	1	sequence	stimulus	Stuhl	NaN	NaN	128.0	NaN	NaN	5.0	3.0	NaN	NaN	NaN	NaN	NaN
1020.1019188000008	0.1336	sub-25	1	sequence	interval	dot	NaN	NaN	NaN	NaN	NaN	NaN	NaN	NaN	NaN	NaN	NaN	NaN
1020.2354917000011	0.1	sub-25	1	sequence	stimulus	Gesicht	NaN	NaN	128.0	NaN	NaN	1.0	4.0	NaN	NaN	NaN	NaN	NaN
1020.3354490000002	0.1335	sub-25	1	sequence	interval	dot	NaN	NaN	NaN	NaN	NaN	NaN	NaN	NaN	NaN	NaN	NaN	NaN
1020.4689787999996	0.1	sub-25	1	sequence	stimulus	Katze	NaN	NaN	128.0	NaN	NaN	3.0	5.0	NaN	NaN	NaN	NaN	NaN
1020.5689514999996	0.1334	sub-25	1	sequence	interval	dot	NaN	NaN	NaN	NaN	NaN	NaN	NaN	NaN	NaN	NaN	NaN	NaN
1020.7023900000004	8.0715	sub-25	1	sequence	delay	dot	NaN	NaN	NaN	NaN	NaN	NaN	NaN	NaN	NaN	NaN	NaN	NaN
1028.7576804	0.9855	sub-25	1	sequence	choice	choice	left	NaN	NaN	0.9626535000006696	True	NaN	NaN	left	True	4.0	5.0	4.0
1029.7433097000012	0.5002	sub-25	1	sequence	feedback	NaN	NaN	NaN	NaN	NaN	NaN	NaN	NaN	NaN	NaN	NaN	NaN	NaN
1030.243607800001	1.0007	sub-25	1	sequence	cue	Haus	NaN	NaN	NaN	NaN	NaN	NaN	NaN	NaN	NaN	NaN	NaN	NaN
1031.2442850999996	2.0016	sub-25	1	sequence	blank	blank	NaN	NaN	NaN	NaN	NaN	NaN	NaN	NaN	NaN	NaN	NaN	NaN
1033.2459118000006	0.3004	sub-25	1	sequence	fixation	dot	NaN	NaN	NaN	NaN	NaN	NaN	NaN	NaN	NaN	NaN	NaN	NaN
1033.564837100001	0.1147	sub-25	1	sequence	stimulus	Katze	NaN	NaN	512.0	NaN	NaN	3.0	1.0	NaN	NaN	NaN	NaN	NaN
1033.6795514999994	0.5172	sub-25	1	sequence	interval	dot	NaN	NaN	NaN	NaN	NaN	NaN	NaN	NaN	NaN	NaN	NaN	NaN
1034.196784400001	0.0999	sub-25	1	sequence	stimulus	Stuhl	NaN	NaN	512.0	NaN	NaN	5.0	2.0	NaN	NaN	NaN	NaN	NaN
1034.2967277000007	0.5172	sub-25	1	sequence	interval	dot	NaN	NaN	NaN	NaN	NaN	NaN	NaN	NaN	NaN	NaN	NaN	NaN
1034.8139518000007	0.0999	sub-25	1	sequence	stimulus	Gesicht	NaN	NaN	512.0	NaN	NaN	1.0	3.0	NaN	NaN	NaN	NaN	NaN
1034.9138899999998	0.5172	sub-25	1	sequence	interval	dot	NaN	NaN	NaN	NaN	NaN	NaN	NaN	NaN	NaN	NaN	NaN	NaN
1035.4311192000005	0.0999	sub-25	1	sequence	stimulus	Schuh	NaN	NaN	512.0	NaN	NaN	4.0	4.0	NaN	NaN	NaN	NaN	NaN
1035.5310642000004	0.5173	sub-25	1	sequence	interval	dot	NaN	NaN	NaN	NaN	NaN	NaN	NaN	NaN	NaN	NaN	NaN	NaN
1036.0483464999998	0.0999	sub-25	1	sequence	stimulus	Haus	NaN	NaN	512.0	NaN	NaN	2.0	5.0	NaN	NaN	NaN	NaN	NaN
1036.148257500001	0.5172	sub-25	1	sequence	interval	dot	NaN	NaN	NaN	NaN	NaN	NaN	NaN	NaN	NaN	NaN	NaN	NaN
1036.6654258	6.1531	sub-25	1	sequence	delay	dot	NaN	NaN	NaN	NaN	NaN	NaN	NaN	NaN	NaN	NaN	NaN	NaN
1042.7973276000012	0.9238	sub-25	1	sequence	choice	choice	left	NaN	NaN	0.8860547999993287	True	NaN	NaN	left	True	5.0	2.0	5.0
1043.7212658000008	0.5002	sub-25	1	sequence	feedback	NaN	NaN	NaN	NaN	NaN	NaN	NaN	NaN	NaN	NaN	NaN	NaN	NaN
1048.0421000999995	0.4995	sub-25	1	localizer	stimulus	Gesicht	NaN	0	2.034238099999129	NaN	True	NaN	NaN	NaN	NaN	NaN	NaN	NaN
1048.5256191000008	2.0342	sub-25	1	localizer	blank	interval	NaN	NaN	NaN	NaN	NaN	NaN	NaN	NaN	NaN	NaN	NaN	NaN
1050.8610148999996	0.4995	sub-25	1	localizer	stimulus	Katze	NaN	180	2.3518650999997135	0.5316595000003872	True	NaN	NaN	NaN	NaN	NaN	NaN	NaN
1051.3439587000012	2.3519	sub-25	1	localizer	blank	interval	NaN	NaN	NaN	NaN	NaN	NaN	NaN	NaN	NaN	NaN	NaN	NaN
1053.9969167	0.4994	sub-25	1	localizer	stimulus	Haus	NaN	0	2.2348971999999776	NaN	True	NaN	NaN	NaN	NaN	NaN	NaN	NaN
1054.4799361999994	2.2349	sub-25	1	localizer	blank	interval	NaN	NaN	NaN	NaN	NaN	NaN	NaN	NaN	NaN	NaN	NaN	NaN
1057.0161315999994	0.4994	sub-25	1	localizer	stimulus	Schuh	NaN	0	2.685546799999429	NaN	True	NaN	NaN	NaN	NaN	NaN	NaN	NaN
1057.499076600001	2.6855	sub-25	1	localizer	blank	interval	NaN	NaN	NaN	NaN	NaN	NaN	NaN	NaN	NaN	NaN	NaN	NaN
1060.4856567000006	0.4995	sub-25	1	localizer	stimulus	Stuhl	NaN	0	3.2356662000004235	NaN	True	NaN	NaN	NaN	NaN	NaN	NaN	NaN
1060.9686901000005	3.2357	sub-25	1	localizer	blank	interval	NaN	NaN	NaN	NaN	NaN	NaN	NaN	NaN	NaN	NaN	NaN	NaN
1064.5053642000005	0.4995	sub-25	1	localizer	stimulus	Stuhl	NaN	0	2.6019480000013573	NaN	True	NaN	NaN	NaN	NaN	NaN	NaN	NaN
1064.9883468999997	2.6019	sub-25	1	localizer	blank	interval	NaN	NaN	NaN	NaN	NaN	NaN	NaN	NaN	NaN	NaN	NaN	NaN
1067.8914588999996	0.4995	sub-25	1	localizer	stimulus	Schuh	NaN	180	2.4685021999994206	0.5491567999997642	True	NaN	NaN	NaN	NaN	NaN	NaN	NaN
1068.3744770000012	2.4685	sub-25	1	localizer	blank	interval	NaN	NaN	NaN	NaN	NaN	NaN	NaN	NaN	NaN	NaN	NaN	NaN
1071.1440610999998	0.4996	sub-25	1	localizer	stimulus	Katze	NaN	0	2.852099300000191	NaN	True	NaN	NaN	NaN	NaN	NaN	NaN	NaN
1071.6271078000009	2.8521	sub-25	1	localizer	blank	interval	NaN	NaN	NaN	NaN	NaN	NaN	NaN	NaN	NaN	NaN	NaN	NaN
1074.7803523000002	0.4996	sub-25	1	localizer	stimulus	Stuhl	NaN	180	3.35270760000094	0.500258499998381	True	NaN	NaN	NaN	NaN	NaN	NaN	NaN
1075.2632868	3.3527	sub-25	1	localizer	blank	interval	NaN	NaN	NaN	NaN	NaN	NaN	NaN	NaN	NaN	NaN	NaN	NaN
1078.917093	0.4997	sub-25	1	localizer	stimulus	Katze	NaN	0	1.8848893999984284	NaN	True	NaN	NaN	NaN	NaN	NaN	NaN	NaN
1079.4001796000011	1.8849	sub-25	1	localizer	blank	interval	NaN	NaN	NaN	NaN	NaN	NaN	NaN	NaN	NaN	NaN	NaN	NaN
1081.586094100001	0.4994	sub-25	1	localizer	stimulus	Gesicht	NaN	0	2.5350815000001603	NaN	True	NaN	NaN	NaN	NaN	NaN	NaN	NaN
1082.0690341999998	2.5351	sub-25	1	localizer	blank	interval	NaN	NaN	NaN	NaN	NaN	NaN	NaN	NaN	NaN	NaN	NaN	NaN
1084.9052327999998	0.4994	sub-25	1	localizer	stimulus	Haus	NaN	0	2.351798699999563	NaN	True	NaN	NaN	NaN	NaN	NaN	NaN	NaN
1085.3881428000004	2.3518	sub-25	1	localizer	blank	interval	NaN	NaN	NaN	NaN	NaN	NaN	NaN	NaN	NaN	NaN	NaN	NaN
1088.0411179000002	0.4994	sub-25	1	localizer	stimulus	Katze	NaN	0	1.7179116000006616	NaN	True	NaN	NaN	NaN	NaN	NaN	NaN	NaN
1088.5240116000004	1.7179	sub-25	1	localizer	blank	interval	NaN	NaN	NaN	NaN	NaN	NaN	NaN	NaN	NaN	NaN	NaN	NaN
1090.5431208999998	0.4994	sub-25	1	localizer	stimulus	Katze	NaN	0	3.3358985000011216	NaN	True	NaN	NaN	NaN	NaN	NaN	NaN	NaN
