onset	duration	subject	session	condition	trial_type	stim_label	key_down	orientation	interval_time	response_time	accuracy	stim_index	serial_position	key_expected	key_pressed	choice_left	choice_right	choice_correct
1.2564589000003252	1.3044	sub-06	1	instruction	instruction	language_selection	german	NaN	NaN	NaN	NaN	NaN	NaN	NaN	NaN	NaN	NaN	NaN
33.803482299999814	0.4993	sub-06	1	localizer	stimulus	Stuhl	NaN	0	2.8190489999997226	NaN	1.0	NaN	NaN	NaN	NaN	NaN	NaN	NaN
34.286211300000105	2.819	sub-06	1	localizer	blank	interval	NaN	NaN	NaN	NaN	NaN	NaN	NaN	NaN	NaN	NaN	NaN	NaN
37.40641610000057	0.4994	sub-06	1	localizer	stimulus	Stuhl	NaN	0	2.468463800000791	NaN	True	NaN	NaN	NaN	NaN	NaN	NaN	NaN
37.889236699999856	2.4685	sub-06	1	localizer	blank	interval	NaN	NaN	NaN	NaN	NaN	NaN	NaN	NaN	NaN	NaN	NaN	NaN
40.658879999999954	0.4994	sub-06	1	localizer	stimulus	Haus	NaN	180	1.984696200000144	-9.42537379999976	True	NaN	NaN	NaN	NaN	NaN	NaN	NaN
41.14180920000035	1.9847	sub-06	1	localizer	blank	interval	NaN	NaN	NaN	NaN	NaN	NaN	NaN	NaN	NaN	NaN	NaN	NaN
43.4276189000002	0.4995	sub-06	1	localizer	stimulus	Haus	NaN	0	2.351835599999511	NaN	True	NaN	NaN	NaN	NaN	NaN	NaN	NaN
43.91063650000069	2.3518	sub-06	1	localizer	blank	interval	NaN	NaN	NaN	NaN	NaN	NaN	NaN	NaN	NaN	NaN	NaN	NaN
46.56361160000051	0.4997	sub-06	1	localizer	stimulus	Schuh	NaN	180	1.7511838000000353	-9.362463899999966	True	NaN	NaN	NaN	NaN	NaN	NaN	NaN
47.04665110000042	1.7512	sub-06	1	localizer	blank	interval	NaN	NaN	NaN	NaN	NaN	NaN	NaN	NaN	NaN	NaN	NaN	NaN
49.09906420000061	0.4996	sub-06	1	localizer	stimulus	Haus	NaN	0	2.0179980000002615	NaN	True	NaN	NaN	NaN	NaN	NaN	NaN	NaN
49.58202900000015	2.018	sub-06	1	localizer	blank	interval	NaN	NaN	NaN	NaN	NaN	NaN	NaN	NaN	NaN	NaN	NaN	NaN
51.90110679999998	0.4996	sub-06	1	localizer	stimulus	Katze	NaN	180	2.6021090000003824	-9.419451499999925	True	NaN	NaN	NaN	NaN	NaN	NaN	NaN
52.38405950000015	2.6021	sub-06	1	localizer	blank	interval	NaN	NaN	NaN	NaN	NaN	NaN	NaN	NaN	NaN	NaN	NaN	NaN
55.28734910000003	0.4996	sub-06	1	localizer	stimulus	Haus	NaN	0	3.6526885000002878	NaN	True	NaN	NaN	NaN	NaN	NaN	NaN	NaN
55.77038249999987	3.6527	sub-06	1	localizer	blank	interval	NaN	NaN	NaN	NaN	NaN	NaN	NaN	NaN	NaN	NaN	NaN	NaN
59.72413050000068	0.4995	sub-06	1	localizer	stimulus	Gesicht	NaN	0	2.6353174999994735	NaN	True	NaN	NaN	NaN	NaN	NaN	NaN	NaN
60.207073700000365	2.6353	sub-06	1	localizer	blank	interval	NaN	NaN	NaN	NaN	NaN	NaN	NaN	NaN	NaN	NaN	NaN	NaN
63.14351260000058	0.4996	sub-06	1	localizer	stimulus	Stuhl	NaN	0	3.319215799999256	NaN	True	NaN	NaN	NaN	NaN	NaN	NaN	NaN
63.62650220000069	3.3192	sub-06	1	localizer	blank	interval	NaN	NaN	NaN	NaN	NaN	NaN	NaN	NaN	NaN	NaN	NaN	NaN
67.24701430000005	0.4995	sub-06	1	localizer	stimulus	Katze	NaN	0	2.3851488000000245	NaN	True	NaN	NaN	NaN	NaN	NaN	NaN	NaN
67.7299479000003	2.3851	sub-06	1	localizer	blank	interval	NaN	NaN	NaN	NaN	NaN	NaN	NaN	NaN	NaN	NaN	NaN	NaN
70.41617560000032	0.4994	sub-06	1	localizer	stimulus	Gesicht	NaN	180	2.9355844000001525	-9.382729799999652	True	NaN	NaN	NaN	NaN	NaN	NaN	NaN
70.89904370000022	2.9356	sub-06	1	localizer	blank	interval	NaN	NaN	NaN	NaN	NaN	NaN	NaN	NaN	NaN	NaN	NaN	NaN
74.13582690000021	0.4994	sub-06	1	localizer	stimulus	Haus	NaN	0	3.386093100000835	NaN	True	NaN	NaN	NaN	NaN	NaN	NaN	NaN
74.61869519999982	3.3861	sub-06	1	localizer	blank	interval	NaN	NaN	NaN	NaN	NaN	NaN	NaN	NaN	NaN	NaN	NaN	NaN
78.30589520000012	0.4997	sub-06	1	localizer	stimulus	Stuhl	NaN	180	2.3180654000007053	-9.38466789999984	True	NaN	NaN	NaN	NaN	NaN	NaN	NaN
78.78908779999983	2.3181	sub-06	1	localizer	blank	interval	NaN	NaN	NaN	NaN	NaN	NaN	NaN	NaN	NaN	NaN	NaN	NaN
81.40834040000027	0.4995	sub-06	1	localizer	stimulus	Gesicht	NaN	0	2.6520312000002377	NaN	True	NaN	NaN	NaN	NaN	NaN	NaN	NaN
81.89124460000039	2.652	sub-06	1	localizer	blank	interval	NaN	NaN	NaN	NaN	NaN	NaN	NaN	NaN	NaN	NaN	NaN	NaN
84.84440690000065	0.4995	sub-06	1	localizer	stimulus	Gesicht	NaN	0	2.034935100000439	NaN	True	NaN	NaN	NaN	NaN	NaN	NaN	NaN
85.32733730000018	2.0349	sub-06	1	localizer	blank	interval	NaN	NaN	NaN	NaN	NaN	NaN	NaN	NaN	NaN	NaN	NaN	NaN
87.66345400000046	0.4995	sub-06	1	localizer	stimulus	Katze	NaN	0	2.1015990999994756	NaN	True	NaN	NaN	NaN	NaN	NaN	NaN	NaN
88.14646950000042	2.1016	sub-06	1	localizer	blank	interval	NaN	NaN	NaN	NaN	NaN	NaN	NaN	NaN	NaN	NaN	NaN	NaN
90.54918929999984	0.4994	sub-06	1	localizer	stimulus	Katze	NaN	0	2.685433699999521	NaN	True	NaN	NaN	NaN	NaN	NaN	NaN	NaN
91.03195010000036	2.6854	sub-06	1	localizer	blank	interval	NaN	NaN	NaN	NaN	NaN	NaN	NaN	NaN	NaN	NaN	NaN	NaN
94.0184904000007	0.4995	sub-06	1	localizer	stimulus	Schuh	NaN	0	1.8680880000001707	NaN	True	NaN	NaN	NaN	NaN	NaN	NaN	NaN
94.50140439999996	1.8681	sub-06	1	localizer	blank	interval	NaN	NaN	NaN	NaN	NaN	NaN	NaN	NaN	NaN	NaN	NaN	NaN
96.67074990000036	0.4994	sub-06	1	localizer	stimulus	Gesicht	NaN	0	1.4844871999994496	NaN	True	NaN	NaN	NaN	NaN	NaN	NaN	NaN
97.15364860000044	1.4845	sub-06	1	localizer	blank	interval	NaN	NaN	NaN	NaN	NaN	NaN	NaN	NaN	NaN	NaN	NaN	NaN
98.93914490000044	0.4996	sub-06	1	localizer	stimulus	Schuh	NaN	0	2.701973299999736	NaN	True	NaN	NaN	NaN	NaN	NaN	NaN	NaN
99.42218550000052	2.702	sub-06	1	localizer	blank	interval	NaN	NaN	NaN	NaN	NaN	NaN	NaN	NaN	NaN	NaN	NaN	NaN
102.42528760000005	0.4996	sub-06	1	localizer	stimulus	Katze	NaN	0	2.4518896999997963	NaN	True	NaN	NaN	NaN	NaN	NaN	NaN	NaN
102.90821270000016	2.4519	sub-06	1	localizer	blank	interval	NaN	NaN	NaN	NaN	NaN	NaN	NaN	NaN	NaN	NaN	NaN	NaN
105.66124639999998	0.4995	sub-06	1	localizer	stimulus	Stuhl	NaN	0	2.418704599999728	NaN	True	NaN	NaN	NaN	NaN	NaN	NaN	NaN
106.1442747000001	2.4187	sub-06	1	localizer	blank	interval	NaN	NaN	NaN	NaN	NaN	NaN	NaN	NaN	NaN	NaN	NaN	NaN
108.86387950000062	0.4995	sub-06	1	localizer	stimulus	Schuh	NaN	0	2.8187533999998777	NaN	True	NaN	NaN	NaN	NaN	NaN	NaN	NaN
109.3468472000004	2.8188	sub-06	1	localizer	blank	interval	NaN	NaN	NaN	NaN	NaN	NaN	NaN	NaN	NaN	NaN	NaN	NaN
112.46673670000018	0.4995	sub-06	1	localizer	stimulus	Schuh	NaN	0	2.6186696999993586	NaN	True	NaN	NaN	NaN	NaN	NaN	NaN	NaN
112.94965550000052	2.6187	sub-06	1	localizer	blank	interval	NaN	NaN	NaN	NaN	NaN	NaN	NaN	NaN	NaN	NaN	NaN	NaN
119.05490540000028	1.0008	sub-06	1	sequence	cue	Gesicht	NaN	NaN	NaN	NaN	NaN	NaN	NaN	NaN	NaN	NaN	NaN	NaN
120.05567969999991	2.0015	sub-06	1	sequence	blank	blank	NaN	NaN	NaN	NaN	NaN	NaN	NaN	NaN	NaN	NaN	NaN	NaN
122.05714660000012	0.3001	sub-06	1	sequence	fixation	dot	NaN	NaN	NaN	NaN	NaN	NaN	NaN	NaN	NaN	NaN	NaN	NaN
122.42245439999988	0.1016	sub-06	1	sequence	stimulus	Haus	NaN	NaN	32.0	NaN	NaN	2.0	1.0	NaN	NaN	NaN	NaN	NaN
122.52402680000068	0.0335	sub-06	1	sequence	interval	dot	NaN	NaN	NaN	NaN	NaN	NaN	NaN	NaN	NaN	NaN	NaN	NaN
122.55748550000044	0.1	sub-06	1	sequence	stimulus	Stuhl	NaN	NaN	32.0	NaN	NaN	5.0	2.0	NaN	NaN	NaN	NaN	NaN
122.65744340000036	0.0335	sub-06	1	sequence	interval	dot	NaN	NaN	NaN	NaN	NaN	NaN	NaN	NaN	NaN	NaN	NaN	NaN
122.6909211000002	0.1	sub-06	1	sequence	stimulus	Schuh	NaN	NaN	32.0	NaN	NaN	4.0	3.0	NaN	NaN	NaN	NaN	NaN
122.79092870000022	0.0335	sub-06	1	sequence	interval	dot	NaN	NaN	NaN	NaN	NaN	NaN	NaN	NaN	NaN	NaN	NaN	NaN
122.82441259999996	0.0999	sub-06	1	sequence	stimulus	Gesicht	NaN	NaN	32.0	NaN	NaN	1.0	4.0	NaN	NaN	NaN	NaN	NaN
122.9242991000001	0.0335	sub-06	1	sequence	interval	dot	NaN	NaN	NaN	NaN	NaN	NaN	NaN	NaN	NaN	NaN	NaN	NaN
122.95781609999996	0.0999	sub-06	1	sequence	stimulus	Katze	NaN	NaN	32.0	NaN	NaN	3.0	5.0	NaN	NaN	NaN	NaN	NaN
123.05776190000051	0.0333	sub-06	1	sequence	interval	dot	NaN	NaN	NaN	NaN	NaN	NaN	NaN	NaN	NaN	NaN	NaN	NaN
123.0911090999998	8.5552	sub-06	1	sequence	delay	dot	NaN	NaN	NaN	NaN	NaN	NaN	NaN	NaN	NaN	NaN	NaN	NaN
131.61914909999996	2.5143	sub-06	1	sequence	choice	choice	NaN	NaN	NaN	NaN	False	NaN	NaN	right	0.0	5.0	4.0	4.0
134.13355150000007	0.5003	sub-06	1	sequence	feedback	NaN	NaN	NaN	NaN	NaN	NaN	NaN	NaN	NaN	NaN	NaN	NaN	NaN
134.63394920000064	1.0007	sub-06	1	sequence	cue	Stuhl	NaN	NaN	NaN	NaN	NaN	NaN	NaN	NaN	NaN	NaN	NaN	NaN
135.63470770000004	1.985	sub-06	1	sequence	blank	blank	NaN	NaN	NaN	NaN	NaN	NaN	NaN	NaN	NaN	NaN	NaN	NaN
137.6197032	0.3001	sub-06	1	sequence	fixation	dot	NaN	NaN	NaN	NaN	NaN	NaN	NaN	NaN	NaN	NaN	NaN	NaN
137.9378073000007	0.1154	sub-06	1	sequence	stimulus	Katze	NaN	NaN	128.0	NaN	NaN	3.0	1.0	NaN	NaN	NaN	NaN	NaN
138.05322740000065	0.1336	sub-06	1	sequence	interval	dot	NaN	NaN	NaN	NaN	NaN	NaN	NaN	NaN	NaN	NaN	NaN	NaN
138.18677780000053	0.1	sub-06	1	sequence	stimulus	Gesicht	NaN	NaN	128.0	NaN	NaN	1.0	2.0	NaN	NaN	NaN	NaN	NaN
138.28673600000002	0.1337	sub-06	1	sequence	interval	dot	NaN	NaN	NaN	NaN	NaN	NaN	NaN	NaN	NaN	NaN	NaN	NaN
138.42045460000008	0.0998	sub-06	1	sequence	stimulus	Schuh	NaN	NaN	128.0	NaN	NaN	4.0	3.0	NaN	NaN	NaN	NaN	NaN
138.5203029000004	0.1335	sub-06	1	sequence	interval	dot	NaN	NaN	NaN	NaN	NaN	NaN	NaN	NaN	NaN	NaN	NaN	NaN
138.65381800000068	0.0999	sub-06	1	sequence	stimulus	Stuhl	NaN	NaN	128.0	NaN	NaN	5.0	4.0	NaN	NaN	NaN	NaN	NaN
138.75375859999986	0.134	sub-06	1	sequence	interval	dot	NaN	NaN	NaN	NaN	NaN	NaN	NaN	NaN	NaN	NaN	NaN	NaN
138.8877983000002	0.0997	sub-06	1	sequence	stimulus	Haus	NaN	NaN	128.0	NaN	NaN	2.0	5.0	NaN	NaN	NaN	NaN	NaN
138.98747150000054	0.1335	sub-06	1	sequence	interval	dot	NaN	NaN	NaN	NaN	NaN	NaN	NaN	NaN	NaN	NaN	NaN	NaN
139.12102099999993	8.0712	sub-06	1	sequence	delay	dot	NaN	NaN	NaN	NaN	NaN	NaN	NaN	NaN	NaN	NaN	NaN	NaN
147.1668040000004	0.9787	sub-06	1	sequence	choice	choice	right	NaN	NaN	-9.078817499999786	True	NaN	NaN	right	True	3.0	4.0	4.0
148.14582770000015	0.4999	sub-06	1	sequence	feedback	NaN	NaN	NaN	NaN	NaN	NaN	NaN	NaN	NaN	NaN	NaN	NaN	NaN
148.6459708000002	1.0	sub-06	1	sequence	cue	Haus	NaN	NaN	NaN	NaN	NaN	NaN	NaN	NaN	NaN	NaN	NaN	NaN
149.64602600000035	2.0015	sub-06	1	sequence	blank	blank	NaN	NaN	NaN	NaN	NaN	NaN	NaN	NaN	NaN	NaN	NaN	NaN
151.6475248000006	0.3002	sub-06	1	sequence	fixation	dot	NaN	NaN	NaN	NaN	NaN	NaN	NaN	NaN	NaN	NaN	NaN	NaN
151.96532750000006	0.0992	sub-06	1	sequence	stimulus	Gesicht	NaN	NaN	64.0	NaN	NaN	1.0	1.0	NaN	NaN	NaN	NaN	NaN
152.06453760000022	0.0668	sub-06	1	sequence	interval	dot	NaN	NaN	NaN	NaN	NaN	NaN	NaN	NaN	NaN	NaN	NaN	NaN
152.13135599999987	0.1	sub-06	1	sequence	stimulus	Katze	NaN	NaN	64.0	NaN	NaN	3.0	2.0	NaN	NaN	NaN	NaN	NaN
152.2313139000007	0.0669	sub-06	1	sequence	interval	dot	NaN	NaN	NaN	NaN	NaN	NaN	NaN	NaN	NaN	NaN	NaN	NaN
152.29819899999984	0.0999	sub-06	1	sequence	stimulus	Stuhl	NaN	NaN	64.0	NaN	NaN	5.0	3.0	NaN	NaN	NaN	NaN	NaN
152.39810579999994	0.0669	sub-06	1	sequence	interval	dot	NaN	NaN	NaN	NaN	NaN	NaN	NaN	NaN	NaN	NaN	NaN	NaN
152.4649642000004	0.0999	sub-06	1	sequence	stimulus	Haus	NaN	NaN	64.0	NaN	NaN	2.0	4.0	NaN	NaN	NaN	NaN	NaN
152.56491199999982	0.0669	sub-06	1	sequence	interval	dot	NaN	NaN	NaN	NaN	NaN	NaN	NaN	NaN	NaN	NaN	NaN	NaN
152.6317699000001	0.0999	sub-06	1	sequence	stimulus	Schuh	NaN	NaN	64.0	NaN	NaN	4.0	5.0	NaN	NaN	NaN	NaN	NaN
152.73171270000057	0.0667	sub-06	1	sequence	interval	dot	NaN	NaN	NaN	NaN	NaN	NaN	NaN	NaN	NaN	NaN	NaN	NaN
152.79845190000017	8.372	sub-06	1	sequence	delay	dot	NaN	NaN	NaN	NaN	NaN	NaN	NaN	NaN	NaN	NaN	NaN	NaN
161.1544829000004	1.2524	sub-06	1	sequence	choice	choice	left	NaN	NaN	-8.800554200000079	True	NaN	NaN	left	True	4.0	5.0	4.0
162.4071453000006	0.5	sub-06	1	sequence	feedback	NaN	NaN	NaN	NaN	NaN	NaN	NaN	NaN	NaN	NaN	NaN	NaN	NaN
162.90732430000023	1.0002	sub-06	1	sequence	cue	Haus	NaN	NaN	NaN	NaN	NaN	NaN	NaN	NaN	NaN	NaN	NaN	NaN
163.90755790000003	2.0016	sub-06	1	sequence	blank	blank	NaN	NaN	NaN	NaN	NaN	NaN	NaN	NaN	NaN	NaN	NaN	NaN
165.90917739999986	0.3001	sub-06	1	sequence	fixation	dot	NaN	NaN	NaN	NaN	NaN	NaN	NaN	NaN	NaN	NaN	NaN	NaN
166.22787450000033	0.1148	sub-06	1	sequence	stimulus	Schuh	NaN	NaN	512.0	NaN	NaN	4.0	1.0	NaN	NaN	NaN	NaN	NaN
166.3427244000004	0.5172	sub-06	1	sequence	interval	dot	NaN	NaN	NaN	NaN	NaN	NaN	NaN	NaN	NaN	NaN	NaN	NaN
166.85993959999996	0.1	sub-06	1	sequence	stimulus	Katze	NaN	NaN	512.0	NaN	NaN	3.0	2.0	NaN	NaN	NaN	NaN	NaN
166.9598977000005	0.5172	sub-06	1	sequence	interval	dot	NaN	NaN	NaN	NaN	NaN	NaN	NaN	NaN	NaN	NaN	NaN	NaN
167.47708930000044	0.1	sub-06	1	sequence	stimulus	Gesicht	NaN	NaN	512.0	NaN	NaN	1.0	3.0	NaN	NaN	NaN	NaN	NaN
167.5770695000001	0.5174	sub-06	1	sequence	interval	dot	NaN	NaN	NaN	NaN	NaN	NaN	NaN	NaN	NaN	NaN	NaN	NaN
168.09447290000026	0.1	sub-06	1	sequence	stimulus	Stuhl	NaN	NaN	512.0	NaN	NaN	5.0	4.0	NaN	NaN	NaN	NaN	NaN
168.19444750000002	0.5173	sub-06	1	sequence	interval	dot	NaN	NaN	NaN	NaN	NaN	NaN	NaN	NaN	NaN	NaN	NaN	NaN
168.7117541000007	0.0999	sub-06	1	sequence	stimulus	Haus	NaN	NaN	512.0	NaN	NaN	2.0	5.0	NaN	NaN	NaN	NaN	NaN
168.81168940000043	0.5171	sub-06	1	sequence	interval	dot	NaN	NaN	NaN	NaN	NaN	NaN	NaN	NaN	NaN	NaN	NaN	NaN
169.3287476000005	6.1366	sub-06	1	sequence	delay	dot	NaN	NaN	NaN	NaN	NaN	NaN	NaN	NaN	NaN	NaN	NaN	NaN
175.45422850000068	1.1642	sub-06	1	sequence	choice	choice	left	NaN	NaN	-8.879370699999527	True	NaN	NaN	left	True	5.0	4.0	5.0
176.61869170000045	0.4999	sub-06	1	sequence	feedback	NaN	NaN	NaN	NaN	NaN	NaN	NaN	NaN	NaN	NaN	NaN	NaN	NaN
177.11883040000066	1.0001	sub-06	1	sequence	cue	Haus	NaN	NaN	NaN	NaN	NaN	NaN	NaN	NaN	NaN	NaN	NaN	NaN
178.11894920000032	2.0018	sub-06	1	sequence	blank	blank	NaN	NaN	NaN	NaN	NaN	NaN	NaN	NaN	NaN	NaN	NaN	NaN
180.12077920000047	0.3001	sub-06	1	sequence	fixation	dot	NaN	NaN	NaN	NaN	NaN	NaN	NaN	NaN	NaN	NaN	NaN	NaN
180.45360210000035	0.1007	sub-06	1	sequence	stimulus	Gesicht	NaN	NaN	32.0	NaN	NaN	1.0	1.0	NaN	NaN	NaN	NaN	NaN
180.5542781000004	0.0335	sub-06	1	sequence	interval	dot	NaN	NaN	NaN	NaN	NaN	NaN	NaN	NaN	NaN	NaN	NaN	NaN
180.5878177000004	0.0998	sub-06	1	sequence	stimulus	Stuhl	NaN	NaN	32.0	NaN	NaN	5.0	2.0	NaN	NaN	NaN	NaN	NaN
180.68766400000004	0.0335	sub-06	1	sequence	interval	dot	NaN	NaN	NaN	NaN	NaN	NaN	NaN	NaN	NaN	NaN	NaN	NaN
180.72120540000012	0.1	sub-06	1	sequence	stimulus	Schuh	NaN	NaN	32.0	NaN	NaN	4.0	3.0	NaN	NaN	NaN	NaN	NaN
180.82119599999987	0.0335	sub-06	1	sequence	interval	dot	NaN	NaN	NaN	NaN	NaN	NaN	NaN	NaN	NaN	NaN	NaN	NaN
180.8546724000007	0.0999	sub-06	1	sequence	stimulus	Katze	NaN	NaN	32.0	NaN	NaN	3.0	4.0	NaN	NaN	NaN	NaN	NaN
180.9545699	0.0335	sub-06	1	sequence	interval	dot	NaN	NaN	NaN	NaN	NaN	NaN	NaN	NaN	NaN	NaN	NaN	NaN
180.98806270000023	0.1001	sub-06	1	sequence	stimulus	Haus	NaN	NaN	32.0	NaN	NaN	2.0	5.0	NaN	NaN	NaN	NaN	NaN
181.08811590000005	0.0333	sub-06	1	sequence	interval	dot	NaN	NaN	NaN	NaN	NaN	NaN	NaN	NaN	NaN	NaN	NaN	NaN
181.12136670000015	8.5552	sub-06	1	sequence	delay	dot	NaN	NaN	NaN	NaN	NaN	NaN	NaN	NaN	NaN	NaN	NaN	NaN
189.64989940000032	1.297	sub-06	1	sequence	choice	choice	left	NaN	NaN	-8.762697399999524	True	NaN	NaN	left	True	5.0	2.0	5.0
190.94713890000003	0.4995	sub-06	1	sequence	feedback	NaN	NaN	NaN	NaN	NaN	NaN	NaN	NaN	NaN	NaN	NaN	NaN	NaN
191.4469164000002	1.0004	sub-06	1	sequence	cue	Schuh	NaN	NaN	NaN	NaN	NaN	NaN	NaN	NaN	NaN	NaN	NaN	NaN
192.4473128	2.0016	sub-06	1	sequence	blank	blank	NaN	NaN	NaN	NaN	NaN	NaN	NaN	NaN	NaN	NaN	NaN	NaN
194.4489598	0.3002	sub-06	1	sequence	fixation	dot	NaN	NaN	NaN	NaN	NaN	NaN	NaN	NaN	NaN	NaN	NaN	NaN
194.76746129999992	0.115	sub-06	1	sequence	stimulus	Gesicht	NaN	NaN	64.0	NaN	NaN	1.0	1.0	NaN	NaN	NaN	NaN	NaN
194.8824418000004	0.0668	sub-06	1	sequence	interval	dot	NaN	NaN	NaN	NaN	NaN	NaN	NaN	NaN	NaN	NaN	NaN	NaN
194.94928400000023	0.1	sub-06	1	sequence	stimulus	Schuh	NaN	NaN	64.0	NaN	NaN	4.0	2.0	NaN	NaN	NaN	NaN	NaN
195.0493136000005	0.0668	sub-06	1	sequence	interval	dot	NaN	NaN	NaN	NaN	NaN	NaN	NaN	NaN	NaN	NaN	NaN	NaN
195.1161406000001	0.0999	sub-06	1	sequence	stimulus	Katze	NaN	NaN	64.0	NaN	NaN	3.0	3.0	NaN	NaN	NaN	NaN	NaN
195.2160749000004	0.0669	sub-06	1	sequence	interval	dot	NaN	NaN	NaN	NaN	NaN	NaN	NaN	NaN	NaN	NaN	NaN	NaN
195.2829257000003	0.0999	sub-06	1	sequence	stimulus	Haus	NaN	NaN	64.0	NaN	NaN	2.0	4.0	NaN	NaN	NaN	NaN	NaN
195.38285460000043	0.0669	sub-06	1	sequence	interval	dot	NaN	NaN	NaN	NaN	NaN	NaN	NaN	NaN	NaN	NaN	NaN	NaN
195.4497082000007	0.0999	sub-06	1	sequence	stimulus	Stuhl	NaN	NaN	64.0	NaN	NaN	5.0	5.0	NaN	NaN	NaN	NaN	NaN
195.54965140000056	0.0667	sub-06	1	sequence	interval	dot	NaN	NaN	NaN	NaN	NaN	NaN	NaN	NaN	NaN	NaN	NaN	NaN
195.61640070000067	8.372	sub-06	1	sequence	delay	dot	NaN	NaN	NaN	NaN	NaN	NaN	NaN	NaN	NaN	NaN	NaN	NaN
203.97565769999983	0.9825	sub-06	1	sequence	choice	choice	left	NaN	NaN	-9.05922499999997	True	NaN	NaN	left	True	2.0	5.0	2.0
204.9584786000005	0.4996	sub-06	1	sequence	feedback	NaN	NaN	NaN	NaN	NaN	NaN	NaN	NaN	NaN	NaN	NaN	NaN	NaN
205.45834689999992	1.0002	sub-06	1	sequence	cue	Haus	NaN	NaN	NaN	NaN	NaN	NaN	NaN	NaN	NaN	NaN	NaN	NaN
206.45853280000028	2.0017	sub-06	1	sequence	blank	blank	NaN	NaN	NaN	NaN	NaN	NaN	NaN	NaN	NaN	NaN	NaN	NaN
208.4602850000001	0.3002	sub-06	1	sequence	fixation	dot	NaN	NaN	NaN	NaN	NaN	NaN	NaN	NaN	NaN	NaN	NaN	NaN
208.77867109999988	0.1152	sub-06	1	sequence	stimulus	Katze	NaN	NaN	128.0	NaN	NaN	3.0	1.0	NaN	NaN	NaN	NaN	NaN
208.89387350000013	0.1336	sub-06	1	sequence	interval	dot	NaN	NaN	NaN	NaN	NaN	NaN	NaN	NaN	NaN	NaN	NaN	NaN
209.02747670000008	0.1	sub-06	1	sequence	stimulus	Schuh	NaN	NaN	128.0	NaN	NaN	4.0	2.0	NaN	NaN	NaN	NaN	NaN
209.1274897000003	0.1336	sub-06	1	sequence	interval	dot	NaN	NaN	NaN	NaN	NaN	NaN	NaN	NaN	NaN	NaN	NaN	NaN
209.26104290000055	0.0999	sub-06	1	sequence	stimulus	Haus	NaN	NaN	128.0	NaN	NaN	2.0	3.0	NaN	NaN	NaN	NaN	NaN
209.3609677000004	0.1336	sub-06	1	sequence	interval	dot	NaN	NaN	NaN	NaN	NaN	NaN	NaN	NaN	NaN	NaN	NaN	NaN
209.4945559000007	0.1	sub-06	1	sequence	stimulus	Gesicht	NaN	NaN	128.0	NaN	NaN	1.0	4.0	NaN	NaN	NaN	NaN	NaN
209.5945151000005	0.1336	sub-06	1	sequence	interval	dot	NaN	NaN	NaN	NaN	NaN	NaN	NaN	NaN	NaN	NaN	NaN	NaN
209.7280686000004	0.1	sub-06	1	sequence	stimulus	Stuhl	NaN	NaN	128.0	NaN	NaN	5.0	5.0	NaN	NaN	NaN	NaN	NaN
209.8280584000004	0.1334	sub-06	1	sequence	interval	dot	NaN	NaN	NaN	NaN	NaN	NaN	NaN	NaN	NaN	NaN	NaN	NaN
209.96144110000023	8.0717	sub-06	1	sequence	delay	dot	NaN	NaN	NaN	NaN	NaN	NaN	NaN	NaN	NaN	NaN	NaN	NaN
218.01535430000055	1.3043	sub-06	1	sequence	choice	choice	right	NaN	NaN	-8.751478000000134	True	NaN	NaN	right	True	2.0	3.0	3.0
219.31994470000063	0.4998	sub-06	1	sequence	feedback	NaN	NaN	NaN	NaN	NaN	NaN	NaN	NaN	NaN	NaN	NaN	NaN	NaN
219.81993430000057	1.0002	sub-06	1	sequence	cue	Katze	NaN	NaN	NaN	NaN	NaN	NaN	NaN	NaN	NaN	NaN	NaN	NaN
220.8201343000001	2.0018	sub-06	1	sequence	blank	blank	NaN	NaN	NaN	NaN	NaN	NaN	NaN	NaN	NaN	NaN	NaN	NaN
222.82191779999997	0.3003	sub-06	1	sequence	fixation	dot	NaN	NaN	NaN	NaN	NaN	NaN	NaN	NaN	NaN	NaN	NaN	NaN
223.1396439	0.0992	sub-06	1	sequence	stimulus	Stuhl	NaN	NaN	512.0	NaN	NaN	5.0	1.0	NaN	NaN	NaN	NaN	NaN
223.2388150000006	0.5173	sub-06	1	sequence	interval	dot	NaN	NaN	NaN	NaN	NaN	NaN	NaN	NaN	NaN	NaN	NaN	NaN
223.75611639999988	0.1	sub-06	1	sequence	stimulus	Katze	NaN	NaN	512.0	NaN	NaN	3.0	2.0	NaN	NaN	NaN	NaN	NaN
223.85610170000015	0.5172	sub-06	1	sequence	interval	dot	NaN	NaN	NaN	NaN	NaN	NaN	NaN	NaN	NaN	NaN	NaN	NaN
224.37332640000025	0.1	sub-06	1	sequence	stimulus	Gesicht	NaN	NaN	512.0	NaN	NaN	1.0	3.0	NaN	NaN	NaN	NaN	NaN
224.4733098000006	0.5172	sub-06	1	sequence	interval	dot	NaN	NaN	NaN	NaN	NaN	NaN	NaN	NaN	NaN	NaN	NaN	NaN
224.99047690000043	0.1	sub-06	1	sequence	stimulus	Schuh	NaN	NaN	512.0	NaN	NaN	4.0	4.0	NaN	NaN	NaN	NaN	NaN
225.09044320000064	0.5172	sub-06	1	sequence	interval	dot	NaN	NaN	NaN	NaN	NaN	NaN	NaN	NaN	NaN	NaN	NaN	NaN
225.6076894000007	0.0999	sub-06	1	sequence	stimulus	Haus	NaN	NaN	512.0	NaN	NaN	2.0	5.0	NaN	NaN	NaN	NaN	NaN
225.70754970000053	0.517	sub-06	1	sequence	interval	dot	NaN	NaN	NaN	NaN	NaN	NaN	NaN	NaN	NaN	NaN	NaN	NaN
226.2245885000002	6.1368	sub-06	1	sequence	delay	dot	NaN	NaN	NaN	NaN	NaN	NaN	NaN	NaN	NaN	NaN	NaN	NaN
232.34099820000029	1.0733	sub-06	1	sequence	choice	choice	right	NaN	NaN	-8.976158800000121	True	NaN	NaN	right	True	4.0	2.0	2.0
233.4145406000007	0.4999	sub-06	1	sequence	feedback	NaN	NaN	NaN	NaN	NaN	NaN	NaN	NaN	NaN	NaN	NaN	NaN	NaN
237.73472480000052	0.4995	sub-06	1	localizer	stimulus	Stuhl	NaN	0	2.2184624000001634	NaN	True	NaN	NaN	NaN	NaN	NaN	NaN	NaN
238.21757359999992	2.2185	sub-06	1	localizer	blank	interval	NaN	NaN	NaN	NaN	NaN	NaN	NaN	NaN	NaN	NaN	NaN	NaN
240.7371168	0.4996	sub-06	1	localizer	stimulus	Haus	NaN	0	2.234886899999765	NaN	True	NaN	NaN	NaN	NaN	NaN	NaN	NaN
241.22013500000048	2.2349	sub-06	1	localizer	blank	interval	NaN	NaN	NaN	NaN	NaN	NaN	NaN	NaN	NaN	NaN	NaN	NaN
243.7562978000005	0.4996	sub-06	1	localizer	stimulus	Katze	NaN	0	1.5509050999998806	NaN	True	NaN	NaN	NaN	NaN	NaN	NaN	NaN
244.2394424000004	1.5509	sub-06	1	localizer	blank	interval	NaN	NaN	NaN	NaN	NaN	NaN	NaN	NaN	NaN	NaN	NaN	NaN
246.09147570000005	0.4995	sub-06	1	localizer	stimulus	Katze	NaN	0	2.6520934999998644	NaN	True	NaN	NaN	NaN	NaN	NaN	NaN	NaN
246.57451330000004	2.6521	sub-06	1	localizer	blank	interval	NaN	NaN	NaN	NaN	NaN	NaN	NaN	NaN	NaN	NaN	NaN	NaN
249.5275496000004	0.4996	sub-06	1	localizer	stimulus	Gesicht	NaN	0	2.134952699999303	NaN	True	NaN	NaN	NaN	NaN	NaN	NaN	NaN
250.0107418000007	2.135	sub-06	1	localizer	blank	interval	NaN	NaN	NaN	NaN	NaN	NaN	NaN	NaN	NaN	NaN	NaN	NaN
252.4464826000003	0.4996	sub-06	1	localizer	stimulus	Schuh	NaN	180	2.1516710000004764	-9.348459800000455	True	NaN	NaN	NaN	NaN	NaN	NaN	NaN
252.9295671	2.1517	sub-06	1	localizer	blank	interval	NaN	NaN	NaN	NaN	NaN	NaN	NaN	NaN	NaN	NaN	NaN	NaN
255.38231300000007	0.4994	sub-06	1	localizer	stimulus	Haus	NaN	0	2.4018134999996903	NaN	True	NaN	NaN	NaN	NaN	NaN	NaN	NaN
255.86532840000015	2.4018	sub-06	1	localizer	blank	interval	NaN	NaN	NaN	NaN	NaN	NaN	NaN	NaN	NaN	NaN	NaN	NaN
258.5681852000007	0.4995	sub-06	1	localizer	stimulus	Gesicht	NaN	0	2.5186259000001883	NaN	True	NaN	NaN	NaN	NaN	NaN	NaN	NaN
259.0510793000003	2.5186	sub-06	1	localizer	blank	interval	NaN	NaN	NaN	NaN	NaN	NaN	NaN	NaN	NaN	NaN	NaN	NaN
261.87084200000027	0.5001	sub-06	1	localizer	stimulus	Gesicht	NaN	0	3.202463499999851	NaN	True	NaN	NaN	NaN	NaN	NaN	NaN	NaN
262.35388580000017	3.2025	sub-06	1	localizer	blank	interval	NaN	NaN	NaN	NaN	NaN	NaN	NaN	NaN	NaN	NaN	NaN	NaN
265.85743600000023	0.4997	sub-06	1	localizer	stimulus	Haus	NaN	0	3.1857842999997956	NaN	True	NaN	NaN	NaN	NaN	NaN	NaN	NaN
266.3405379000005	3.1858	sub-06	1	localizer	blank	interval	NaN	NaN	NaN	NaN	NaN	NaN	NaN	NaN	NaN	NaN	NaN	NaN
269.8274495000005	0.4994	sub-06	1	localizer	stimulus	Haus	NaN	180	2.151622899999893	-9.258023600000342	True	NaN	NaN	NaN	NaN	NaN	NaN	NaN
270.3103002000007	2.1516	sub-06	1	localizer	blank	interval	NaN	NaN	NaN	NaN	NaN	NaN	NaN	NaN	NaN	NaN	NaN	NaN
272.7629721000003	0.4995	sub-06	1	localizer	stimulus	Stuhl	NaN	0	2.1014570999996067	NaN	True	NaN	NaN	NaN	NaN	NaN	NaN	NaN
273.2460045000007	2.1015	sub-06	1	localizer	blank	interval	NaN	NaN	NaN	NaN	NaN	NaN	NaN	NaN	NaN	NaN	NaN	NaN
275.64861830000063	0.4995	sub-06	1	localizer	stimulus	Schuh	NaN	0	2.2516758000001573	NaN	True	NaN	NaN	NaN	NaN	NaN	NaN	NaN
276.13155300000017	2.2517	sub-06	1	localizer	blank	interval	NaN	NaN	NaN	NaN	NaN	NaN	NaN	NaN	NaN	NaN	NaN	NaN
278.68437619999986	0.4996	sub-06	1	localizer	stimulus	Schuh	NaN	0	2.735543400000097	NaN	True	NaN	NaN	NaN	NaN	NaN	NaN	NaN
279.1673483000004	2.7355	sub-06	1	localizer	blank	interval	NaN	NaN	NaN	NaN	NaN	NaN	NaN	NaN	NaN	NaN	NaN	NaN
282.20390060000045	0.4995	sub-06	1	localizer	stimulus	Katze	NaN	180	2.8189547000001767	-9.38600839999981	True	NaN	NaN	NaN	NaN	NaN	NaN	NaN
282.68683930000043	2.819	sub-06	1	localizer	blank	interval	NaN	NaN	NaN	NaN	NaN	NaN	NaN	NaN	NaN	NaN	NaN	NaN
285.8069828000007	0.4995	sub-06	1	localizer	stimulus	Schuh	NaN	0	2.5352953000001435	NaN	True	NaN	NaN	NaN	NaN	NaN	NaN	NaN
286.2900341000004	2.5353	sub-06	1	localizer	blank	interval	NaN	NaN	NaN	NaN	NaN	NaN	NaN	NaN	NaN	NaN	NaN	NaN
289.1264635000007	0.4994	sub-06	1	localizer	stimulus	Gesicht	NaN	0	1.650975099999414	NaN	True	NaN	NaN	NaN	NaN	NaN	NaN	NaN
289.6094232000005	1.651	sub-06	1	localizer	blank	interval	NaN	NaN	NaN	NaN	NaN	NaN	NaN	NaN	NaN	NaN	NaN	NaN
291.5616385000003	0.4995	sub-06	1	localizer	stimulus	Stuhl	NaN	0	2.1013928000002124	NaN	True	NaN	NaN	NaN	NaN	NaN	NaN	NaN
292.0446128000003	2.1014	sub-06	1	localizer	blank	interval	NaN	NaN	NaN	NaN	NaN	NaN	NaN	NaN	NaN	NaN	NaN	NaN
294.44715630000064	0.4996	sub-06	1	localizer	stimulus	Gesicht	NaN	180	2.3349909000007756	-9.421773600000051	True	NaN	NaN	NaN	NaN	NaN	NaN	NaN
294.93019989999993	2.335	sub-06	1	localizer	blank	interval	NaN	NaN	NaN	NaN	NaN	NaN	NaN	NaN	NaN	NaN	NaN	NaN
297.5663140000006	0.4995	sub-06	1	localizer	stimulus	Katze	NaN	0	1.8681765999999698	NaN	True	NaN	NaN	NaN	NaN	NaN	NaN	NaN
298.0492810000005	1.8682	sub-06	1	localizer	blank	interval	NaN	NaN	NaN	NaN	NaN	NaN	NaN	NaN	NaN	NaN	NaN	NaN
300.2185392000001	0.4995	sub-06	1	localizer	stimulus	Haus	NaN	0	2.6520510000000286	NaN	True	NaN	NaN	NaN	NaN	NaN	NaN	NaN
300.70147690000067	2.6521	sub-06	1	localizer	blank	interval	NaN	NaN	NaN	NaN	NaN	NaN	NaN	NaN	NaN	NaN	NaN	NaN
303.6545771000001	0.4996	sub-06	1	localizer	stimulus	Schuh	NaN	0	2.9859206000000995	NaN	True	NaN	NaN	NaN	NaN	NaN	NaN	NaN
304.1375241000005	2.9859	sub-06	1	localizer	blank	interval	NaN	NaN	NaN	NaN	NaN	NaN	NaN	NaN	NaN	NaN	NaN	NaN
307.42454050000015	0.4995	sub-06	1	localizer	stimulus	Stuhl	NaN	180	1.984977400000389	-9.295051500000229	True	NaN	NaN	NaN	NaN	NaN	NaN	NaN
307.9240682999998	1.985	sub-06	1	localizer	blank	interval	NaN	NaN	NaN	NaN	NaN	NaN	NaN	NaN	NaN	NaN	NaN	NaN
310.21004320000065	0.4996	sub-06	1	localizer	stimulus	Stuhl	NaN	0	1.984838100000161	NaN	True	NaN	NaN	NaN	NaN	NaN	NaN	NaN
310.6930663000003	1.9848	sub-06	1	localizer	blank	interval	NaN	NaN	NaN	NaN	NaN	NaN	NaN	NaN	NaN	NaN	NaN	NaN
312.97878480000054	0.4997	sub-06	1	localizer	stimulus	Katze	NaN	0	2.9523253999996086	NaN	True	NaN	NaN	NaN	NaN	NaN	NaN	NaN
313.46174920000067	2.9523	sub-06	1	localizer	blank	interval	NaN	NaN	NaN	NaN	NaN	NaN	NaN	NaN	NaN	NaN	NaN	NaN
319.90057849999994	1.0006	sub-06	1	sequence	cue	Gesicht	NaN	NaN	NaN	NaN	NaN	NaN	NaN	NaN	NaN	NaN	NaN	NaN
320.9011586000006	2.0015	sub-06	1	sequence	blank	blank	NaN	NaN	NaN	NaN	NaN	NaN	NaN	NaN	NaN	NaN	NaN	NaN
322.90266430000065	0.3002	sub-06	1	sequence	fixation	dot	NaN	NaN	NaN	NaN	NaN	NaN	NaN	NaN	NaN	NaN	NaN	NaN
323.2204317000005	0.0992	sub-06	1	sequence	stimulus	Schuh	NaN	NaN	512.0	NaN	NaN	4.0	1.0	NaN	NaN	NaN	NaN	NaN
323.31960140000047	0.5172	sub-06	1	sequence	interval	dot	NaN	NaN	NaN	NaN	NaN	NaN	NaN	NaN	NaN	NaN	NaN	NaN
323.83677630000057	0.1001	sub-06	1	sequence	stimulus	Katze	NaN	NaN	512.0	NaN	NaN	3.0	2.0	NaN	NaN	NaN	NaN	NaN
323.93683300000066	0.5171	sub-06	1	sequence	interval	dot	NaN	NaN	NaN	NaN	NaN	NaN	NaN	NaN	NaN	NaN	NaN	NaN
324.4539369000004	0.1001	sub-06	1	sequence	stimulus	Gesicht	NaN	NaN	512.0	NaN	NaN	1.0	3.0	NaN	NaN	NaN	NaN	NaN
324.55401840000013	0.5172	sub-06	1	sequence	interval	dot	NaN	NaN	NaN	NaN	NaN	NaN	NaN	NaN	NaN	NaN	NaN	NaN
325.0712324000005	0.0998	sub-06	1	sequence	stimulus	Stuhl	NaN	NaN	512.0	NaN	NaN	5.0	4.0	NaN	NaN	NaN	NaN	NaN
325.1710100999999	0.5174	sub-06	1	sequence	interval	dot	NaN	NaN	NaN	NaN	NaN	NaN	NaN	NaN	NaN	NaN	NaN	NaN
325.6883820000003	0.1	sub-06	1	sequence	stimulus	Haus	NaN	NaN	512.0	NaN	NaN	2.0	5.0	NaN	NaN	NaN	NaN	NaN
325.78842390000045	0.5171	sub-06	1	sequence	interval	dot	NaN	NaN	NaN	NaN	NaN	NaN	NaN	NaN	NaN	NaN	NaN	NaN
326.30547560000014	6.1536	sub-06	1	sequence	delay	dot	NaN	NaN	NaN	NaN	NaN	NaN	NaN	NaN	NaN	NaN	NaN	NaN
332.4388624000003	1.0397	sub-06	1	sequence	choice	choice	left	NaN	NaN	-9.009437400000024	True	NaN	NaN	left	True	3.0	5.0	3.0
333.4789602000001	0.4996	sub-06	1	sequence	feedback	NaN	NaN	NaN	NaN	NaN	NaN	NaN	NaN	NaN	NaN	NaN	NaN	NaN
333.97869570000057	1.0003	sub-06	1	sequence	cue	Haus	NaN	NaN	NaN	NaN	NaN	NaN	NaN	NaN	NaN	NaN	NaN	NaN
334.9790376000001	2.0017	sub-06	1	sequence	blank	blank	NaN	NaN	NaN	NaN	NaN	NaN	NaN	NaN	NaN	NaN	NaN	NaN
336.98076910000054	0.3001	sub-06	1	sequence	fixation	dot	NaN	NaN	NaN	NaN	NaN	NaN	NaN	NaN	NaN	NaN	NaN	NaN
337.29933230000006	0.115	sub-06	1	sequence	stimulus	Gesicht	NaN	NaN	32.0	NaN	NaN	1.0	1.0	NaN	NaN	NaN	NaN	NaN
337.4143030000005	0.0336	sub-06	1	sequence	interval	dot	NaN	NaN	NaN	NaN	NaN	NaN	NaN	NaN	NaN	NaN	NaN	NaN
337.44788510000035	0.0999	sub-06	1	sequence	stimulus	Stuhl	NaN	NaN	32.0	NaN	NaN	5.0	2.0	NaN	NaN	NaN	NaN	NaN
337.5477924000006	0.0336	sub-06	1	sequence	interval	dot	NaN	NaN	NaN	NaN	NaN	NaN	NaN	NaN	NaN	NaN	NaN	NaN
337.5813441999999	0.1	sub-06	1	sequence	stimulus	Schuh	NaN	NaN	32.0	NaN	NaN	4.0	3.0	NaN	NaN	NaN	NaN	NaN
337.6813622999998	0.0335	sub-06	1	sequence	interval	dot	NaN	NaN	NaN	NaN	NaN	NaN	NaN	NaN	NaN	NaN	NaN	NaN
337.7148447999998	0.0998	sub-06	1	sequence	stimulus	Katze	NaN	NaN	32.0	NaN	NaN	3.0	4.0	NaN	NaN	NaN	NaN	NaN
337.81463320000057	0.0335	sub-06	1	sequence	interval	dot	NaN	NaN	NaN	NaN	NaN	NaN	NaN	NaN	NaN	NaN	NaN	NaN
337.8481373000004	0.1	sub-06	1	sequence	stimulus	Haus	NaN	NaN	32.0	NaN	NaN	2.0	5.0	NaN	NaN	NaN	NaN	NaN
337.9481740000001	0.0332	sub-06	1	sequence	interval	dot	NaN	NaN	NaN	NaN	NaN	NaN	NaN	NaN	NaN	NaN	NaN	NaN
337.9814169000001	8.5387	sub-06	1	sequence	delay	dot	NaN	NaN	NaN	NaN	NaN	NaN	NaN	NaN	NaN	NaN	NaN	NaN
346.50450980000005	1.0688	sub-06	1	sequence	choice	choice	right	NaN	NaN	-8.982724299999973	True	NaN	NaN	right	True	3.0	5.0	5.0
347.5736697000002	0.4997	sub-06	1	sequence	feedback	NaN	NaN	NaN	NaN	NaN	NaN	NaN	NaN	NaN	NaN	NaN	NaN	NaN
348.0735568	1.0004	sub-06	1	sequence	cue	Gesicht	NaN	NaN	NaN	NaN	NaN	NaN	NaN	NaN	NaN	NaN	NaN	NaN
349.0739566000002	2.0017	sub-06	1	sequence	blank	blank	NaN	NaN	NaN	NaN	NaN	NaN	NaN	NaN	NaN	NaN	NaN	NaN
351.07565909999994	0.3002	sub-06	1	sequence	fixation	dot	NaN	NaN	NaN	NaN	NaN	NaN	NaN	NaN	NaN	NaN	NaN	NaN
351.3943294999999	0.115	sub-06	1	sequence	stimulus	Haus	NaN	NaN	32.0	NaN	NaN	2.0	1.0	NaN	NaN	NaN	NaN	NaN
351.5092964000005	0.0335	sub-06	1	sequence	interval	dot	NaN	NaN	NaN	NaN	NaN	NaN	NaN	NaN	NaN	NaN	NaN	NaN
351.5427711000002	0.1	sub-06	1	sequence	stimulus	Stuhl	NaN	NaN	32.0	NaN	NaN	5.0	2.0	NaN	NaN	NaN	NaN	NaN
351.6427877000005	0.0334	sub-06	1	sequence	interval	dot	NaN	NaN	NaN	NaN	NaN	NaN	NaN	NaN	NaN	NaN	NaN	NaN
351.6762200000003	0.1	sub-06	1	sequence	stimulus	Schuh	NaN	NaN	32.0	NaN	NaN	4.0	3.0	NaN	NaN	NaN	NaN	NaN
351.7761921000001	0.0335	sub-06	1	sequence	interval	dot	NaN	NaN	NaN	NaN	NaN	NaN	NaN	NaN	NaN	NaN	NaN	NaN
351.80970720000005	0.0999	sub-06	1	sequence	stimulus	Gesicht	NaN	NaN	32.0	NaN	NaN	1.0	4.0	NaN	NaN	NaN	NaN	NaN
351.9096562000004	0.0335	sub-06	1	sequence	interval	dot	NaN	NaN	NaN	NaN	NaN	NaN	NaN	NaN	NaN	NaN	NaN	NaN
351.94316400000025	0.0999	sub-06	1	sequence	stimulus	Katze	NaN	NaN	32.0	NaN	NaN	3.0	5.0	NaN	NaN	NaN	NaN	NaN
352.0430913	0.0333	sub-06	1	sequence	interval	dot	NaN	NaN	NaN	NaN	NaN	NaN	NaN	NaN	NaN	NaN	NaN	NaN
352.07641520000016	8.5385	sub-06	1	sequence	delay	dot	NaN	NaN	NaN	NaN	NaN	NaN	NaN	NaN	NaN	NaN	NaN	NaN
360.5962092	1.1552	sub-06	1	sequence	choice	choice	left	NaN	NaN	-8.90108760000021	True	NaN	NaN	left	True	4.0	2.0	4.0
361.7517189999999	0.4998	sub-06	1	sequence	feedback	NaN	NaN	NaN	NaN	NaN	NaN	NaN	NaN	NaN	NaN	NaN	NaN	NaN
362.2517249000002	1.0002	sub-06	1	sequence	cue	Schuh	NaN	NaN	NaN	NaN	NaN	NaN	NaN	NaN	NaN	NaN	NaN	NaN
363.25190870000006	2.0016	sub-06	1	sequence	blank	blank	NaN	NaN	NaN	NaN	NaN	NaN	NaN	NaN	NaN	NaN	NaN	NaN
365.2535217000004	0.3003	sub-06	1	sequence	fixation	dot	NaN	NaN	NaN	NaN	NaN	NaN	NaN	NaN	NaN	NaN	NaN	NaN
365.5713089000001	0.0992	sub-06	1	sequence	stimulus	Stuhl	NaN	NaN	512.0	NaN	NaN	5.0	1.0	NaN	NaN	NaN	NaN	NaN
365.67050030000064	0.5171	sub-06	1	sequence	interval	dot	NaN	NaN	NaN	NaN	NaN	NaN	NaN	NaN	NaN	NaN	NaN	NaN
366.1876492000001	0.1001	sub-06	1	sequence	stimulus	Katze	NaN	NaN	512.0	NaN	NaN	3.0	2.0	NaN	NaN	NaN	NaN	NaN
366.2877816	0.5171	sub-06	1	sequence	interval	dot	NaN	NaN	NaN	NaN	NaN	NaN	NaN	NaN	NaN	NaN	NaN	NaN
366.80484780000006	0.1001	sub-06	1	sequence	stimulus	Gesicht	NaN	NaN	512.0	NaN	NaN	1.0	3.0	NaN	NaN	NaN	NaN	NaN
366.9049101999999	0.5171	sub-06	1	sequence	interval	dot	NaN	NaN	NaN	NaN	NaN	NaN	NaN	NaN	NaN	NaN	NaN	NaN
367.4220370000003	0.0999	sub-06	1	sequence	stimulus	Schuh	NaN	NaN	512.0	NaN	NaN	4.0	4.0	NaN	NaN	NaN	NaN	NaN
367.5219815999999	0.5173	sub-06	1	sequence	interval	dot	NaN	NaN	NaN	NaN	NaN	NaN	NaN	NaN	NaN	NaN	NaN	NaN
368.0392360000005	0.1	sub-06	1	sequence	stimulus	Haus	NaN	NaN	512.0	NaN	NaN	2.0	5.0	NaN	NaN	NaN	NaN	NaN
368.1392222000004	0.517	sub-06	1	sequence	interval	dot	NaN	NaN	NaN	NaN	NaN	NaN	NaN	NaN	NaN	NaN	NaN	NaN
368.6562111000003	6.1535	sub-06	1	sequence	delay	dot	NaN	NaN	NaN	NaN	NaN	NaN	NaN	NaN	NaN	NaN	NaN	NaN
374.7919106	0.9875	sub-06	1	sequence	choice	choice	right	NaN	NaN	-9.072433100000126	True	NaN	NaN	right	True	3.0	4.0	4.0
375.7796459000001	0.5	sub-06	1	sequence	feedback	NaN	NaN	NaN	NaN	NaN	NaN	NaN	NaN	NaN	NaN	NaN	NaN	NaN
376.2799163	1.0	sub-06	1	sequence	cue	Schuh	NaN	NaN	NaN	NaN	NaN	NaN	NaN	NaN	NaN	NaN	NaN	NaN
377.2798966	2.0017	sub-06	1	sequence	blank	blank	NaN	NaN	NaN	NaN	NaN	NaN	NaN	NaN	NaN	NaN	NaN	NaN
379.2816386000004	0.3002	sub-06	1	sequence	fixation	dot	NaN	NaN	NaN	NaN	NaN	NaN	NaN	NaN	NaN	NaN	NaN	NaN
379.6002954000005	0.1149	sub-06	1	sequence	stimulus	Katze	NaN	NaN	128.0	NaN	NaN	3.0	1.0	NaN	NaN	NaN	NaN	NaN
379.7151750000003	0.1336	sub-06	1	sequence	interval	dot	NaN	NaN	NaN	NaN	NaN	NaN	NaN	NaN	NaN	NaN	NaN	NaN
379.8487419000003	0.1	sub-06	1	sequence	stimulus	Schuh	NaN	NaN	128.0	NaN	NaN	4.0	2.0	NaN	NaN	NaN	NaN	NaN
379.94876340000064	0.1335	sub-06	1	sequence	interval	dot	NaN	NaN	NaN	NaN	NaN	NaN	NaN	NaN	NaN	NaN	NaN	NaN
380.0822767999998	0.0999	sub-06	1	sequence	stimulus	Haus	NaN	NaN	128.0	NaN	NaN	2.0	3.0	NaN	NaN	NaN	NaN	NaN
380.18222419999984	0.1336	sub-06	1	sequence	interval	dot	NaN	NaN	NaN	NaN	NaN	NaN	NaN	NaN	NaN	NaN	NaN	NaN
380.3158110000004	0.0999	sub-06	1	sequence	stimulus	Gesicht	NaN	NaN	128.0	NaN	NaN	1.0	4.0	NaN	NaN	NaN	NaN	NaN
380.4157488000001	0.1336	sub-06	1	sequence	interval	dot	NaN	NaN	NaN	NaN	NaN	NaN	NaN	NaN	NaN	NaN	NaN	NaN
380.5493383000003	0.1001	sub-06	1	sequence	stimulus	Stuhl	NaN	NaN	128.0	NaN	NaN	5.0	5.0	NaN	NaN	NaN	NaN	NaN
380.6493907000004	0.1334	sub-06	1	sequence	interval	dot	NaN	NaN	NaN	NaN	NaN	NaN	NaN	NaN	NaN	NaN	NaN	NaN
380.78276600000027	8.0716	sub-06	1	sequence	delay	dot	NaN	NaN	NaN	NaN	NaN	NaN	NaN	NaN	NaN	NaN	NaN	NaN
388.8316261	1.2091	sub-06	1	sequence	choice	choice	left	NaN	NaN	-8.845054400000663	True	NaN	NaN	left	True	2.0	5.0	2.0
390.0409767000001	0.5	sub-06	1	sequence	feedback	NaN	NaN	NaN	NaN	NaN	NaN	NaN	NaN	NaN	NaN	NaN	NaN	NaN
390.5412377000002	1.0006	sub-06	1	sequence	cue	Stuhl	NaN	NaN	NaN	NaN	NaN	NaN	NaN	NaN	NaN	NaN	NaN	NaN
391.54181250000056	2.0016	sub-06	1	sequence	blank	blank	NaN	NaN	NaN	NaN	NaN	NaN	NaN	NaN	NaN	NaN	NaN	NaN
393.5434380000006	0.3	sub-06	1	sequence	fixation	dot	NaN	NaN	NaN	NaN	NaN	NaN	NaN	NaN	NaN	NaN	NaN	NaN
393.861793	0.115	sub-06	1	sequence	stimulus	Gesicht	NaN	NaN	64.0	NaN	NaN	1.0	1.0	NaN	NaN	NaN	NaN	NaN
393.9768080000004	0.0668	sub-06	1	sequence	interval	dot	NaN	NaN	NaN	NaN	NaN	NaN	NaN	NaN	NaN	NaN	NaN	NaN
394.0436262000003	0.0999	sub-06	1	sequence	stimulus	Katze	NaN	NaN	64.0	NaN	NaN	3.0	2.0	NaN	NaN	NaN	NaN	NaN
394.1435440000005	0.0668	sub-06	1	sequence	interval	dot	NaN	NaN	NaN	NaN	NaN	NaN	NaN	NaN	NaN	NaN	NaN	NaN
394.2103332000006	0.1	sub-06	1	sequence	stimulus	Stuhl	NaN	NaN	64.0	NaN	NaN	5.0	3.0	NaN	NaN	NaN	NaN	NaN
394.3103667000005	0.0668	sub-06	1	sequence	interval	dot	NaN	NaN	NaN	NaN	NaN	NaN	NaN	NaN	NaN	NaN	NaN	NaN
394.3771292000001	0.1	sub-06	1	sequence	stimulus	Haus	NaN	NaN	64.0	NaN	NaN	2.0	4.0	NaN	NaN	NaN	NaN	NaN
394.47708090000015	0.0669	sub-06	1	sequence	interval	dot	NaN	NaN	NaN	NaN	NaN	NaN	NaN	NaN	NaN	NaN	NaN	NaN
394.5440223000005	0.0999	sub-06	1	sequence	stimulus	Schuh	NaN	NaN	64.0	NaN	NaN	4.0	5.0	NaN	NaN	NaN	NaN	NaN
394.6439147000001	0.0667	sub-06	1	sequence	interval	dot	NaN	NaN	NaN	NaN	NaN	NaN	NaN	NaN	NaN	NaN	NaN	NaN
394.71059140000034	8.3887	sub-06	1	sequence	delay	dot	NaN	NaN	NaN	NaN	NaN	NaN	NaN	NaN	NaN	NaN	NaN	NaN
403.07933820000017	1.1062	sub-06	1	sequence	choice	choice	left	NaN	NaN	-8.94552879999992	True	NaN	NaN	left	True	3.0	5.0	3.0
404.1857991000006	0.5	sub-06	1	sequence	feedback	NaN	NaN	NaN	NaN	NaN	NaN	NaN	NaN	NaN	NaN	NaN	NaN	NaN
404.68599880000056	1.0004	sub-06	1	sequence	cue	Katze	NaN	NaN	NaN	NaN	NaN	NaN	NaN	NaN	NaN	NaN	NaN	NaN
405.6863810000005	2.0014	sub-06	1	sequence	blank	blank	NaN	NaN	NaN	NaN	NaN	NaN	NaN	NaN	NaN	NaN	NaN	NaN
407.6878119000002	0.3003	sub-06	1	sequence	fixation	dot	NaN	NaN	NaN	NaN	NaN	NaN	NaN	NaN	NaN	NaN	NaN	NaN
408.0056255	0.0992	sub-06	1	sequence	stimulus	Gesicht	NaN	NaN	64.0	NaN	NaN	1.0	1.0	NaN	NaN	NaN	NaN	NaN
408.1047792	0.0668	sub-06	1	sequence	interval	dot	NaN	NaN	NaN	NaN	NaN	NaN	NaN	NaN	NaN	NaN	NaN	NaN
408.1715823000004	0.1	sub-06	1	sequence	stimulus	Schuh	NaN	NaN	64.0	NaN	NaN	4.0	2.0	NaN	NaN	NaN	NaN	NaN
408.2716070000006	0.0668	sub-06	1	sequence	interval	dot	NaN	NaN	NaN	NaN	NaN	NaN	NaN	NaN	NaN	NaN	NaN	NaN
408.3384567000003	0.1	sub-06	1	sequence	stimulus	Katze	NaN	NaN	64.0	NaN	NaN	3.0	3.0	NaN	NaN	NaN	NaN	NaN
408.43841470000007	0.0669	sub-06	1	sequence	interval	dot	NaN	NaN	NaN	NaN	NaN	NaN	NaN	NaN	NaN	NaN	NaN	NaN
408.5053008000005	0.1004	sub-06	1	sequence	stimulus	Haus	NaN	NaN	64.0	NaN	NaN	2.0	4.0	NaN	NaN	NaN	NaN	NaN
408.6057113000006	0.0665	sub-06	1	sequence	interval	dot	NaN	NaN	NaN	NaN	NaN	NaN	NaN	NaN	NaN	NaN	NaN	NaN
408.6722215	0.1	sub-06	1	sequence	stimulus	Stuhl	NaN	NaN	64.0	NaN	NaN	5.0	5.0	NaN	NaN	NaN	NaN	NaN
408.77218989999983	0.0667	sub-06	1	sequence	interval	dot	NaN	NaN	NaN	NaN	NaN	NaN	NaN	NaN	NaN	NaN	NaN	NaN
408.8389169000002	8.3717	sub-06	1	sequence	delay	dot	NaN	NaN	NaN	NaN	NaN	NaN	NaN	NaN	NaN	NaN	NaN	NaN
417.19705990000057	1.7505	sub-06	1	sequence	choice	choice	left	NaN	NaN	-8.29735890000029	False	NaN	NaN	right	True	4.0	3.0	3.0
418.9478577	0.4998	sub-06	1	sequence	feedback	NaN	NaN	NaN	NaN	NaN	NaN	NaN	NaN	NaN	NaN	NaN	NaN	NaN
419.44789740000033	1.0003	sub-06	1	sequence	cue	Haus	NaN	NaN	NaN	NaN	NaN	NaN	NaN	NaN	NaN	NaN	NaN	NaN
420.4482039000004	2.0016	sub-06	1	sequence	blank	blank	NaN	NaN	NaN	NaN	NaN	NaN	NaN	NaN	NaN	NaN	NaN	NaN
422.44977030000064	0.3002	sub-06	1	sequence	fixation	dot	NaN	NaN	NaN	NaN	NaN	NaN	NaN	NaN	NaN	NaN	NaN	NaN
422.7685098000002	0.1149	sub-06	1	sequence	stimulus	Katze	NaN	NaN	128.0	NaN	NaN	3.0	1.0	NaN	NaN	NaN	NaN	NaN
422.8833909000005	0.1335	sub-06	1	sequence	interval	dot	NaN	NaN	NaN	NaN	NaN	NaN	NaN	NaN	NaN	NaN	NaN	NaN
423.0169081000004	0.1	sub-06	1	sequence	stimulus	Gesicht	NaN	NaN	128.0	NaN	NaN	1.0	2.0	NaN	NaN	NaN	NaN	NaN
423.1169155000007	0.1335	sub-06	1	sequence	interval	dot	NaN	NaN	NaN	NaN	NaN	NaN	NaN	NaN	NaN	NaN	NaN	NaN
423.2504469000005	0.1001	sub-06	1	sequence	stimulus	Schuh	NaN	NaN	128.0	NaN	NaN	4.0	3.0	NaN	NaN	NaN	NaN	NaN
423.3504969000005	0.1335	sub-06	1	sequence	interval	dot	NaN	NaN	NaN	NaN	NaN	NaN	NaN	NaN	NaN	NaN	NaN	NaN
423.4839660000007	0.1	sub-06	1	sequence	stimulus	Stuhl	NaN	NaN	128.0	NaN	NaN	5.0	4.0	NaN	NaN	NaN	NaN	NaN
423.5839907999998	0.1335	sub-06	1	sequence	interval	dot	NaN	NaN	NaN	NaN	NaN	NaN	NaN	NaN	NaN	NaN	NaN	NaN
423.7175318	0.0999	sub-06	1	sequence	stimulus	Haus	NaN	NaN	128.0	NaN	NaN	2.0	5.0	NaN	NaN	NaN	NaN	NaN
423.81747820000055	0.1334	sub-06	1	sequence	interval	dot	NaN	NaN	NaN	NaN	NaN	NaN	NaN	NaN	NaN	NaN	NaN	NaN
423.9509017	8.0551	sub-06	1	sequence	delay	dot	NaN	NaN	NaN	NaN	NaN	NaN	NaN	NaN	NaN	NaN	NaN	NaN
431.99069260000033	0.9685	sub-06	1	sequence	choice	choice	right	NaN	NaN	-9.076209100000597	True	NaN	NaN	right	True	3.0	5.0	5.0
432.9595072000002	0.5	sub-06	1	sequence	feedback	NaN	NaN	NaN	NaN	NaN	NaN	NaN	NaN	NaN	NaN	NaN	NaN	NaN
433.4599959000007	19.7486	sub-06	1	other	break	break	NaN	NaN	NaN	NaN	NaN	NaN	NaN	NaN	NaN	NaN	NaN	NaN
457.0286118000004	0.4995	sub-06	1	localizer	stimulus	Stuhl	NaN	0	2.035069499999736	NaN	True	NaN	NaN	NaN	NaN	NaN	NaN	NaN
457.5280627000002	2.0351	sub-06	1	localizer	blank	interval	NaN	NaN	NaN	NaN	NaN	NaN	NaN	NaN	NaN	NaN	NaN	NaN
459.8641937000002	0.4995	sub-06	1	localizer	stimulus	Gesicht	NaN	0	2.2016500999998243	NaN	True	NaN	NaN	NaN	NaN	NaN	NaN	NaN
460.34709980000025	2.2017	sub-06	1	localizer	blank	interval	NaN	NaN	NaN	NaN	NaN	NaN	NaN	NaN	NaN	NaN	NaN	NaN
462.8499622	0.4995	sub-06	1	localizer	stimulus	Stuhl	NaN	0	2.0849267000003238	NaN	True	NaN	NaN	NaN	NaN	NaN	NaN	NaN
463.3328928000001	2.0849	sub-06	1	localizer	blank	interval	NaN	NaN	NaN	NaN	NaN	NaN	NaN	NaN	NaN	NaN	NaN	NaN
465.7189183	0.4995	sub-06	1	localizer	stimulus	Katze	NaN	0	1.6512102999994909	NaN	True	NaN	NaN	NaN	NaN	NaN	NaN	NaN
466.2018234000007	1.6512	sub-06	1	localizer	blank	interval	NaN	NaN	NaN	NaN	NaN	NaN	NaN	NaN	NaN	NaN	NaN	NaN
468.1541825000004	0.4995	sub-06	1	localizer	stimulus	Katze	NaN	0	2.3684433999997623	NaN	True	NaN	NaN	NaN	NaN	NaN	NaN	NaN
468.63721840000017	2.3684	sub-06	1	localizer	blank	interval	NaN	NaN	NaN	NaN	NaN	NaN	NaN	NaN	NaN	NaN	NaN	NaN
471.3069454000006	0.4994	sub-06	1	localizer	stimulus	Gesicht	NaN	0	1.5345373999998628	NaN	True	NaN	NaN	NaN	NaN	NaN	NaN	NaN
471.7898304	1.5345	sub-06	1	localizer	blank	interval	NaN	NaN	NaN	NaN	NaN	NaN	NaN	NaN	NaN	NaN	NaN	NaN
473.62573040000007	0.5001	sub-06	1	localizer	stimulus	Schuh	NaN	180	2.351806800000361	-9.04862090000006	True	NaN	NaN	NaN	NaN	NaN	NaN	NaN
474.10845770000014	2.3518	sub-06	1	localizer	blank	interval	NaN	NaN	NaN	NaN	NaN	NaN	NaN	NaN	NaN	NaN	NaN	NaN
476.7614608000004	0.4994	sub-06	1	localizer	stimulus	Schuh	NaN	0	2.868843000000197	NaN	True	NaN	NaN	NaN	NaN	NaN	NaN	NaN
477.2442933000002	2.8688	sub-06	1	localizer	blank	interval	NaN	NaN	NaN	NaN	NaN	NaN	NaN	NaN	NaN	NaN	NaN	NaN
480.4143256000007	0.4999	sub-06	1	localizer	stimulus	Gesicht	NaN	0	1.8346905999996466	NaN	True	NaN	NaN	NaN	NaN	NaN	NaN	NaN
480.8971753000005	1.8347	sub-06	1	localizer	blank	interval	NaN	NaN	NaN	NaN	NaN	NaN	NaN	NaN	NaN	NaN	NaN	NaN
483.03295789999993	0.4995	sub-06	1	localizer	stimulus	Katze	NaN	180	2.018129200000601	-9.231921700000385	True	NaN	NaN	NaN	NaN	NaN	NaN	NaN
483.5158959999999	2.0181	sub-06	1	localizer	blank	interval	NaN	NaN	NaN	NaN	NaN	NaN	NaN	NaN	NaN	NaN	NaN	NaN
485.8351890000004	0.4995	sub-06	1	localizer	stimulus	Stuhl	NaN	0	1.78475890000027	NaN	True	NaN	NaN	NaN	NaN	NaN	NaN	NaN
486.3181192000002	1.7848	sub-06	1	localizer	blank	interval	NaN	NaN	NaN	NaN	NaN	NaN	NaN	NaN	NaN	NaN	NaN	NaN
488.4039542	0.5001	sub-06	1	localizer	stimulus	Haus	NaN	180	2.9022642999998425	-9.33098930000051	True	NaN	NaN	NaN	NaN	NaN	NaN	NaN
488.88705690000006	2.9023	sub-06	1	localizer	blank	interval	NaN	NaN	NaN	NaN	NaN	NaN	NaN	NaN	NaN	NaN	NaN	NaN
492.0902491000006	0.4996	sub-06	1	localizer	stimulus	Schuh	NaN	0	3.152356200000213	NaN	True	NaN	NaN	NaN	NaN	NaN	NaN	NaN
492.57333410000047	3.1524	sub-06	1	localizer	blank	interval	NaN	NaN	NaN	NaN	NaN	NaN	NaN	NaN	NaN	NaN	NaN	NaN
496.0267789	0.4996	sub-06	1	localizer	stimulus	Stuhl	NaN	180	2.7019012999999177	-9.377109800000651	True	NaN	NaN	NaN	NaN	NaN	NaN	NaN
496.5098218000003	2.7019	sub-06	1	localizer	blank	interval	NaN	NaN	NaN	NaN	NaN	NaN	NaN	NaN	NaN	NaN	NaN	NaN
499.51297520000026	0.4994	sub-06	1	localizer	stimulus	Schuh	NaN	0	1.9347426000004475	NaN	True	NaN	NaN	NaN	NaN	NaN	NaN	NaN
499.9958594	1.9347	sub-06	1	localizer	blank	interval	NaN	NaN	NaN	NaN	NaN	NaN	NaN	NaN	NaN	NaN	NaN	NaN
502.2317913000006	0.4995	sub-06	1	localizer	stimulus	Haus	NaN	0	2.034748899999613	NaN	True	NaN	NaN	NaN	NaN	NaN	NaN	NaN
502.7148296000005	2.0347	sub-06	1	localizer	blank	interval	NaN	NaN	NaN	NaN	NaN	NaN	NaN	NaN	NaN	NaN	NaN	NaN
505.05082740000034	0.4994	sub-06	1	localizer	stimulus	Haus	NaN	0	2.568555599999854	NaN	True	NaN	NaN	NaN	NaN	NaN	NaN	NaN
505.53373660000034	2.5686	sub-06	1	localizer	blank	interval	NaN	NaN	NaN	NaN	NaN	NaN	NaN	NaN	NaN	NaN	NaN	NaN
508.4034247999998	0.4995	sub-06	1	localizer	stimulus	Gesicht	NaN	180	2.2017674999997325	-9.378223799999432	True	NaN	NaN	NaN	NaN	NaN	NaN	NaN
508.8863587000005	2.2018	sub-06	1	localizer	blank	interval	NaN	NaN	NaN	NaN	NaN	NaN	NaN	NaN	NaN	NaN	NaN	NaN
511.38934830000017	0.4994	sub-06	1	localizer	stimulus	Gesicht	NaN	0	2.001336100000117	NaN	True	NaN	NaN	NaN	NaN	NaN	NaN	NaN
511.8723501000004	2.0013	sub-06	1	localizer	blank	interval	NaN	NaN	NaN	NaN	NaN	NaN	NaN	NaN	NaN	NaN	NaN	NaN
514.1750160000001	0.4993	sub-06	1	localizer	stimulus	Haus	NaN	0	3.1189572000002954	NaN	True	NaN	NaN	NaN	NaN	NaN	NaN	NaN
514.6578814000004	3.119	sub-06	1	localizer	blank	interval	NaN	NaN	NaN	NaN	NaN	NaN	NaN	NaN	NaN	NaN	NaN	NaN
518.077996	0.4995	sub-06	1	localizer	stimulus	Katze	NaN	0	2.4517636999999013	NaN	True	NaN	NaN	NaN	NaN	NaN	NaN	NaN
518.5609727000001	2.4518	sub-06	1	localizer	blank	interval	NaN	NaN	NaN	NaN	NaN	NaN	NaN	NaN	NaN	NaN	NaN	NaN
521.3138662000001	0.4995	sub-06	1	localizer	stimulus	Schuh	NaN	0	1.9847088999995322	NaN	True	NaN	NaN	NaN	NaN	NaN	NaN	NaN
521.7968519000005	1.9847	sub-06	1	localizer	blank	interval	NaN	NaN	NaN	NaN	NaN	NaN	NaN	NaN	NaN	NaN	NaN	NaN
524.0827149000006	0.4995	sub-06	1	localizer	stimulus	Katze	NaN	0	2.702062499999556	NaN	True	NaN	NaN	NaN	NaN	NaN	NaN	NaN
524.5656518000005	2.7021	sub-06	1	localizer	blank	interval	NaN	NaN	NaN	NaN	NaN	NaN	NaN	NaN	NaN	NaN	NaN	NaN
527.5688886000007	0.4995	sub-06	1	localizer	stimulus	Haus	NaN	0	2.301749100000052	NaN	True	NaN	NaN	NaN	NaN	NaN	NaN	NaN
528.0517995999999	2.3017	sub-06	1	localizer	blank	interval	NaN	NaN	NaN	NaN	NaN	NaN	NaN	NaN	NaN	NaN	NaN	NaN
530.6546935000006	0.4995	sub-06	1	localizer	stimulus	Stuhl	NaN	0	2.9856587000003856	NaN	True	NaN	NaN	NaN	NaN	NaN	NaN	NaN
531.1377104000003	2.9857	sub-06	1	localizer	blank	interval	NaN	NaN	NaN	NaN	NaN	NaN	NaN	NaN	NaN	NaN	NaN	NaN
537.6098505	1.0006	sub-06	1	sequence	cue	Haus	NaN	NaN	NaN	NaN	NaN	NaN	NaN	NaN	NaN	NaN	NaN	NaN
538.6104412000004	2.0016	sub-06	1	sequence	blank	blank	NaN	NaN	NaN	NaN	NaN	NaN	NaN	NaN	NaN	NaN	NaN	NaN
540.6120483000004	0.3002	sub-06	1	sequence	fixation	dot	NaN	NaN	NaN	NaN	NaN	NaN	NaN	NaN	NaN	NaN	NaN	NaN
540.9306873000005	0.1148	sub-06	1	sequence	stimulus	Schuh	NaN	NaN	512.0	NaN	NaN	4.0	1.0	NaN	NaN	NaN	NaN	NaN
541.0455238000004	0.5172	sub-06	1	sequence	interval	dot	NaN	NaN	NaN	NaN	NaN	NaN	NaN	NaN	NaN	NaN	NaN	NaN
541.5627586999999	0.0999	sub-06	1	sequence	stimulus	Katze	NaN	NaN	512.0	NaN	NaN	3.0	2.0	NaN	NaN	NaN	NaN	NaN
541.6626707000005	0.5173	sub-06	1	sequence	interval	dot	NaN	NaN	NaN	NaN	NaN	NaN	NaN	NaN	NaN	NaN	NaN	NaN
542.1799384000005	0.0999	sub-06	1	sequence	stimulus	Gesicht	NaN	NaN	512.0	NaN	NaN	1.0	3.0	NaN	NaN	NaN	NaN	NaN
542.27988	0.5171	sub-06	1	sequence	interval	dot	NaN	NaN	NaN	NaN	NaN	NaN	NaN	NaN	NaN	NaN	NaN	NaN
542.7969859000004	0.1001	sub-06	1	sequence	stimulus	Stuhl	NaN	NaN	512.0	NaN	NaN	5.0	4.0	NaN	NaN	NaN	NaN	NaN
542.8970507000004	0.5174	sub-06	1	sequence	interval	dot	NaN	NaN	NaN	NaN	NaN	NaN	NaN	NaN	NaN	NaN	NaN	NaN
543.4144292999999	0.0998	sub-06	1	sequence	stimulus	Haus	NaN	NaN	512.0	NaN	NaN	2.0	5.0	NaN	NaN	NaN	NaN	NaN
543.5142246000005	0.517	sub-06	1	sequence	interval	dot	NaN	NaN	NaN	NaN	NaN	NaN	NaN	NaN	NaN	NaN	NaN	NaN
544.0312598	6.1368	sub-06	1	sequence	delay	dot	NaN	NaN	NaN	NaN	NaN	NaN	NaN	NaN	NaN	NaN	NaN	NaN
550.1580240000003	1.0464	sub-06	1	sequence	choice	choice	right	NaN	NaN	-8.991275899999891	True	NaN	NaN	right	True	4.0	5.0	5.0
551.2047999000006	0.4998	sub-06	1	sequence	feedback	NaN	NaN	NaN	NaN	NaN	NaN	NaN	NaN	NaN	NaN	NaN	NaN	NaN
551.7047812999999	1.0003	sub-06	1	sequence	cue	Gesicht	NaN	NaN	NaN	NaN	NaN	NaN	NaN	NaN	NaN	NaN	NaN	NaN
552.7051307000002	2.0017	sub-06	1	sequence	blank	blank	NaN	NaN	NaN	NaN	NaN	NaN	NaN	NaN	NaN	NaN	NaN	NaN
554.7067981	0.3002	sub-06	1	sequence	fixation	dot	NaN	NaN	NaN	NaN	NaN	NaN	NaN	NaN	NaN	NaN	NaN	NaN
555.0254113999999	0.115	sub-06	1	sequence	stimulus	Haus	NaN	NaN	32.0	NaN	NaN	2.0	1.0	NaN	NaN	NaN	NaN	NaN
555.1404357000001	0.0335	sub-06	1	sequence	interval	dot	NaN	NaN	NaN	NaN	NaN	NaN	NaN	NaN	NaN	NaN	NaN	NaN
555.1739130000005	0.0999	sub-06	1	sequence	stimulus	Stuhl	NaN	NaN	32.0	NaN	NaN	5.0	2.0	NaN	NaN	NaN	NaN	NaN
555.2738147999999	0.0335	sub-06	1	sequence	interval	dot	NaN	NaN	NaN	NaN	NaN	NaN	NaN	NaN	NaN	NaN	NaN	NaN
555.3072955000007	0.0999	sub-06	1	sequence	stimulus	Schuh	NaN	NaN	32.0	NaN	NaN	4.0	3.0	NaN	NaN	NaN	NaN	NaN
555.4072139999998	0.0335	sub-06	1	sequence	interval	dot	NaN	NaN	NaN	NaN	NaN	NaN	NaN	NaN	NaN	NaN	NaN	NaN
555.4406791000001	0.0999	sub-06	1	sequence	stimulus	Gesicht	NaN	NaN	32.0	NaN	NaN	1.0	4.0	NaN	NaN	NaN	NaN	NaN
555.5405897999999	0.0335	sub-06	1	sequence	interval	dot	NaN	NaN	NaN	NaN	NaN	NaN	NaN	NaN	NaN	NaN	NaN	NaN
555.5740937999999	0.1	sub-06	1	sequence	stimulus	Katze	NaN	NaN	32.0	NaN	NaN	3.0	5.0	NaN	NaN	NaN	NaN	NaN
555.6740637000003	0.0334	sub-06	1	sequence	interval	dot	NaN	NaN	NaN	NaN	NaN	NaN	NaN	NaN	NaN	NaN	NaN	NaN
555.7074333	8.5387	sub-06	1	sequence	delay	dot	NaN	NaN	NaN	NaN	NaN	NaN	NaN	NaN	NaN	NaN	NaN	NaN
564.2237614000005	1.0754	sub-06	1	sequence	choice	choice	right	NaN	NaN	-8.980611699999827	True	NaN	NaN	right	True	5.0	4.0	4.0
565.2993827	0.4998	sub-06	1	sequence	feedback	NaN	NaN	NaN	NaN	NaN	NaN	NaN	NaN	NaN	NaN	NaN	NaN	NaN
565.7994425000006	1.0003	sub-06	1	sequence	cue	Gesicht	NaN	NaN	NaN	NaN	NaN	NaN	NaN	NaN	NaN	NaN	NaN	NaN
566.7997023000007	2.0017	sub-06	1	sequence	blank	blank	NaN	NaN	NaN	NaN	NaN	NaN	NaN	NaN	NaN	NaN	NaN	NaN
568.8014437000002	0.3002	sub-06	1	sequence	fixation	dot	NaN	NaN	NaN	NaN	NaN	NaN	NaN	NaN	NaN	NaN	NaN	NaN
569.1191459000001	0.0992	sub-06	1	sequence	stimulus	Gesicht	NaN	NaN	32.0	NaN	NaN	1.0	1.0	NaN	NaN	NaN	NaN	NaN
569.2183168000001	0.0335	sub-06	1	sequence	interval	dot	NaN	NaN	NaN	NaN	NaN	NaN	NaN	NaN	NaN	NaN	NaN	NaN
569.2517794000005	0.1	sub-06	1	sequence	stimulus	Stuhl	NaN	NaN	32.0	NaN	NaN	5.0	2.0	NaN	NaN	NaN	NaN	NaN
569.3517947	0.0336	sub-06	1	sequence	interval	dot	NaN	NaN	NaN	NaN	NaN	NaN	NaN	NaN	NaN	NaN	NaN	NaN
569.3853641000005	0.0999	sub-06	1	sequence	stimulus	Schuh	NaN	NaN	32.0	NaN	NaN	4.0	3.0	NaN	NaN	NaN	NaN	NaN
569.4852912000006	0.0334	sub-06	1	sequence	interval	dot	NaN	NaN	NaN	NaN	NaN	NaN	NaN	NaN	NaN	NaN	NaN	NaN
569.5186643000006	0.1	sub-06	1	sequence	stimulus	Katze	NaN	NaN	32.0	NaN	NaN	3.0	4.0	NaN	NaN	NaN	NaN	NaN
569.6186496	0.0335	sub-06	1	sequence	interval	dot	NaN	NaN	NaN	NaN	NaN	NaN	NaN	NaN	NaN	NaN	NaN	NaN
569.6521108000006	0.1	sub-06	1	sequence	stimulus	Haus	NaN	NaN	32.0	NaN	NaN	2.0	5.0	NaN	NaN	NaN	NaN	NaN
569.7521175000002	0.0334	sub-06	1	sequence	interval	dot	NaN	NaN	NaN	NaN	NaN	NaN	NaN	NaN	NaN	NaN	NaN	NaN
569.7854871	8.5218	sub-06	1	sequence	delay	dot	NaN	NaN	NaN	NaN	NaN	NaN	NaN	NaN	NaN	NaN	NaN	NaN
578.2894697000002	1.1712	sub-06	1	sequence	choice	choice	left	NaN	NaN	-8.88172890000078	True	NaN	NaN	left	True	1.0	3.0	1.0
579.4609275000003	0.4999	sub-06	1	sequence	feedback	NaN	NaN	NaN	NaN	NaN	NaN	NaN	NaN	NaN	NaN	NaN	NaN	NaN
579.9610358999998	1.0003	sub-06	1	sequence	cue	Stuhl	NaN	NaN	NaN	NaN	NaN	NaN	NaN	NaN	NaN	NaN	NaN	NaN
580.9613607000001	2.0014	sub-06	1	sequence	blank	blank	NaN	NaN	NaN	NaN	NaN	NaN	NaN	NaN	NaN	NaN	NaN	NaN
582.9627973000006	0.3004	sub-06	1	sequence	fixation	dot	NaN	NaN	NaN	NaN	NaN	NaN	NaN	NaN	NaN	NaN	NaN	NaN
583.2816434000006	0.1148	sub-06	1	sequence	stimulus	Gesicht	NaN	NaN	64.0	NaN	NaN	1.0	1.0	NaN	NaN	NaN	NaN	NaN
583.3964503000007	0.0669	sub-06	1	sequence	interval	dot	NaN	NaN	NaN	NaN	NaN	NaN	NaN	NaN	NaN	NaN	NaN	NaN
583.4633027999998	0.1	sub-06	1	sequence	stimulus	Katze	NaN	NaN	64.0	NaN	NaN	3.0	2.0	NaN	NaN	NaN	NaN	NaN
583.5632725000005	0.0668	sub-06	1	sequence	interval	dot	NaN	NaN	NaN	NaN	NaN	NaN	NaN	NaN	NaN	NaN	NaN	NaN
583.6301030000004	0.1	sub-06	1	sequence	stimulus	Stuhl	NaN	NaN	64.0	NaN	NaN	5.0	3.0	NaN	NaN	NaN	NaN	NaN
583.7300681000006	0.0668	sub-06	1	sequence	interval	dot	NaN	NaN	NaN	NaN	NaN	NaN	NaN	NaN	NaN	NaN	NaN	NaN
583.7968907000004	0.1	sub-06	1	sequence	stimulus	Haus	NaN	NaN	64.0	NaN	NaN	2.0	4.0	NaN	NaN	NaN	NaN	NaN
583.8968576000007	0.0669	sub-06	1	sequence	interval	dot	NaN	NaN	NaN	NaN	NaN	NaN	NaN	NaN	NaN	NaN	NaN	NaN
583.9637729000005	0.1	sub-06	1	sequence	stimulus	Schuh	NaN	NaN	64.0	NaN	NaN	4.0	5.0	NaN	NaN	NaN	NaN	NaN
584.0637278000004	0.0694	sub-06	1	sequence	interval	dot	NaN	NaN	NaN	NaN	NaN	NaN	NaN	NaN	NaN	NaN	NaN	NaN
584.1331164000003	8.3691	sub-06	1	sequence	delay	dot	NaN	NaN	NaN	NaN	NaN	NaN	NaN	NaN	NaN	NaN	NaN	NaN
592.4852416000003	1.1702	sub-06	1	sequence	choice	choice	left	NaN	NaN	-8.884833400000389	True	NaN	NaN	left	True	3.0	5.0	3.0
593.6556952000001	0.4998	sub-06	1	sequence	feedback	NaN	NaN	NaN	NaN	NaN	NaN	NaN	NaN	NaN	NaN	NaN	NaN	NaN
594.1557085000004	1.0004	sub-06	1	sequence	cue	Stuhl	NaN	NaN	NaN	NaN	NaN	NaN	NaN	NaN	NaN	NaN	NaN	NaN
595.1561513000006	2.0014	sub-06	1	sequence	blank	blank	NaN	NaN	NaN	NaN	NaN	NaN	NaN	NaN	NaN	NaN	NaN	NaN
597.1575748000005	0.3003	sub-06	1	sequence	fixation	dot	NaN	NaN	NaN	NaN	NaN	NaN	NaN	NaN	NaN	NaN	NaN	NaN
597.4761902999999	0.1151	sub-06	1	sequence	stimulus	Katze	NaN	NaN	128.0	NaN	NaN	3.0	1.0	NaN	NaN	NaN	NaN	NaN
597.5912695000006	0.1336	sub-06	1	sequence	interval	dot	NaN	NaN	NaN	NaN	NaN	NaN	NaN	NaN	NaN	NaN	NaN	NaN
597.7248301999998	0.0999	sub-06	1	sequence	stimulus	Schuh	NaN	NaN	128.0	NaN	NaN	4.0	2.0	NaN	NaN	NaN	NaN	NaN
597.8247281000004	0.1336	sub-06	1	sequence	interval	dot	NaN	NaN	NaN	NaN	NaN	NaN	NaN	NaN	NaN	NaN	NaN	NaN
597.9583722000007	0.1	sub-06	1	sequence	stimulus	Haus	NaN	NaN	128.0	NaN	NaN	2.0	3.0	NaN	NaN	NaN	NaN	NaN
598.0583231999999	0.1335	sub-06	1	sequence	interval	dot	NaN	NaN	NaN	NaN	NaN	NaN	NaN	NaN	NaN	NaN	NaN	NaN
598.1918186000003	0.1	sub-06	1	sequence	stimulus	Gesicht	NaN	NaN	128.0	NaN	NaN	1.0	4.0	NaN	NaN	NaN	NaN	NaN
598.2918589000001	0.1335	sub-06	1	sequence	interval	dot	NaN	NaN	NaN	NaN	NaN	NaN	NaN	NaN	NaN	NaN	NaN	NaN
598.4253578000007	0.1	sub-06	1	sequence	stimulus	Stuhl	NaN	NaN	128.0	NaN	NaN	5.0	5.0	NaN	NaN	NaN	NaN	NaN
598.5253535000002	0.1335	sub-06	1	sequence	interval	dot	NaN	NaN	NaN	NaN	NaN	NaN	NaN	NaN	NaN	NaN	NaN	NaN
598.6588048000003	8.0717	sub-06	1	sequence	delay	dot	NaN	NaN	NaN	NaN	NaN	NaN	NaN	NaN	NaN	NaN	NaN	NaN
606.7069771000006	1.5101	sub-06	1	sequence	choice	choice	left	NaN	NaN	-8.545347300000685	True	NaN	NaN	left	True	5.0	4.0	5.0
608.2173829000003	0.4999	sub-06	1	sequence	feedback	NaN	NaN	NaN	NaN	NaN	NaN	NaN	NaN	NaN	NaN	NaN	NaN	NaN
608.7175232999998	1.0002	sub-06	1	sequence	cue	Stuhl	NaN	NaN	NaN	NaN	NaN	NaN	NaN	NaN	NaN	NaN	NaN	NaN
609.7177425	2.0017	sub-06	1	sequence	blank	blank	NaN	NaN	NaN	NaN	NaN	NaN	NaN	NaN	NaN	NaN	NaN	NaN
611.7194023000002	0.3002	sub-06	1	sequence	fixation	dot	NaN	NaN	NaN	NaN	NaN	NaN	NaN	NaN	NaN	NaN	NaN	NaN
612.0374031000001	0.1156	sub-06	1	sequence	stimulus	Katze	NaN	NaN	128.0	NaN	NaN	3.0	1.0	NaN	NaN	NaN	NaN	NaN
612.1530379000005	0.1337	sub-06	1	sequence	interval	dot	NaN	NaN	NaN	NaN	NaN	NaN	NaN	NaN	NaN	NaN	NaN	NaN
612.2867077000001	0.0998	sub-06	1	sequence	stimulus	Gesicht	NaN	NaN	128.0	NaN	NaN	1.0	2.0	NaN	NaN	NaN	NaN	NaN
612.3865349000007	0.1337	sub-06	1	sequence	interval	dot	NaN	NaN	NaN	NaN	NaN	NaN	NaN	NaN	NaN	NaN	NaN	NaN
612.5202188000003	0.1	sub-06	1	sequence	stimulus	Schuh	NaN	NaN	128.0	NaN	NaN	4.0	3.0	NaN	NaN	NaN	NaN	NaN
612.6201838000006	0.1336	sub-06	1	sequence	interval	dot	NaN	NaN	NaN	NaN	NaN	NaN	NaN	NaN	NaN	NaN	NaN	NaN
612.7537465000005	0.1	sub-06	1	sequence	stimulus	Stuhl	NaN	NaN	128.0	NaN	NaN	5.0	4.0	NaN	NaN	NaN	NaN	NaN
612.8537008000003	0.1337	sub-06	1	sequence	interval	dot	NaN	NaN	NaN	NaN	NaN	NaN	NaN	NaN	NaN	NaN	NaN	NaN
612.9873633000007	0.0999	sub-06	1	sequence	stimulus	Haus	NaN	NaN	128.0	NaN	NaN	2.0	5.0	NaN	NaN	NaN	NaN	NaN
613.0872624000003	0.1335	sub-06	1	sequence	interval	dot	NaN	NaN	NaN	NaN	NaN	NaN	NaN	NaN	NaN	NaN	NaN	NaN
613.2207185000007	8.0715	sub-06	1	sequence	delay	dot	NaN	NaN	NaN	NaN	NaN	NaN	NaN	NaN	NaN	NaN	NaN	NaN
621.2665418000006	1.1622	sub-06	1	sequence	choice	choice	left	NaN	NaN	-8.899255100000119	True	NaN	NaN	left	True	4.0	3.0	4.0
622.4289921	0.4999	sub-06	1	sequence	feedback	NaN	NaN	NaN	NaN	NaN	NaN	NaN	NaN	NaN	NaN	NaN	NaN	NaN
622.929083	1.0003	sub-06	1	sequence	cue	Haus	NaN	NaN	NaN	NaN	NaN	NaN	NaN	NaN	NaN	NaN	NaN	NaN
623.9294084000003	2.0014	sub-06	1	sequence	blank	blank	NaN	NaN	NaN	NaN	NaN	NaN	NaN	NaN	NaN	NaN	NaN	NaN
625.9308195000003	0.3004	sub-06	1	sequence	fixation	dot	NaN	NaN	NaN	NaN	NaN	NaN	NaN	NaN	NaN	NaN	NaN	NaN
626.2486333000006	0.0991	sub-06	1	sequence	stimulus	Stuhl	NaN	NaN	512.0	NaN	NaN	5.0	1.0	NaN	NaN	NaN	NaN	NaN
626.3477641	0.5173	sub-06	1	sequence	interval	dot	NaN	NaN	NaN	NaN	NaN	NaN	NaN	NaN	NaN	NaN	NaN	NaN
626.8650839000002	0.0999	sub-06	1	sequence	stimulus	Katze	NaN	NaN	512.0	NaN	NaN	3.0	2.0	NaN	NaN	NaN	NaN	NaN
626.9649737	0.5172	sub-06	1	sequence	interval	dot	NaN	NaN	NaN	NaN	NaN	NaN	NaN	NaN	NaN	NaN	NaN	NaN
627.4821442000002	0.1002	sub-06	1	sequence	stimulus	Gesicht	NaN	NaN	512.0	NaN	NaN	1.0	3.0	NaN	NaN	NaN	NaN	NaN
627.5823172999999	0.517	sub-06	1	sequence	interval	dot	NaN	NaN	NaN	NaN	NaN	NaN	NaN	NaN	NaN	NaN	NaN	NaN
628.0993438000005	0.0999	sub-06	1	sequence	stimulus	Schuh	NaN	NaN	512.0	NaN	NaN	4.0	4.0	NaN	NaN	NaN	NaN	NaN
628.1992809000003	0.5172	sub-06	1	sequence	interval	dot	NaN	NaN	NaN	NaN	NaN	NaN	NaN	NaN	NaN	NaN	NaN	NaN
628.7164997999998	0.1	sub-06	1	sequence	stimulus	Haus	NaN	NaN	512.0	NaN	NaN	2.0	5.0	NaN	NaN	NaN	NaN	NaN
628.8165426000005	0.517	sub-06	1	sequence	interval	dot	NaN	NaN	NaN	NaN	NaN	NaN	NaN	NaN	NaN	NaN	NaN	NaN
629.3335729	6.1534	sub-06	1	sequence	delay	dot	NaN	NaN	NaN	NaN	NaN	NaN	NaN	NaN	NaN	NaN	NaN	NaN
635.4623478000003	1.0444	sub-06	1	sequence	choice	choice	right	NaN	NaN	-9.013331400000425	True	NaN	NaN	right	True	1.0	5.0	5.0
636.5070228000004	0.4998	sub-06	1	sequence	feedback	NaN	NaN	NaN	NaN	NaN	NaN	NaN	NaN	NaN	NaN	NaN	NaN	NaN
637.0070968999999	1.0002	sub-06	1	sequence	cue	Schuh	NaN	NaN	NaN	NaN	NaN	NaN	NaN	NaN	NaN	NaN	NaN	NaN
638.0072777000005	2.0016	sub-06	1	sequence	blank	blank	NaN	NaN	NaN	NaN	NaN	NaN	NaN	NaN	NaN	NaN	NaN	NaN
640.0088650000007	0.3005	sub-06	1	sequence	fixation	dot	NaN	NaN	NaN	NaN	NaN	NaN	NaN	NaN	NaN	NaN	NaN	NaN
640.3276546000006	0.1149	sub-06	1	sequence	stimulus	Gesicht	NaN	NaN	64.0	NaN	NaN	1.0	1.0	NaN	NaN	NaN	NaN	NaN
640.4426017000005	0.0668	sub-06	1	sequence	interval	dot	NaN	NaN	NaN	NaN	NaN	NaN	NaN	NaN	NaN	NaN	NaN	NaN
640.5094269000001	0.0999	sub-06	1	sequence	stimulus	Schuh	NaN	NaN	64.0	NaN	NaN	4.0	2.0	NaN	NaN	NaN	NaN	NaN
640.6093700000001	0.0668	sub-06	1	sequence	interval	dot	NaN	NaN	NaN	NaN	NaN	NaN	NaN	NaN	NaN	NaN	NaN	NaN
640.6761667000001	0.1	sub-06	1	sequence	stimulus	Katze	NaN	NaN	64.0	NaN	NaN	3.0	3.0	NaN	NaN	NaN	NaN	NaN
640.7761655000004	0.0669	sub-06	1	sequence	interval	dot	NaN	NaN	NaN	NaN	NaN	NaN	NaN	NaN	NaN	NaN	NaN	NaN
640.8430923000005	0.0999	sub-06	1	sequence	stimulus	Haus	NaN	NaN	64.0	NaN	NaN	2.0	4.0	NaN	NaN	NaN	NaN	NaN
640.9430305000005	0.0669	sub-06	1	sequence	interval	dot	NaN	NaN	NaN	NaN	NaN	NaN	NaN	NaN	NaN	NaN	NaN	NaN
641.0099041000003	0.0999	sub-06	1	sequence	stimulus	Stuhl	NaN	NaN	64.0	NaN	NaN	5.0	5.0	NaN	NaN	NaN	NaN	NaN
641.1098112	0.0667	sub-06	1	sequence	interval	dot	NaN	NaN	NaN	NaN	NaN	NaN	NaN	NaN	NaN	NaN	NaN	NaN
641.1764800999999	8.3719	sub-06	1	sequence	delay	dot	NaN	NaN	NaN	NaN	NaN	NaN	NaN	NaN	NaN	NaN	NaN	NaN
649.5280007000001	1.1402	sub-06	1	sequence	choice	choice	right	NaN	NaN	-8.923461400000633	True	NaN	NaN	right	True	5.0	2.0	2.0
650.6684318000007	0.4997	sub-06	1	sequence	feedback	NaN	NaN	NaN	NaN	NaN	NaN	NaN	NaN	NaN	NaN	NaN	NaN	NaN
654.9886733000003	0.4996	sub-06	1	localizer	stimulus	Gesicht	NaN	180	2.4684379999998782	NaN	False	NaN	NaN	NaN	NaN	NaN	NaN	NaN
655.4716488000004	2.4684	sub-06	1	localizer	blank	interval	NaN	NaN	NaN	NaN	NaN	NaN	NaN	NaN	NaN	NaN	NaN	NaN
658.2412091000006	0.4995	sub-06	1	localizer	stimulus	Gesicht	NaN	0	2.9690275000002657	NaN	True	NaN	NaN	NaN	NaN	NaN	NaN	NaN
658.7240969000004	2.969	sub-06	1	localizer	blank	interval	NaN	NaN	NaN	NaN	NaN	NaN	NaN	NaN	NaN	NaN	NaN	NaN
661.9944854000005	0.4992	sub-06	1	localizer	stimulus	Haus	NaN	0	2.435214800000722	NaN	True	NaN	NaN	NaN	NaN	NaN	NaN	NaN
662.4772493999999	2.4352	sub-06	1	localizer	blank	interval	NaN	NaN	NaN	NaN	NaN	NaN	NaN	NaN	NaN	NaN	NaN	NaN
665.2136673000005	0.4995	sub-06	1	localizer	stimulus	Katze	NaN	0	2.451651100000163	NaN	True	NaN	NaN	NaN	NaN	NaN	NaN	NaN
665.6966183000004	2.4517	sub-06	1	localizer	blank	interval	NaN	NaN	NaN	NaN	NaN	NaN	NaN	NaN	NaN	NaN	NaN	NaN
668.4494393000004	0.4995	sub-06	1	localizer	stimulus	Katze	NaN	180	4.486869499999557	-9.360633899999812	True	NaN	NaN	NaN	NaN	NaN	NaN	NaN
668.9323595000005	4.4869	sub-06	1	localizer	blank	interval	NaN	NaN	NaN	NaN	NaN	NaN	NaN	NaN	NaN	NaN	NaN	NaN
673.7204238000004	0.4995	sub-06	1	localizer	stimulus	Stuhl	NaN	0	3.385982100000547	NaN	True	NaN	NaN	NaN	NaN	NaN	NaN	NaN
674.2033891000001	3.386	sub-06	1	localizer	blank	interval	NaN	NaN	NaN	NaN	NaN	NaN	NaN	NaN	NaN	NaN	NaN	NaN
677.8905642	0.4994	sub-06	1	localizer	stimulus	Haus	NaN	180	1.9847921999999016	-9.433685200000582	True	NaN	NaN	NaN	NaN	NaN	NaN	NaN
678.3734445	1.9848	sub-06	1	localizer	blank	interval	NaN	NaN	NaN	NaN	NaN	NaN	NaN	NaN	NaN	NaN	NaN	NaN
680.6593116000004	0.4995	sub-06	1	localizer	stimulus	Stuhl	NaN	0	2.585470600000008	NaN	True	NaN	NaN	NaN	NaN	NaN	NaN	NaN
681.1422019000001	2.5855	sub-06	1	localizer	blank	interval	NaN	NaN	NaN	NaN	NaN	NaN	NaN	NaN	NaN	NaN	NaN	NaN
684.0288686000004	0.4994	sub-06	1	localizer	stimulus	Gesicht	NaN	0	2.235073000000739	NaN	True	NaN	NaN	NaN	NaN	NaN	NaN	NaN
684.5117455999998	2.2351	sub-06	1	localizer	blank	interval	NaN	NaN	NaN	NaN	NaN	NaN	NaN	NaN	NaN	NaN	NaN	NaN
687.0479518000002	0.4993	sub-06	1	localizer	stimulus	Schuh	NaN	0	2.1682164000003468	-9.502958899999612	False	NaN	NaN	NaN	NaN	NaN	NaN	NaN
687.5307806000001	2.1682	sub-06	1	localizer	blank	interval	NaN	NaN	NaN	NaN	NaN	NaN	NaN	NaN	NaN	NaN	NaN	NaN
690.0001996999999	0.4994	sub-06	1	localizer	stimulus	Katze	NaN	0	3.102441500000168	NaN	True	NaN	NaN	NaN	NaN	NaN	NaN	NaN
690.4831155000002	3.1024	sub-06	1	localizer	blank	interval	NaN	NaN	NaN	NaN	NaN	NaN	NaN	NaN	NaN	NaN	NaN	NaN
693.8867907000003	0.4995	sub-06	1	localizer	stimulus	Haus	NaN	0	1.9014208000007784	NaN	True	NaN	NaN	NaN	NaN	NaN	NaN	NaN
694.3697708999998	1.9014	sub-06	1	localizer	blank	interval	NaN	NaN	NaN	NaN	NaN	NaN	NaN	NaN	NaN	NaN	NaN	NaN
696.5723320000006	0.4993	sub-06	1	localizer	stimulus	Gesicht	NaN	0	2.885768399999506	NaN	True	NaN	NaN	NaN	NaN	NaN	NaN	NaN
697.0550913000006	2.8858	sub-06	1	localizer	blank	interval	NaN	NaN	NaN	NaN	NaN	NaN	NaN	NaN	NaN	NaN	NaN	NaN
700.2419725999998	0.4994	sub-06	1	localizer	stimulus	Katze	NaN	0	1.2006029000003764	NaN	True	NaN	NaN	NaN	NaN	NaN	NaN	NaN
700.7249566	1.2006	sub-06	1	localizer	blank	interval	NaN	NaN	NaN	NaN	NaN	NaN	NaN	NaN	NaN	NaN	NaN	NaN
702.2267182000005	0.4995	sub-06	1	localizer	stimulus	Schuh	NaN	0	2.0181662999993932	NaN	True	NaN	NaN	NaN	NaN	NaN	NaN	NaN
702.7096526000005	2.0182	sub-06	1	localizer	blank	interval	NaN	NaN	NaN	NaN	NaN	NaN	NaN	NaN	NaN	NaN	NaN	NaN
705.0291520999999	0.4994	sub-06	1	localizer	stimulus	Haus	NaN	0	2.752163699999983	NaN	True	NaN	NaN	NaN	NaN	NaN	NaN	NaN
705.5120806000004	2.7522	sub-06	1	localizer	blank	interval	NaN	NaN	NaN	NaN	NaN	NaN	NaN	NaN	NaN	NaN	NaN	NaN
708.5651943000003	0.4994	sub-06	1	localizer	stimulus	Haus	NaN	0	2.218166900000142	NaN	True	NaN	NaN	NaN	NaN	NaN	NaN	NaN
709.0482344000002	2.2182	sub-06	1	localizer	blank	interval	NaN	NaN	NaN	NaN	NaN	NaN	NaN	NaN	NaN	NaN	NaN	NaN
711.5675245000002	0.4996	sub-06	1	localizer	stimulus	Schuh	NaN	0	2.4686994000003324	NaN	True	NaN	NaN	NaN	NaN	NaN	NaN	NaN
712.0505186	2.4687	sub-06	1	localizer	blank	interval	NaN	NaN	NaN	NaN	NaN	NaN	NaN	NaN	NaN	NaN	NaN	NaN
714.8202719000001	0.4996	sub-06	1	localizer	stimulus	Stuhl	NaN	0	2.368349600000329	NaN	True	NaN	NaN	NaN	NaN	NaN	NaN	NaN
715.3033560000003	2.3683	sub-06	1	localizer	blank	interval	NaN	NaN	NaN	NaN	NaN	NaN	NaN	NaN	NaN	NaN	NaN	NaN
717.9727296000001	0.4996	sub-06	1	localizer	stimulus	Stuhl	NaN	180	3.1357746000003317	-9.18004380000002	True	NaN	NaN	NaN	NaN	NaN	NaN	NaN
718.4557242000001	3.1358	sub-06	1	localizer	blank	interval	NaN	NaN	NaN	NaN	NaN	NaN	NaN	NaN	NaN	NaN	NaN	NaN
721.8926058000006	0.4996	sub-06	1	localizer	stimulus	Katze	NaN	0	2.6353305000002365	NaN	True	NaN	NaN	NaN	NaN	NaN	NaN	NaN
722.3755467000001	2.6353	sub-06	1	localizer	blank	interval	NaN	NaN	NaN	NaN	NaN	NaN	NaN	NaN	NaN	NaN	NaN	NaN
725.3122395999999	0.4994	sub-06	1	localizer	stimulus	Gesicht	NaN	0	2.4187784000005195	NaN	True	NaN	NaN	NaN	NaN	NaN	NaN	NaN
725.7950437	2.4188	sub-06	1	localizer	blank	interval	NaN	NaN	NaN	NaN	NaN	NaN	NaN	NaN	NaN	NaN	NaN	NaN
728.5149605000006	0.4995	sub-06	1	localizer	stimulus	Stuhl	NaN	0	2.418334500000128	NaN	True	NaN	NaN	NaN	NaN	NaN	NaN	NaN
728.9978562000006	2.4183	sub-06	1	localizer	blank	interval	NaN	NaN	NaN	NaN	NaN	NaN	NaN	NaN	NaN	NaN	NaN	NaN
731.7171961000004	0.4997	sub-06	1	localizer	stimulus	Schuh	NaN	180	2.4686711000003925	-9.348153099999765	True	NaN	NaN	NaN	NaN	NaN	NaN	NaN
732.2002191000001	2.4687	sub-06	1	localizer	blank	interval	NaN	NaN	NaN	NaN	NaN	NaN	NaN	NaN	NaN	NaN	NaN	NaN
734.9698621000007	0.4997	sub-06	1	localizer	stimulus	Schuh	NaN	0	2.35165330000018	NaN	True	NaN	NaN	NaN	NaN	NaN	NaN	NaN
735.4528934	2.3517	sub-06	1	localizer	blank	interval	NaN	NaN	NaN	NaN	NaN	NaN	NaN	NaN	NaN	NaN	NaN	NaN
741.2911404000006	1.0006	sub-06	1	sequence	cue	Gesicht	NaN	NaN	NaN	NaN	NaN	NaN	NaN	NaN	NaN	NaN	NaN	NaN
742.2917064000003	2.0015	sub-06	1	sequence	blank	blank	NaN	NaN	NaN	NaN	NaN	NaN	NaN	NaN	NaN	NaN	NaN	NaN
744.2932062	0.3003	sub-06	1	sequence	fixation	dot	NaN	NaN	NaN	NaN	NaN	NaN	NaN	NaN	NaN	NaN	NaN	NaN
744.6119637000002	0.1149	sub-06	1	sequence	stimulus	Haus	NaN	NaN	32.0	NaN	NaN	2.0	1.0	NaN	NaN	NaN	NaN	NaN
744.7268621000003	0.0334	sub-06	1	sequence	interval	dot	NaN	NaN	NaN	NaN	NaN	NaN	NaN	NaN	NaN	NaN	NaN	NaN
744.7603104	0.1	sub-06	1	sequence	stimulus	Stuhl	NaN	NaN	32.0	NaN	NaN	5.0	2.0	NaN	NaN	NaN	NaN	NaN
744.8602766000004	0.0335	sub-06	1	sequence	interval	dot	NaN	NaN	NaN	NaN	NaN	NaN	NaN	NaN	NaN	NaN	NaN	NaN
744.8937753999999	0.0999	sub-06	1	sequence	stimulus	Schuh	NaN	NaN	32.0	NaN	NaN	4.0	3.0	NaN	NaN	NaN	NaN	NaN
744.9937071000004	0.0335	sub-06	1	sequence	interval	dot	NaN	NaN	NaN	NaN	NaN	NaN	NaN	NaN	NaN	NaN	NaN	NaN
745.0272203000004	0.0999	sub-06	1	sequence	stimulus	Gesicht	NaN	NaN	32.0	NaN	NaN	1.0	4.0	NaN	NaN	NaN	NaN	NaN
745.1271606	0.0334	sub-06	1	sequence	interval	dot	NaN	NaN	NaN	NaN	NaN	NaN	NaN	NaN	NaN	NaN	NaN	NaN
745.1606098000002	0.1	sub-06	1	sequence	stimulus	Katze	NaN	NaN	32.0	NaN	NaN	3.0	5.0	NaN	NaN	NaN	NaN	NaN
745.2606247000003	0.0333	sub-06	1	sequence	interval	dot	NaN	NaN	NaN	NaN	NaN	NaN	NaN	NaN	NaN	NaN	NaN	NaN
745.2939701000005	8.5387	sub-06	1	sequence	delay	dot	NaN	NaN	NaN	NaN	NaN	NaN	NaN	NaN	NaN	NaN	NaN	NaN
753.8117796000006	1.0741	sub-06	1	sequence	choice	choice	left	NaN	NaN	-8.9752225000002	True	NaN	NaN	left	True	4.0	5.0	4.0
754.8862709000005	0.4995	sub-06	1	sequence	feedback	NaN	NaN	NaN	NaN	NaN	NaN	NaN	NaN	NaN	NaN	NaN	NaN	NaN
755.3860029000007	1.0005	sub-06	1	sequence	cue	Katze	NaN	NaN	NaN	NaN	NaN	NaN	NaN	NaN	NaN	NaN	NaN	NaN
756.3865113000002	2.0014	sub-06	1	sequence	blank	blank	NaN	NaN	NaN	NaN	NaN	NaN	NaN	NaN	NaN	NaN	NaN	NaN
758.3879403000001	0.3002	sub-06	1	sequence	fixation	dot	NaN	NaN	NaN	NaN	NaN	NaN	NaN	NaN	NaN	NaN	NaN	NaN
758.7056553000002	0.0992	sub-06	1	sequence	stimulus	Gesicht	NaN	NaN	32.0	NaN	NaN	1.0	1.0	NaN	NaN	NaN	NaN	NaN
758.8048843000006	0.0335	sub-06	1	sequence	interval	dot	NaN	NaN	NaN	NaN	NaN	NaN	NaN	NaN	NaN	NaN	NaN	NaN
758.8383640000002	0.1	sub-06	1	sequence	stimulus	Stuhl	NaN	NaN	32.0	NaN	NaN	5.0	2.0	NaN	NaN	NaN	NaN	NaN
758.9383296000005	0.0335	sub-06	1	sequence	interval	dot	NaN	NaN	NaN	NaN	NaN	NaN	NaN	NaN	NaN	NaN	NaN	NaN
758.9717873	0.1	sub-06	1	sequence	stimulus	Schuh	NaN	NaN	32.0	NaN	NaN	4.0	3.0	NaN	NaN	NaN	NaN	NaN
759.0717903000004	0.0335	sub-06	1	sequence	interval	dot	NaN	NaN	NaN	NaN	NaN	NaN	NaN	NaN	NaN	NaN	NaN	NaN
759.1052472000001	0.1	sub-06	1	sequence	stimulus	Katze	NaN	NaN	32.0	NaN	NaN	3.0	4.0	NaN	NaN	NaN	NaN	NaN
759.2052148000002	0.0336	sub-06	1	sequence	interval	dot	NaN	NaN	NaN	NaN	NaN	NaN	NaN	NaN	NaN	NaN	NaN	NaN
759.2387935000006	0.0999	sub-06	1	sequence	stimulus	Haus	NaN	NaN	32.0	NaN	NaN	2.0	5.0	NaN	NaN	NaN	NaN	NaN
759.3386862000007	0.0335	sub-06	1	sequence	interval	dot	NaN	NaN	NaN	NaN	NaN	NaN	NaN	NaN	NaN	NaN	NaN	NaN
759.3722103999999	8.5218	sub-06	1	sequence	delay	dot	NaN	NaN	NaN	NaN	NaN	NaN	NaN	NaN	NaN	NaN	NaN	NaN
767.8774941000001	1.0197	sub-06	1	sequence	choice	choice	right	NaN	NaN	-9.02886479999961	True	NaN	NaN	right	True	5.0	4.0	4.0
768.8974994	0.4996	sub-06	1	sequence	feedback	NaN	NaN	NaN	NaN	NaN	NaN	NaN	NaN	NaN	NaN	NaN	NaN	NaN
769.3973476000001	1.0004	sub-06	1	sequence	cue	Schuh	NaN	NaN	NaN	NaN	NaN	NaN	NaN	NaN	NaN	NaN	NaN	NaN
770.3977954000002	2.0016	sub-06	1	sequence	blank	blank	NaN	NaN	NaN	NaN	NaN	NaN	NaN	NaN	NaN	NaN	NaN	NaN
772.3993927000001	0.3002	sub-06	1	sequence	fixation	dot	NaN	NaN	NaN	NaN	NaN	NaN	NaN	NaN	NaN	NaN	NaN	NaN
772.7183028	0.1147	sub-06	1	sequence	stimulus	Stuhl	NaN	NaN	512.0	NaN	NaN	5.0	1.0	NaN	NaN	NaN	NaN	NaN
772.8329809000006	0.5172	sub-06	1	sequence	interval	dot	NaN	NaN	NaN	NaN	NaN	NaN	NaN	NaN	NaN	NaN	NaN	NaN
773.3502096000002	0.0999	sub-06	1	sequence	stimulus	Katze	NaN	NaN	512.0	NaN	NaN	3.0	2.0	NaN	NaN	NaN	NaN	NaN
773.4500778000001	0.5172	sub-06	1	sequence	interval	dot	NaN	NaN	NaN	NaN	NaN	NaN	NaN	NaN	NaN	NaN	NaN	NaN
773.9672796000004	0.0999	sub-06	1	sequence	stimulus	Gesicht	NaN	NaN	512.0	NaN	NaN	1.0	3.0	NaN	NaN	NaN	NaN	NaN
774.0672101999999	0.5173	sub-06	1	sequence	interval	dot	NaN	NaN	NaN	NaN	NaN	NaN	NaN	NaN	NaN	NaN	NaN	NaN
774.5845521000001	0.1	sub-06	1	sequence	stimulus	Schuh	NaN	NaN	512.0	NaN	NaN	4.0	4.0	NaN	NaN	NaN	NaN	NaN
774.6845850999998	0.5172	sub-06	1	sequence	interval	dot	NaN	NaN	NaN	NaN	NaN	NaN	NaN	NaN	NaN	NaN	NaN	NaN
775.2018291000004	0.1	sub-06	1	sequence	stimulus	Haus	NaN	NaN	512.0	NaN	NaN	2.0	5.0	NaN	NaN	NaN	NaN	NaN
775.3018030000003	0.517	sub-06	1	sequence	interval	dot	NaN	NaN	NaN	NaN	NaN	NaN	NaN	NaN	NaN	NaN	NaN	NaN
775.8187653000005	6.1367	sub-06	1	sequence	delay	dot	NaN	NaN	NaN	NaN	NaN	NaN	NaN	NaN	NaN	NaN	NaN	NaN
781.9432468000005	2.1662	sub-06	1	sequence	choice	choice	right	NaN	NaN	-7.874509899999794	True	NaN	NaN	right	True	3.0	4.0	4.0
784.1097040000004	0.4997	sub-06	1	sequence	feedback	NaN	NaN	NaN	NaN	NaN	NaN	NaN	NaN	NaN	NaN	NaN	NaN	NaN
784.6095911000002	1.0004	sub-06	1	sequence	cue	Katze	NaN	NaN	NaN	NaN	NaN	NaN	NaN	NaN	NaN	NaN	NaN	NaN
785.6099824000003	2.0016	sub-06	1	sequence	blank	blank	NaN	NaN	NaN	NaN	NaN	NaN	NaN	NaN	NaN	NaN	NaN	NaN
787.6116283000001	0.3003	sub-06	1	sequence	fixation	dot	NaN	NaN	NaN	NaN	NaN	NaN	NaN	NaN	NaN	NaN	NaN	NaN
787.9302011	0.115	sub-06	1	sequence	stimulus	Gesicht	NaN	NaN	64.0	NaN	NaN	1.0	1.0	NaN	NaN	NaN	NaN	NaN
788.0452173000003	0.0668	sub-06	1	sequence	interval	dot	NaN	NaN	NaN	NaN	NaN	NaN	NaN	NaN	NaN	NaN	NaN	NaN
788.1120452000005	0.1	sub-06	1	sequence	stimulus	Schuh	NaN	NaN	64.0	NaN	NaN	4.0	2.0	NaN	NaN	NaN	NaN	NaN
788.2120179000003	0.0668	sub-06	1	sequence	interval	dot	NaN	NaN	NaN	NaN	NaN	NaN	NaN	NaN	NaN	NaN	NaN	NaN
788.2787828	0.1001	sub-06	1	sequence	stimulus	Katze	NaN	NaN	64.0	NaN	NaN	3.0	3.0	NaN	NaN	NaN	NaN	NaN
788.3788660999999	0.0668	sub-06	1	sequence	interval	dot	NaN	NaN	NaN	NaN	NaN	NaN	NaN	NaN	NaN	NaN	NaN	NaN
788.4456816000002	0.0999	sub-06	1	sequence	stimulus	Haus	NaN	NaN	64.0	NaN	NaN	2.0	4.0	NaN	NaN	NaN	NaN	NaN
788.5456129000004	0.0669	sub-06	1	sequence	interval	dot	NaN	NaN	NaN	NaN	NaN	NaN	NaN	NaN	NaN	NaN	NaN	NaN
788.6124810000001	0.1	sub-06	1	sequence	stimulus	Stuhl	NaN	NaN	64.0	NaN	NaN	5.0	5.0	NaN	NaN	NaN	NaN	NaN
788.7124733999999	0.0667	sub-06	1	sequence	interval	dot	NaN	NaN	NaN	NaN	NaN	NaN	NaN	NaN	NaN	NaN	NaN	NaN
788.7791729	8.3721	sub-06	1	sequence	delay	dot	NaN	NaN	NaN	NaN	NaN	NaN	NaN	NaN	NaN	NaN	NaN	NaN
797.1268104000001	1.3441	sub-06	1	sequence	choice	choice	left	NaN	NaN	-8.71773420000045	True	NaN	NaN	left	True	3.0	5.0	3.0
798.4711888000002	0.4998	sub-06	1	sequence	feedback	NaN	NaN	NaN	NaN	NaN	NaN	NaN	NaN	NaN	NaN	NaN	NaN	NaN
798.9712503999999	1.0004	sub-06	1	sequence	cue	Gesicht	NaN	NaN	NaN	NaN	NaN	NaN	NaN	NaN	NaN	NaN	NaN	NaN
799.9716116	2.0015	sub-06	1	sequence	blank	blank	NaN	NaN	NaN	NaN	NaN	NaN	NaN	NaN	NaN	NaN	NaN	NaN
801.9731087999999	0.3003	sub-06	1	sequence	fixation	dot	NaN	NaN	NaN	NaN	NaN	NaN	NaN	NaN	NaN	NaN	NaN	NaN
802.2908774000007	0.0992	sub-06	1	sequence	stimulus	Katze	NaN	NaN	128.0	NaN	NaN	3.0	1.0	NaN	NaN	NaN	NaN	NaN
802.3900960000001	0.1336	sub-06	1	sequence	interval	dot	NaN	NaN	NaN	NaN	NaN	NaN	NaN	NaN	NaN	NaN	NaN	NaN
802.5237432000004	0.1	sub-06	1	sequence	stimulus	Schuh	NaN	NaN	128.0	NaN	NaN	4.0	2.0	NaN	NaN	NaN	NaN	NaN
802.6236976999999	0.1336	sub-06	1	sequence	interval	dot	NaN	NaN	NaN	NaN	NaN	NaN	NaN	NaN	NaN	NaN	NaN	NaN
802.7572854999999	0.0999	sub-06	1	sequence	stimulus	Haus	NaN	NaN	128.0	NaN	NaN	2.0	3.0	NaN	NaN	NaN	NaN	NaN
802.8571533000004	0.1336	sub-06	1	sequence	interval	dot	NaN	NaN	NaN	NaN	NaN	NaN	NaN	NaN	NaN	NaN	NaN	NaN
802.9907088	0.1	sub-06	1	sequence	stimulus	Gesicht	NaN	NaN	128.0	NaN	NaN	1.0	4.0	NaN	NaN	NaN	NaN	NaN
803.0906675000006	0.1336	sub-06	1	sequence	interval	dot	NaN	NaN	NaN	NaN	NaN	NaN	NaN	NaN	NaN	NaN	NaN	NaN
803.2242532999999	0.0999	sub-06	1	sequence	stimulus	Stuhl	NaN	NaN	128.0	NaN	NaN	5.0	5.0	NaN	NaN	NaN	NaN	NaN
803.3241874000005	0.1334	sub-06	1	sequence	interval	dot	NaN	NaN	NaN	NaN	NaN	NaN	NaN	NaN	NaN	NaN	NaN	NaN
803.4576357000005	8.0719	sub-06	1	sequence	delay	dot	NaN	NaN	NaN	NaN	NaN	NaN	NaN	NaN	NaN	NaN	NaN	NaN
811.5044527999999	1.2449	sub-06	1	sequence	choice	choice	left	NaN	NaN	-8.815961700000116	True	NaN	NaN	left	True	4.0	3.0	4.0
812.7496527000003	0.4997	sub-06	1	sequence	feedback	NaN	NaN	NaN	NaN	NaN	NaN	NaN	NaN	NaN	NaN	NaN	NaN	NaN
813.2495496000001	1.0002	sub-06	1	sequence	cue	Stuhl	NaN	NaN	NaN	NaN	NaN	NaN	NaN	NaN	NaN	NaN	NaN	NaN
814.2497791000005	2.0017	sub-06	1	sequence	blank	blank	NaN	NaN	NaN	NaN	NaN	NaN	NaN	NaN	NaN	NaN	NaN	NaN
816.2514400999999	0.3004	sub-06	1	sequence	fixation	dot	NaN	NaN	NaN	NaN	NaN	NaN	NaN	NaN	NaN	NaN	NaN	NaN
816.5694530000001	0.099	sub-06	1	sequence	stimulus	Schuh	NaN	NaN	512.0	NaN	NaN	4.0	1.0	NaN	NaN	NaN	NaN	NaN
816.6684171000006	0.5173	sub-06	1	sequence	interval	dot	NaN	NaN	NaN	NaN	NaN	NaN	NaN	NaN	NaN	NaN	NaN	NaN
817.1857150000005	0.1	sub-06	1	sequence	stimulus	Katze	NaN	NaN	512.0	NaN	NaN	3.0	2.0	NaN	NaN	NaN	NaN	NaN
817.2857211	0.5171	sub-06	1	sequence	interval	dot	NaN	NaN	NaN	NaN	NaN	NaN	NaN	NaN	NaN	NaN	NaN	NaN
817.8028353	0.0999	sub-06	1	sequence	stimulus	Gesicht	NaN	NaN	512.0	NaN	NaN	1.0	3.0	NaN	NaN	NaN	NaN	NaN
817.9027610000003	0.517	sub-06	1	sequence	interval	dot	NaN	NaN	NaN	NaN	NaN	NaN	NaN	NaN	NaN	NaN	NaN	NaN
818.4198049000006	0.1	sub-06	1	sequence	stimulus	Stuhl	NaN	NaN	512.0	NaN	NaN	5.0	4.0	NaN	NaN	NaN	NaN	NaN
818.5198479999999	0.5172	sub-06	1	sequence	interval	dot	NaN	NaN	NaN	NaN	NaN	NaN	NaN	NaN	NaN	NaN	NaN	NaN
819.0370561999998	0.1	sub-06	1	sequence	stimulus	Haus	NaN	NaN	512.0	NaN	NaN	2.0	5.0	NaN	NaN	NaN	NaN	NaN
819.1370205000003	0.517	sub-06	1	sequence	interval	dot	NaN	NaN	NaN	NaN	NaN	NaN	NaN	NaN	NaN	NaN	NaN	NaN
819.6540691	6.1368	sub-06	1	sequence	delay	dot	NaN	NaN	NaN	NaN	NaN	NaN	NaN	NaN	NaN	NaN	NaN	NaN
825.7781856000001	1.316	sub-06	1	sequence	choice	choice	left	NaN	NaN	-8.733405199999652	True	NaN	NaN	left	True	4.0	3.0	4.0
827.0944140000001	0.4996	sub-06	1	sequence	feedback	NaN	NaN	NaN	NaN	NaN	NaN	NaN	NaN	NaN	NaN	NaN	NaN	NaN
827.594231	1.0006	sub-06	1	sequence	cue	Haus	NaN	NaN	NaN	NaN	NaN	NaN	NaN	NaN	NaN	NaN	NaN	NaN
828.5948208999998	2.0015	sub-06	1	sequence	blank	blank	NaN	NaN	NaN	NaN	NaN	NaN	NaN	NaN	NaN	NaN	NaN	NaN
830.5963319000002	0.3003	sub-06	1	sequence	fixation	dot	NaN	NaN	NaN	NaN	NaN	NaN	NaN	NaN	NaN	NaN	NaN	NaN
830.9149647000004	0.1151	sub-06	1	sequence	stimulus	Gesicht	NaN	NaN	64.0	NaN	NaN	1.0	1.0	NaN	NaN	NaN	NaN	NaN
831.0300575000001	0.0668	sub-06	1	sequence	interval	dot	NaN	NaN	NaN	NaN	NaN	NaN	NaN	NaN	NaN	NaN	NaN	NaN
831.0968501000007	0.1	sub-06	1	sequence	stimulus	Katze	NaN	NaN	64.0	NaN	NaN	3.0	2.0	NaN	NaN	NaN	NaN	NaN
831.1968827999999	0.0668	sub-06	1	sequence	interval	dot	NaN	NaN	NaN	NaN	NaN	NaN	NaN	NaN	NaN	NaN	NaN	NaN
831.2637253000003	0.0999	sub-06	1	sequence	stimulus	Stuhl	NaN	NaN	64.0	NaN	NaN	5.0	3.0	NaN	NaN	NaN	NaN	NaN
831.3636301000006	0.0669	sub-06	1	sequence	interval	dot	NaN	NaN	NaN	NaN	NaN	NaN	NaN	NaN	NaN	NaN	NaN	NaN
831.4305385000007	0.0999	sub-06	1	sequence	stimulus	Haus	NaN	NaN	64.0	NaN	NaN	2.0	4.0	NaN	NaN	NaN	NaN	NaN
831.5304789000002	0.0669	sub-06	1	sequence	interval	dot	NaN	NaN	NaN	NaN	NaN	NaN	NaN	NaN	NaN	NaN	NaN	NaN
831.5974139	0.0999	sub-06	1	sequence	stimulus	Schuh	NaN	NaN	64.0	NaN	NaN	4.0	5.0	NaN	NaN	NaN	NaN	NaN
831.6972795000001	0.0667	sub-06	1	sequence	interval	dot	NaN	NaN	NaN	NaN	NaN	NaN	NaN	NaN	NaN	NaN	NaN	NaN
831.7640188000005	8.3884	sub-06	1	sequence	delay	dot	NaN	NaN	NaN	NaN	NaN	NaN	NaN	NaN	NaN	NaN	NaN	NaN
840.1299035000002	1.109	sub-06	1	sequence	choice	choice	right	NaN	NaN	-8.94295239999974	True	NaN	NaN	right	True	2.0	4.0	4.0
841.2391652000006	0.4996	sub-06	1	sequence	feedback	NaN	NaN	NaN	NaN	NaN	NaN	NaN	NaN	NaN	NaN	NaN	NaN	NaN
841.7390155000003	1.0004	sub-06	1	sequence	cue	Stuhl	NaN	NaN	NaN	NaN	NaN	NaN	NaN	NaN	NaN	NaN	NaN	NaN
842.7394221000004	2.0016	sub-06	1	sequence	blank	blank	NaN	NaN	NaN	NaN	NaN	NaN	NaN	NaN	NaN	NaN	NaN	NaN
844.7410217000006	0.3003	sub-06	1	sequence	fixation	dot	NaN	NaN	NaN	NaN	NaN	NaN	NaN	NaN	NaN	NaN	NaN	NaN
845.0588633000007	0.0992	sub-06	1	sequence	stimulus	Katze	NaN	NaN	128.0	NaN	NaN	3.0	1.0	NaN	NaN	NaN	NaN	NaN
845.1580854000003	0.1335	sub-06	1	sequence	interval	dot	NaN	NaN	NaN	NaN	NaN	NaN	NaN	NaN	NaN	NaN	NaN	NaN
845.2915878000003	0.1	sub-06	1	sequence	stimulus	Gesicht	NaN	NaN	128.0	NaN	NaN	1.0	2.0	NaN	NaN	NaN	NaN	NaN
845.3915870999999	0.1335	sub-06	1	sequence	interval	dot	NaN	NaN	NaN	NaN	NaN	NaN	NaN	NaN	NaN	NaN	NaN	NaN
845.5250833999999	0.1	sub-06	1	sequence	stimulus	Schuh	NaN	NaN	128.0	NaN	NaN	4.0	3.0	NaN	NaN	NaN	NaN	NaN
845.6250895000003	0.1335	sub-06	1	sequence	interval	dot	NaN	NaN	NaN	NaN	NaN	NaN	NaN	NaN	NaN	NaN	NaN	NaN
845.7586123000001	0.1	sub-06	1	sequence	stimulus	Stuhl	NaN	NaN	128.0	NaN	NaN	5.0	4.0	NaN	NaN	NaN	NaN	NaN
845.8585988000004	0.1336	sub-06	1	sequence	interval	dot	NaN	NaN	NaN	NaN	NaN	NaN	NaN	NaN	NaN	NaN	NaN	NaN
845.9921847000005	0.0999	sub-06	1	sequence	stimulus	Haus	NaN	NaN	128.0	NaN	NaN	2.0	5.0	NaN	NaN	NaN	NaN	NaN
846.0921102000002	0.1335	sub-06	1	sequence	interval	dot	NaN	NaN	NaN	NaN	NaN	NaN	NaN	NaN	NaN	NaN	NaN	NaN
846.2255703000001	8.0719	sub-06	1	sequence	delay	dot	NaN	NaN	NaN	NaN	NaN	NaN	NaN	NaN	NaN	NaN	NaN	NaN
854.2736211000001	1.1768	sub-06	1	sequence	choice	choice	right	NaN	NaN	-8.880226399999628	True	NaN	NaN	right	True	5.0	4.0	4.0
855.4507315999999	0.4997	sub-06	1	sequence	feedback	NaN	NaN	NaN	NaN	NaN	NaN	NaN	NaN	NaN	NaN	NaN	NaN	NaN
855.9507210000002	25.6873	sub-06	1	other	break	break	NaN	NaN	NaN	NaN	NaN	NaN	NaN	NaN	NaN	NaN	NaN	NaN
885.4748106000006	0.4995	sub-06	1	localizer	stimulus	Schuh	NaN	0	2.451949600000262	NaN	True	NaN	NaN	NaN	NaN	NaN	NaN	NaN
885.9577681000001	2.4519	sub-06	1	localizer	blank	interval	NaN	NaN	NaN	NaN	NaN	NaN	NaN	NaN	NaN	NaN	NaN	NaN
888.7107945000007	0.4994	sub-06	1	localizer	stimulus	Haus	NaN	0	2.968982899999901	NaN	True	NaN	NaN	NaN	NaN	NaN	NaN	NaN
889.1936691000001	2.969	sub-06	1	localizer	blank	interval	NaN	NaN	NaN	NaN	NaN	NaN	NaN	NaN	NaN	NaN	NaN	NaN
892.4640880000006	0.4993	sub-06	1	localizer	stimulus	Haus	NaN	180	3.152669899999637	-9.303328899999542	True	NaN	NaN	NaN	NaN	NaN	NaN	NaN
892.9468604000003	3.1527	sub-06	1	localizer	blank	interval	NaN	NaN	NaN	NaN	NaN	NaN	NaN	NaN	NaN	NaN	NaN	NaN
896.4005531000003	0.4995	sub-06	1	localizer	stimulus	Schuh	NaN	0	2.0677150000001348	NaN	True	NaN	NaN	NaN	NaN	NaN	NaN	NaN
896.8838059999998	2.0677	sub-06	1	localizer	blank	interval	NaN	NaN	NaN	NaN	NaN	NaN	NaN	NaN	NaN	NaN	NaN	NaN
899.2526533999999	0.4995	sub-06	1	localizer	stimulus	Katze	NaN	180	2.9689307999997254	-9.171923899999456	True	NaN	NaN	NaN	NaN	NaN	NaN	NaN
899.7355671000005	2.9689	sub-06	1	localizer	blank	interval	NaN	NaN	NaN	NaN	NaN	NaN	NaN	NaN	NaN	NaN	NaN	NaN
903.0056341	0.4995	sub-06	1	localizer	stimulus	Schuh	NaN	0	2.4185270999996646	NaN	True	NaN	NaN	NaN	NaN	NaN	NaN	NaN
903.4885609000004	2.4185	sub-06	1	localizer	blank	interval	NaN	NaN	NaN	NaN	NaN	NaN	NaN	NaN	NaN	NaN	NaN	NaN
906.2082403000004	0.4995	sub-06	1	localizer	stimulus	Gesicht	NaN	180	2.7520025000003443	-9.38310570000067	True	NaN	NaN	NaN	NaN	NaN	NaN	NaN
906.6912595000005	2.752	sub-06	1	localizer	blank	interval	NaN	NaN	NaN	NaN	NaN	NaN	NaN	NaN	NaN	NaN	NaN	NaN
909.7444308000004	0.4995	sub-06	1	localizer	stimulus	Gesicht	NaN	0	2.6518888000000516	NaN	True	NaN	NaN	NaN	NaN	NaN	NaN	NaN
910.2275404000002	2.6519	sub-06	1	localizer	blank	interval	NaN	NaN	NaN	NaN	NaN	NaN	NaN	NaN	NaN	NaN	NaN	NaN
913.1808198	0.4993	sub-06	1	localizer	stimulus	Stuhl	NaN	0	2.284593599999198	NaN	True	NaN	NaN	NaN	NaN	NaN	NaN	NaN
913.6642095000008	2.2846	sub-06	1	localizer	blank	interval	NaN	NaN	NaN	NaN	NaN	NaN	NaN	NaN	NaN	NaN	NaN	NaN
916.2497939000004	0.4997	sub-06	1	localizer	stimulus	Katze	NaN	0	3.1854819000000134	NaN	True	NaN	NaN	NaN	NaN	NaN	NaN	NaN
916.7329235000008	3.1855	sub-06	1	localizer	blank	interval	NaN	NaN	NaN	NaN	NaN	NaN	NaN	NaN	NaN	NaN	NaN	NaN
920.2195301000002	0.4996	sub-06	1	localizer	stimulus	Katze	NaN	0	2.0181140999995932	NaN	True	NaN	NaN	NaN	NaN	NaN	NaN	NaN
920.7025748000004	2.0181	sub-06	1	localizer	blank	interval	NaN	NaN	NaN	NaN	NaN	NaN	NaN	NaN	NaN	NaN	NaN	NaN
923.0217860000002	0.4995	sub-06	1	localizer	stimulus	Haus	NaN	0	3.6027121000007583	NaN	True	NaN	NaN	NaN	NaN	NaN	NaN	NaN
923.5048354	3.6027	sub-06	1	localizer	blank	interval	NaN	NaN	NaN	NaN	NaN	NaN	NaN	NaN	NaN	NaN	NaN	NaN
927.4087596	0.4994	sub-06	1	localizer	stimulus	Katze	NaN	0	1.3844542000006186	NaN	True	NaN	NaN	NaN	NaN	NaN	NaN	NaN
927.8915883999998	1.3845	sub-06	1	localizer	blank	interval	NaN	NaN	NaN	NaN	NaN	NaN	NaN	NaN	NaN	NaN	NaN	NaN
929.5772647000005	0.4993	sub-06	1	localizer	stimulus	Gesicht	NaN	0	2.385147800000368	NaN	True	NaN	NaN	NaN	NaN	NaN	NaN	NaN
930.0601533	2.3851	sub-06	1	localizer	blank	interval	NaN	NaN	NaN	NaN	NaN	NaN	NaN	NaN	NaN	NaN	NaN	NaN
932.7463747000002	0.4995	sub-06	1	localizer	stimulus	Katze	NaN	0	2.5521564000001717	NaN	True	NaN	NaN	NaN	NaN	NaN	NaN	NaN
933.2294227000002	2.5522	sub-06	1	localizer	blank	interval	NaN	NaN	NaN	NaN	NaN	NaN	NaN	NaN	NaN	NaN	NaN	NaN
936.0825441000006	0.4997	sub-06	1	localizer	stimulus	Stuhl	NaN	0	2.6350873000000092	NaN	True	NaN	NaN	NaN	NaN	NaN	NaN	NaN
936.5656716000004	2.6351	sub-06	1	localizer	blank	interval	NaN	NaN	NaN	NaN	NaN	NaN	NaN	NaN	NaN	NaN	NaN	NaN
939.5018184	0.4996	sub-06	1	localizer	stimulus	Schuh	NaN	180	3.4027243999997836	-9.308355500000289	True	NaN	NaN	NaN	NaN	NaN	NaN	NaN
939.9847656000002	3.4027	sub-06	1	localizer	blank	interval	NaN	NaN	NaN	NaN	NaN	NaN	NaN	NaN	NaN	NaN	NaN	NaN
943.688607	0.4996	sub-06	1	localizer	stimulus	Schuh	NaN	0	2.501839299999915	NaN	True	NaN	NaN	NaN	NaN	NaN	NaN	NaN
944.1715936	2.5018	sub-06	1	localizer	blank	interval	NaN	NaN	NaN	NaN	NaN	NaN	NaN	NaN	NaN	NaN	NaN	NaN
946.9744636000004	0.4996	sub-06	1	localizer	stimulus	Stuhl	NaN	0	2.8354329000003418	NaN	True	NaN	NaN	NaN	NaN	NaN	NaN	NaN
947.4575658000005	2.8354	sub-06	1	localizer	blank	interval	NaN	NaN	NaN	NaN	NaN	NaN	NaN	NaN	NaN	NaN	NaN	NaN
950.5941458000008	0.4995	sub-06	1	localizer	stimulus	Haus	NaN	0	2.768638199999259	NaN	True	NaN	NaN	NaN	NaN	NaN	NaN	NaN
951.0771963000008	2.7686	sub-06	1	localizer	blank	interval	NaN	NaN	NaN	NaN	NaN	NaN	NaN	NaN	NaN	NaN	NaN	NaN
954.1471032	0.4995	sub-06	1	localizer	stimulus	Stuhl	NaN	180	2.735770699999989	-9.40212960000008	True	NaN	NaN	NaN	NaN	NaN	NaN	NaN
954.6299556000004	2.7358	sub-06	1	localizer	blank	interval	NaN	NaN	NaN	NaN	NaN	NaN	NaN	NaN	NaN	NaN	NaN	NaN
957.6667553000008	0.4994	sub-06	1	localizer	stimulus	Stuhl	NaN	0	2.9854481999999507	NaN	True	NaN	NaN	NaN	NaN	NaN	NaN	NaN
958.1496244	2.9854	sub-06	1	localizer	blank	interval	NaN	NaN	NaN	NaN	NaN	NaN	NaN	NaN	NaN	NaN	NaN	NaN
961.4361901000002	0.4996	sub-06	1	localizer	stimulus	Gesicht	NaN	0	2.185020699999882	NaN	True	NaN	NaN	NaN	NaN	NaN	NaN	NaN
961.9191095000006	2.185	sub-06	1	localizer	blank	interval	NaN	NaN	NaN	NaN	NaN	NaN	NaN	NaN	NaN	NaN	NaN	NaN
964.4053303	0.4995	sub-06	1	localizer	stimulus	Haus	NaN	0	2.0681309000002557	NaN	True	NaN	NaN	NaN	NaN	NaN	NaN	NaN
964.8882954	2.0681	sub-06	1	localizer	blank	interval	NaN	NaN	NaN	NaN	NaN	NaN	NaN	NaN	NaN	NaN	NaN	NaN
967.2576369	0.4994	sub-06	1	localizer	stimulus	Gesicht	NaN	0	2.5351960999996663	NaN	True	NaN	NaN	NaN	NaN	NaN	NaN	NaN
967.7405598000004	2.5352	sub-06	1	localizer	blank	interval	NaN	NaN	NaN	NaN	NaN	NaN	NaN	NaN	NaN	NaN	NaN	NaN
973.7622366000004	1.0005	sub-06	1	sequence	cue	Haus	NaN	NaN	NaN	NaN	NaN	NaN	NaN	NaN	NaN	NaN	NaN	NaN
974.7627868	2.0018	sub-06	1	sequence	blank	blank	NaN	NaN	NaN	NaN	NaN	NaN	NaN	NaN	NaN	NaN	NaN	NaN
976.764607	0.3004	sub-06	1	sequence	fixation	dot	NaN	NaN	NaN	NaN	NaN	NaN	NaN	NaN	NaN	NaN	NaN	NaN
977.0824392000004	0.0992	sub-06	1	sequence	stimulus	Katze	NaN	NaN	128.0	NaN	NaN	3.0	1.0	NaN	NaN	NaN	NaN	NaN
977.1816746000004	0.1336	sub-06	1	sequence	interval	dot	NaN	NaN	NaN	NaN	NaN	NaN	NaN	NaN	NaN	NaN	NaN	NaN
977.3152824	0.0999	sub-06	1	sequence	stimulus	Schuh	NaN	NaN	128.0	NaN	NaN	4.0	2.0	NaN	NaN	NaN	NaN	NaN
977.4152095	0.1336	sub-06	1	sequence	interval	dot	NaN	NaN	NaN	NaN	NaN	NaN	NaN	NaN	NaN	NaN	NaN	NaN
977.5488391	0.0999	sub-06	1	sequence	stimulus	Haus	NaN	NaN	128.0	NaN	NaN	2.0	3.0	NaN	NaN	NaN	NaN	NaN
977.6487443000004	0.1335	sub-06	1	sequence	interval	dot	NaN	NaN	NaN	NaN	NaN	NaN	NaN	NaN	NaN	NaN	NaN	NaN
977.7822187000002	0.1	sub-06	1	sequence	stimulus	Gesicht	NaN	NaN	128.0	NaN	NaN	1.0	4.0	NaN	NaN	NaN	NaN	NaN
977.8822483000004	0.1336	sub-06	1	sequence	interval	dot	NaN	NaN	NaN	NaN	NaN	NaN	NaN	NaN	NaN	NaN	NaN	NaN
978.015813	0.0999	sub-06	1	sequence	stimulus	Stuhl	NaN	NaN	128.0	NaN	NaN	5.0	5.0	NaN	NaN	NaN	NaN	NaN
978.1157192	0.1335	sub-06	1	sequence	interval	dot	NaN	NaN	NaN	NaN	NaN	NaN	NaN	NaN	NaN	NaN	NaN	NaN
978.2492596000002	8.0714	sub-06	1	sequence	delay	dot	NaN	NaN	NaN	NaN	NaN	NaN	NaN	NaN	NaN	NaN	NaN	NaN
986.2988476	1.2416	sub-06	1	sequence	choice	choice	right	NaN	NaN	-8.815461000000141	True	NaN	NaN	right	True	4.0	3.0	3.0
987.5408575	0.4996	sub-06	1	sequence	feedback	NaN	NaN	NaN	NaN	NaN	NaN	NaN	NaN	NaN	NaN	NaN	NaN	NaN
988.0405797000004	1.0004	sub-06	1	sequence	cue	Schuh	NaN	NaN	NaN	NaN	NaN	NaN	NaN	NaN	NaN	NaN	NaN	NaN
989.0410275000004	2.0016	sub-06	1	sequence	blank	blank	NaN	NaN	NaN	NaN	NaN	NaN	NaN	NaN	NaN	NaN	NaN	NaN
991.0426094000004	0.3002	sub-06	1	sequence	fixation	dot	NaN	NaN	NaN	NaN	NaN	NaN	NaN	NaN	NaN	NaN	NaN	NaN
991.3605496	0.099	sub-06	1	sequence	stimulus	Schuh	NaN	NaN	512.0	NaN	NaN	4.0	1.0	NaN	NaN	NaN	NaN	NaN
991.4595682	0.5172	sub-06	1	sequence	interval	dot	NaN	NaN	NaN	NaN	NaN	NaN	NaN	NaN	NaN	NaN	NaN	NaN
991.9767789000008	0.0999	sub-06	1	sequence	stimulus	Katze	NaN	NaN	512.0	NaN	NaN	3.0	2.0	NaN	NaN	NaN	NaN	NaN
992.0767122000008	0.5173	sub-06	1	sequence	interval	dot	NaN	NaN	NaN	NaN	NaN	NaN	NaN	NaN	NaN	NaN	NaN	NaN
992.5940120000004	0.0999	sub-06	1	sequence	stimulus	Gesicht	NaN	NaN	512.0	NaN	NaN	1.0	3.0	NaN	NaN	NaN	NaN	NaN
992.6939319000004	0.5172	sub-06	1	sequence	interval	dot	NaN	NaN	NaN	NaN	NaN	NaN	NaN	NaN	NaN	NaN	NaN	NaN
993.2110824	0.1	sub-06	1	sequence	stimulus	Stuhl	NaN	NaN	512.0	NaN	NaN	5.0	4.0	NaN	NaN	NaN	NaN	NaN
993.3110377000004	0.5173	sub-06	1	sequence	interval	dot	NaN	NaN	NaN	NaN	NaN	NaN	NaN	NaN	NaN	NaN	NaN	NaN
993.8283728000006	0.0999	sub-06	1	sequence	stimulus	Haus	NaN	NaN	512.0	NaN	NaN	2.0	5.0	NaN	NaN	NaN	NaN	NaN
993.928317	0.5169	sub-06	1	sequence	interval	dot	NaN	NaN	NaN	NaN	NaN	NaN	NaN	NaN	NaN	NaN	NaN	NaN
994.4452521000004	6.1537	sub-06	1	sequence	delay	dot	NaN	NaN	NaN	NaN	NaN	NaN	NaN	NaN	NaN	NaN	NaN	NaN
1000.5725326000002	1.1792	sub-06	1	sequence	choice	choice	left	NaN	NaN	-8.877875400000448	True	NaN	NaN	left	True	1.0	5.0	1.0
1001.7520436000004	0.4998	sub-06	1	sequence	feedback	NaN	NaN	NaN	NaN	NaN	NaN	NaN	NaN	NaN	NaN	NaN	NaN	NaN
1002.2520646000004	1.0004	sub-06	1	sequence	cue	Schuh	NaN	NaN	NaN	NaN	NaN	NaN	NaN	NaN	NaN	NaN	NaN	NaN
1003.2524767000004	2.0016	sub-06	1	sequence	blank	blank	NaN	NaN	NaN	NaN	NaN	NaN	NaN	NaN	NaN	NaN	NaN	NaN
1005.254124	0.3002	sub-06	1	sequence	fixation	dot	NaN	NaN	NaN	NaN	NaN	NaN	NaN	NaN	NaN	NaN	NaN	NaN
1005.5731694000006	0.1146	sub-06	1	sequence	stimulus	Gesicht	NaN	NaN	64.0	NaN	NaN	1.0	1.0	NaN	NaN	NaN	NaN	NaN
1005.6877680000008	0.0668	sub-06	1	sequence	interval	dot	NaN	NaN	NaN	NaN	NaN	NaN	NaN	NaN	NaN	NaN	NaN	NaN
1005.7545586000006	0.1	sub-06	1	sequence	stimulus	Katze	NaN	NaN	64.0	NaN	NaN	3.0	2.0	NaN	NaN	NaN	NaN	NaN
1005.8545171000004	0.0668	sub-06	1	sequence	interval	dot	NaN	NaN	NaN	NaN	NaN	NaN	NaN	NaN	NaN	NaN	NaN	NaN
1005.9213469000006	0.1	sub-06	1	sequence	stimulus	Stuhl	NaN	NaN	64.0	NaN	NaN	5.0	3.0	NaN	NaN	NaN	NaN	NaN
1006.0213615000002	0.0669	sub-06	1	sequence	interval	dot	NaN	NaN	NaN	NaN	NaN	NaN	NaN	NaN	NaN	NaN	NaN	NaN
1006.0882460000004	0.0999	sub-06	1	sequence	stimulus	Haus	NaN	NaN	64.0	NaN	NaN	2.0	4.0	NaN	NaN	NaN	NaN	NaN
1006.1881741000008	0.0668	sub-06	1	sequence	interval	dot	NaN	NaN	NaN	NaN	NaN	NaN	NaN	NaN	NaN	NaN	NaN	NaN
1006.2549881000004	0.1	sub-06	1	sequence	stimulus	Schuh	NaN	NaN	64.0	NaN	NaN	4.0	5.0	NaN	NaN	NaN	NaN	NaN
1006.3549619000004	0.0667	sub-06	1	sequence	interval	dot	NaN	NaN	NaN	NaN	NaN	NaN	NaN	NaN	NaN	NaN	NaN	NaN
1006.4217064000004	8.3886	sub-06	1	sequence	delay	dot	NaN	NaN	NaN	NaN	NaN	NaN	NaN	NaN	NaN	NaN	NaN	NaN
1014.7942071000008	1.6696	sub-06	1	sequence	choice	choice	left	NaN	NaN	-8.377032500000496	True	NaN	NaN	left	True	5.0	3.0	5.0
1016.4640281000002	0.5	sub-06	1	sequence	feedback	NaN	NaN	NaN	NaN	NaN	NaN	NaN	NaN	NaN	NaN	NaN	NaN	NaN
1016.9642785000004	1.0004	sub-06	1	sequence	cue	Haus	NaN	NaN	NaN	NaN	NaN	NaN	NaN	NaN	NaN	NaN	NaN	NaN
1017.9646729000006	2.0015	sub-06	1	sequence	blank	blank	NaN	NaN	NaN	NaN	NaN	NaN	NaN	NaN	NaN	NaN	NaN	NaN
1019.9662028000002	0.3003	sub-06	1	sequence	fixation	dot	NaN	NaN	NaN	NaN	NaN	NaN	NaN	NaN	NaN	NaN	NaN	NaN
1020.2838594000004	0.0993	sub-06	1	sequence	stimulus	Katze	NaN	NaN	128.0	NaN	NaN	3.0	1.0	NaN	NaN	NaN	NaN	NaN
1020.3831158000004	0.1336	sub-06	1	sequence	interval	dot	NaN	NaN	NaN	NaN	NaN	NaN	NaN	NaN	NaN	NaN	NaN	NaN
1020.5166713	0.0999	sub-06	1	sequence	stimulus	Gesicht	NaN	NaN	128.0	NaN	NaN	1.0	2.0	NaN	NaN	NaN	NaN	NaN
1020.6165889000004	0.1336	sub-06	1	sequence	interval	dot	NaN	NaN	NaN	NaN	NaN	NaN	NaN	NaN	NaN	NaN	NaN	NaN
1020.7501569000004	0.1001	sub-06	1	sequence	stimulus	Schuh	NaN	NaN	128.0	NaN	NaN	4.0	3.0	NaN	NaN	NaN	NaN	NaN
1020.8502184	0.1335	sub-06	1	sequence	interval	dot	NaN	NaN	NaN	NaN	NaN	NaN	NaN	NaN	NaN	NaN	NaN	NaN
1020.9836767000006	0.1001	sub-06	1	sequence	stimulus	Stuhl	NaN	NaN	128.0	NaN	NaN	5.0	4.0	NaN	NaN	NaN	NaN	NaN
1021.0838002	0.1334	sub-06	1	sequence	interval	dot	NaN	NaN	NaN	NaN	NaN	NaN	NaN	NaN	NaN	NaN	NaN	NaN
1021.2172394	0.0999	sub-06	1	sequence	stimulus	Haus	NaN	NaN	128.0	NaN	NaN	2.0	5.0	NaN	NaN	NaN	NaN	NaN
1021.3171892	0.1335	sub-06	1	sequence	interval	dot	NaN	NaN	NaN	NaN	NaN	NaN	NaN	NaN	NaN	NaN	NaN	NaN
1021.4506524	8.0715	sub-06	1	sequence	delay	dot	NaN	NaN	NaN	NaN	NaN	NaN	NaN	NaN	NaN	NaN	NaN	NaN
1029.5097942000002	1.0988	sub-06	1	sequence	choice	choice	left	NaN	NaN	-8.953446100000292	True	NaN	NaN	left	True	5.0	4.0	5.0
1030.6088228	0.4997	sub-06	1	sequence	feedback	NaN	NaN	NaN	NaN	NaN	NaN	NaN	NaN	NaN	NaN	NaN	NaN	NaN
1031.1086371	1.0005	sub-06	1	sequence	cue	Haus	NaN	NaN	NaN	NaN	NaN	NaN	NaN	NaN	NaN	NaN	NaN	NaN
1032.1091856000005	2.0017	sub-06	1	sequence	blank	blank	NaN	NaN	NaN	NaN	NaN	NaN	NaN	NaN	NaN	NaN	NaN	NaN
1034.1108703	0.3002	sub-06	1	sequence	fixation	dot	NaN	NaN	NaN	NaN	NaN	NaN	NaN	NaN	NaN	NaN	NaN	NaN
1034.4285896	0.0992	sub-06	1	sequence	stimulus	Gesicht	NaN	NaN	32.0	NaN	NaN	1.0	1.0	NaN	NaN	NaN	NaN	NaN
1034.5278310000003	0.0335	sub-06	1	sequence	interval	dot	NaN	NaN	NaN	NaN	NaN	NaN	NaN	NaN	NaN	NaN	NaN	NaN
1034.5612842	0.0999	sub-06	1	sequence	stimulus	Stuhl	NaN	NaN	32.0	NaN	NaN	5.0	2.0	NaN	NaN	NaN	NaN	NaN
1034.6611982000004	0.0336	sub-06	1	sequence	interval	dot	NaN	NaN	NaN	NaN	NaN	NaN	NaN	NaN	NaN	NaN	NaN	NaN
1034.6947504999998	0.0999	sub-06	1	sequence	stimulus	Schuh	NaN	NaN	32.0	NaN	NaN	4.0	3.0	NaN	NaN	NaN	NaN	NaN
1034.7946214000003	0.0335	sub-06	1	sequence	interval	dot	NaN	NaN	NaN	NaN	NaN	NaN	NaN	NaN	NaN	NaN	NaN	NaN
1034.8281473000006	0.0999	sub-06	1	sequence	stimulus	Katze	NaN	NaN	32.0	NaN	NaN	3.0	4.0	NaN	NaN	NaN	NaN	NaN
1034.9280403000002	0.0336	sub-06	1	sequence	interval	dot	NaN	NaN	NaN	NaN	NaN	NaN	NaN	NaN	NaN	NaN	NaN	NaN
1034.9616741	0.0999	sub-06	1	sequence	stimulus	Haus	NaN	NaN	32.0	NaN	NaN	2.0	5.0	NaN	NaN	NaN	NaN	NaN
1035.0615629000004	0.0333	sub-06	1	sequence	interval	dot	NaN	NaN	NaN	NaN	NaN	NaN	NaN	NaN	NaN	NaN	NaN	NaN
1035.0948645	8.5222	sub-06	1	sequence	delay	dot	NaN	NaN	NaN	NaN	NaN	NaN	NaN	NaN	NaN	NaN	NaN	NaN
1043.6015107000003	0.9016	sub-06	1	sequence	choice	choice	right	NaN	NaN	-9.151697599999352	True	NaN	NaN	right	True	4.0	5.0	5.0
1044.5033787000002	0.5002	sub-06	1	sequence	feedback	NaN	NaN	NaN	NaN	NaN	NaN	NaN	NaN	NaN	NaN	NaN	NaN	NaN
1045.0037647	0.9999	sub-06	1	sequence	cue	Gesicht	NaN	NaN	NaN	NaN	NaN	NaN	NaN	NaN	NaN	NaN	NaN	NaN
1046.0036587000004	2.0016	sub-06	1	sequence	blank	blank	NaN	NaN	NaN	NaN	NaN	NaN	NaN	NaN	NaN	NaN	NaN	NaN
1048.0052853000009	0.3002	sub-06	1	sequence	fixation	dot	NaN	NaN	NaN	NaN	NaN	NaN	NaN	NaN	NaN	NaN	NaN	NaN
1048.3238198	0.1152	sub-06	1	sequence	stimulus	Stuhl	NaN	NaN	512.0	NaN	NaN	5.0	1.0	NaN	NaN	NaN	NaN	NaN
1048.4390039999998	0.5172	sub-06	1	sequence	interval	dot	NaN	NaN	NaN	NaN	NaN	NaN	NaN	NaN	NaN	NaN	NaN	NaN
1048.9561683000002	0.0999	sub-06	1	sequence	stimulus	Katze	NaN	NaN	512.0	NaN	NaN	3.0	2.0	NaN	NaN	NaN	NaN	NaN
1049.0560975	0.5172	sub-06	1	sequence	interval	dot	NaN	NaN	NaN	NaN	NaN	NaN	NaN	NaN	NaN	NaN	NaN	NaN
1049.5733366000004	0.1	sub-06	1	sequence	stimulus	Gesicht	NaN	NaN	512.0	NaN	NaN	1.0	3.0	NaN	NaN	NaN	NaN	NaN
1049.6733216000002	0.5172	sub-06	1	sequence	interval	dot	NaN	NaN	NaN	NaN	NaN	NaN	NaN	NaN	NaN	NaN	NaN	NaN
1050.1904945000006	0.0999	sub-06	1	sequence	stimulus	Schuh	NaN	NaN	512.0	NaN	NaN	4.0	4.0	NaN	NaN	NaN	NaN	NaN
1050.2904419000006	0.5172	sub-06	1	sequence	interval	dot	NaN	NaN	NaN	NaN	NaN	NaN	NaN	NaN	NaN	NaN	NaN	NaN
1050.8076814000003	0.1	sub-06	1	sequence	stimulus	Haus	NaN	NaN	512.0	NaN	NaN	2.0	5.0	NaN	NaN	NaN	NaN	NaN
1050.9076657000005	0.5171	sub-06	1	sequence	interval	dot	NaN	NaN	NaN	NaN	NaN	NaN	NaN	NaN	NaN	NaN	NaN	NaN
1051.4248023	6.1367	sub-06	1	sequence	delay	dot	NaN	NaN	NaN	NaN	NaN	NaN	NaN	NaN	NaN	NaN	NaN	NaN
1057.5371647000002	1.0939	sub-06	1	sequence	choice	choice	right	NaN	NaN	-8.960436900000786	True	NaN	NaN	right	True	5.0	3.0	3.0
1058.6313546	0.4999	sub-06	1	sequence	feedback	NaN	NaN	NaN	NaN	NaN	NaN	NaN	NaN	NaN	NaN	NaN	NaN	NaN
1059.1314300000004	1.0005	sub-06	1	sequence	cue	Katze	NaN	NaN	NaN	NaN	NaN	NaN	NaN	NaN	NaN	NaN	NaN	NaN
1060.1319300000005	2.0016	sub-06	1	sequence	blank	blank	NaN	NaN	NaN	NaN	NaN	NaN	NaN	NaN	NaN	NaN	NaN	NaN
1062.1335068	0.3002	sub-06	1	sequence	fixation	dot	NaN	NaN	NaN	NaN	NaN	NaN	NaN	NaN	NaN	NaN	NaN	NaN
1062.4511699000004	0.0993	sub-06	1	sequence	stimulus	Haus	NaN	NaN	32.0	NaN	NaN	2.0	1.0	NaN	NaN	NaN	NaN	NaN
1062.5504563000004	0.0335	sub-06	1	sequence	interval	dot	NaN	NaN	NaN	NaN	NaN	NaN	NaN	NaN	NaN	NaN	NaN	NaN
1062.5839110000006	0.1	sub-06	1	sequence	stimulus	Stuhl	NaN	NaN	32.0	NaN	NaN	5.0	2.0	NaN	NaN	NaN	NaN	NaN
1062.6838718	0.0336	sub-06	1	sequence	interval	dot	NaN	NaN	NaN	NaN	NaN	NaN	NaN	NaN	NaN	NaN	NaN	NaN
1062.7174278000002	0.0999	sub-06	1	sequence	stimulus	Schuh	NaN	NaN	32.0	NaN	NaN	4.0	3.0	NaN	NaN	NaN	NaN	NaN
1062.8173303000003	0.0335	sub-06	1	sequence	interval	dot	NaN	NaN	NaN	NaN	NaN	NaN	NaN	NaN	NaN	NaN	NaN	NaN
1062.8507855000007	0.1	sub-06	1	sequence	stimulus	Gesicht	NaN	NaN	32.0	NaN	NaN	1.0	4.0	NaN	NaN	NaN	NaN	NaN
1062.9507703	0.0335	sub-06	1	sequence	interval	dot	NaN	NaN	NaN	NaN	NaN	NaN	NaN	NaN	NaN	NaN	NaN	NaN
1062.9842533	0.1	sub-06	1	sequence	stimulus	Katze	NaN	NaN	32.0	NaN	NaN	3.0	5.0	NaN	NaN	NaN	NaN	NaN
1063.0842393000005	0.0334	sub-06	1	sequence	interval	dot	NaN	NaN	NaN	NaN	NaN	NaN	NaN	NaN	NaN	NaN	NaN	NaN
1063.1176493000005	8.5219	sub-06	1	sequence	delay	dot	NaN	NaN	NaN	NaN	NaN	NaN	NaN	NaN	NaN	NaN	NaN	NaN
1071.6288909000004	0.9468	sub-06	1	sequence	choice	choice	left	NaN	NaN	-9.102705799999969	True	NaN	NaN	left	True	5.0	2.0	5.0
1072.5759488000003	0.4998	sub-06	1	sequence	feedback	NaN	NaN	NaN	NaN	NaN	NaN	NaN	NaN	NaN	NaN	NaN	NaN	NaN
1073.0758839	1.0006	sub-06	1	sequence	cue	Stuhl	NaN	NaN	NaN	NaN	NaN	NaN	NaN	NaN	NaN	NaN	NaN	NaN
1074.0765354000005	2.0014	sub-06	1	sequence	blank	blank	NaN	NaN	NaN	NaN	NaN	NaN	NaN	NaN	NaN	NaN	NaN	NaN
1076.0779778000006	0.3002	sub-06	1	sequence	fixation	dot	NaN	NaN	NaN	NaN	NaN	NaN	NaN	NaN	NaN	NaN	NaN	NaN
1076.3958248	0.0992	sub-06	1	sequence	stimulus	Gesicht	NaN	NaN	64.0	NaN	NaN	1.0	1.0	NaN	NaN	NaN	NaN	NaN
1076.4950276999998	0.0668	sub-06	1	sequence	interval	dot	NaN	NaN	NaN	NaN	NaN	NaN	NaN	NaN	NaN	NaN	NaN	NaN
1076.5618544	0.0999	sub-06	1	sequence	stimulus	Schuh	NaN	NaN	64.0	NaN	NaN	4.0	2.0	NaN	NaN	NaN	NaN	NaN
1076.6617842000005	0.0668	sub-06	1	sequence	interval	dot	NaN	NaN	NaN	NaN	NaN	NaN	NaN	NaN	NaN	NaN	NaN	NaN
1076.7285483000005	0.1	sub-06	1	sequence	stimulus	Katze	NaN	NaN	64.0	NaN	NaN	3.0	3.0	NaN	NaN	NaN	NaN	NaN
1076.8285138	0.0669	sub-06	1	sequence	interval	dot	NaN	NaN	NaN	NaN	NaN	NaN	NaN	NaN	NaN	NaN	NaN	NaN
1076.8953954	0.1001	sub-06	1	sequence	stimulus	Haus	NaN	NaN	64.0	NaN	NaN	2.0	4.0	NaN	NaN	NaN	NaN	NaN
1076.9954498000006	0.0668	sub-06	1	sequence	interval	dot	NaN	NaN	NaN	NaN	NaN	NaN	NaN	NaN	NaN	NaN	NaN	NaN
1077.0622219000006	0.1001	sub-06	1	sequence	stimulus	Stuhl	NaN	NaN	64.0	NaN	NaN	5.0	5.0	NaN	NaN	NaN	NaN	NaN
1077.1623086999998	0.0666	sub-06	1	sequence	interval	dot	NaN	NaN	NaN	NaN	NaN	NaN	NaN	NaN	NaN	NaN	NaN	NaN
1077.2289540000002	8.3887	sub-06	1	sequence	delay	dot	NaN	NaN	NaN	NaN	NaN	NaN	NaN	NaN	NaN	NaN	NaN	NaN
1085.5905505	1.0465	sub-06	1	sequence	choice	choice	left	NaN	NaN	-9.016251699999884	False	NaN	NaN	right	True	4.0	5.0	5.0
1086.6373426	0.4997	sub-06	1	sequence	feedback	NaN	NaN	NaN	NaN	NaN	NaN	NaN	NaN	NaN	NaN	NaN	NaN	NaN
1090.9575842000004	0.4995	sub-06	1	localizer	stimulus	Haus	NaN	0	2.602093800000148	NaN	True	NaN	NaN	NaN	NaN	NaN	NaN	NaN
1091.4404611999998	2.6021	sub-06	1	localizer	blank	interval	NaN	NaN	NaN	NaN	NaN	NaN	NaN	NaN	NaN	NaN	NaN	NaN
1094.3435425000007	0.4996	sub-06	1	localizer	stimulus	Katze	NaN	0	1.7178375000003143	NaN	True	NaN	NaN	NaN	NaN	NaN	NaN	NaN
1094.8266229	1.7178	sub-06	1	localizer	blank	interval	NaN	NaN	NaN	NaN	NaN	NaN	NaN	NaN	NaN	NaN	NaN	NaN
1096.8458611000003	0.4994	sub-06	1	localizer	stimulus	Haus	NaN	0	2.86905569999999	NaN	True	NaN	NaN	NaN	NaN	NaN	NaN	NaN
1097.3286426000004	2.8691	sub-06	1	localizer	blank	interval	NaN	NaN	NaN	NaN	NaN	NaN	NaN	NaN	NaN	NaN	NaN	NaN
1100.4987468	0.4993	sub-06	1	localizer	stimulus	Gesicht	NaN	0	1.7679737000009936	NaN	True	NaN	NaN	NaN	NaN	NaN	NaN	NaN
1100.9816124	1.768	sub-06	1	localizer	blank	interval	NaN	NaN	NaN	NaN	NaN	NaN	NaN	NaN	NaN	NaN	NaN	NaN
1103.0507562000005	0.4996	sub-06	1	localizer	stimulus	Katze	NaN	0	2.4018073999995977	NaN	True	NaN	NaN	NaN	NaN	NaN	NaN	NaN
1103.5337753000003	2.4018	sub-06	1	localizer	blank	interval	NaN	NaN	NaN	NaN	NaN	NaN	NaN	NaN	NaN	NaN	NaN	NaN
1106.2367212	0.4994	sub-06	1	localizer	stimulus	Katze	NaN	0	2.8855161999999837	NaN	True	NaN	NaN	NaN	NaN	NaN	NaN	NaN
1106.7195029000004	2.8855	sub-06	1	localizer	blank	interval	NaN	NaN	NaN	NaN	NaN	NaN	NaN	NaN	NaN	NaN	NaN	NaN
1109.9061693000003	0.4994	sub-06	1	localizer	stimulus	Gesicht	NaN	0	3.1024219000000812	NaN	True	NaN	NaN	NaN	NaN	NaN	NaN	NaN
1110.3891098000004	3.1024	sub-06	1	localizer	blank	interval	NaN	NaN	NaN	NaN	NaN	NaN	NaN	NaN	NaN	NaN	NaN	NaN
1113.7926982	0.4995	sub-06	1	localizer	stimulus	Gesicht	NaN	0	2.3851511000002574	NaN	True	NaN	NaN	NaN	NaN	NaN	NaN	NaN
1114.2755797999998	2.3852	sub-06	1	localizer	blank	interval	NaN	NaN	NaN	NaN	NaN	NaN	NaN	NaN	NaN	NaN	NaN	NaN
1116.9620004	0.4994	sub-06	1	localizer	stimulus	Haus	NaN	180	2.7354728000002524	-9.32083270000021	True	NaN	NaN	NaN	NaN	NaN	NaN	NaN
1117.4449223	2.7355	sub-06	1	localizer	blank	interval	NaN	NaN	NaN	NaN	NaN	NaN	NaN	NaN	NaN	NaN	NaN	NaN
1120.4816566	0.4993	sub-06	1	localizer	stimulus	Stuhl	NaN	0	1.8513087000001178	NaN	True	NaN	NaN	NaN	NaN	NaN	NaN	NaN
1120.9644189	1.8513	sub-06	1	localizer	blank	interval	NaN	NaN	NaN	NaN	NaN	NaN	NaN	NaN	NaN	NaN	NaN	NaN
1123.1171224	0.4993	sub-06	1	localizer	stimulus	Stuhl	NaN	180	3.1693085000008523	-9.204769699999815	True	NaN	NaN	NaN	NaN	NaN	NaN	NaN
1123.5998577	3.1693	sub-06	1	localizer	blank	interval	NaN	NaN	NaN	NaN	NaN	NaN	NaN	NaN	NaN	NaN	NaN	NaN
1127.0703768000003	0.4991	sub-06	1	localizer	stimulus	Schuh	NaN	0	2.084915500000534	NaN	True	NaN	NaN	NaN	NaN	NaN	NaN	NaN
1127.5529999	2.0849	sub-06	1	localizer	blank	interval	NaN	NaN	NaN	NaN	NaN	NaN	NaN	NaN	NaN	NaN	NaN	NaN
1129.9391458	0.4994	sub-06	1	localizer	stimulus	Haus	NaN	0	2.635445599999912	NaN	True	NaN	NaN	NaN	NaN	NaN	NaN	NaN
1130.4219901000006	2.6354	sub-06	1	localizer	blank	interval	NaN	NaN	NaN	NaN	NaN	NaN	NaN	NaN	NaN	NaN	NaN	NaN
1133.3585253	0.4995	sub-06	1	localizer	stimulus	Schuh	NaN	180	1.3842488000002504	-9.445154099999854	True	NaN	NaN	NaN	NaN	NaN	NaN	NaN
1133.8414911999998	1.3842	sub-06	1	localizer	blank	interval	NaN	NaN	NaN	NaN	NaN	NaN	NaN	NaN	NaN	NaN	NaN	NaN
1135.5268295000003	0.4997	sub-06	1	localizer	stimulus	Schuh	NaN	0	2.7356236999994508	NaN	True	NaN	NaN	NaN	NaN	NaN	NaN	NaN
1136.0097970000006	2.7356	sub-06	1	localizer	blank	interval	NaN	NaN	NaN	NaN	NaN	NaN	NaN	NaN	NaN	NaN	NaN	NaN
