onset	duration	subject	session	condition	trial_type	stim_label	key_down	orientation	interval_time	response_time	accuracy	stim_index	serial_position	key_expected	key_pressed	choice_left	choice_right	choice_correct
1.2867579000012483	1.4219	sub-26	1	instruction	instruction	language_selection	german	NaN	NaN	NaN	NaN	NaN	NaN	NaN	NaN	NaN	NaN	NaN
44.27549460000046	0.5003	sub-26	1	localizer	stimulus	Schuh	NaN	180	2.7187720999991143	0.7342427000003227	1.0	NaN	NaN	NaN	NaN	NaN	NaN	NaN
44.759281600001486	2.7188	sub-26	1	localizer	blank	interval	NaN	NaN	NaN	NaN	NaN	NaN	NaN	NaN	NaN	NaN	NaN	NaN
47.77919270000166	0.4993	sub-26	1	localizer	stimulus	Gesicht	NaN	0	2.285044199999902	NaN	True	NaN	NaN	NaN	NaN	NaN	NaN	NaN
48.26196930000151	2.285	sub-26	1	localizer	blank	interval	NaN	NaN	NaN	NaN	NaN	NaN	NaN	NaN	NaN	NaN	NaN	NaN
50.84821530000045	0.4995	sub-26	1	localizer	stimulus	Stuhl	NaN	0	2.5186130000001867	NaN	True	NaN	NaN	NaN	NaN	NaN	NaN	NaN
51.3310977000001	2.5186	sub-26	1	localizer	blank	interval	NaN	NaN	NaN	NaN	NaN	NaN	NaN	NaN	NaN	NaN	NaN	NaN
54.150834800000666	0.4996	sub-26	1	localizer	stimulus	Haus	NaN	0	1.901420700000017	NaN	True	NaN	NaN	NaN	NaN	NaN	NaN	NaN
54.63380060000054	1.9014	sub-26	1	localizer	blank	interval	NaN	NaN	NaN	NaN	NaN	NaN	NaN	NaN	NaN	NaN	NaN	NaN
56.83628790000148	0.4995	sub-26	1	localizer	stimulus	Stuhl	NaN	0	1.9848275999993348	NaN	True	NaN	NaN	NaN	NaN	NaN	NaN	NaN
57.31926140000178	1.9848	sub-26	1	localizer	blank	interval	NaN	NaN	NaN	NaN	NaN	NaN	NaN	NaN	NaN	NaN	NaN	NaN
59.60518370000136	0.4996	sub-26	1	localizer	stimulus	Stuhl	NaN	0	1.9181123000016669	NaN	True	NaN	NaN	NaN	NaN	NaN	NaN	NaN
60.0881816000001	1.9181	sub-26	1	localizer	blank	interval	NaN	NaN	NaN	NaN	NaN	NaN	NaN	NaN	NaN	NaN	NaN	NaN
62.307383800000025	0.4996	sub-26	1	localizer	stimulus	Gesicht	NaN	0	3.1359080000001924	NaN	True	NaN	NaN	NaN	NaN	NaN	NaN	NaN
62.79039430000012	3.1359	sub-26	1	localizer	blank	interval	NaN	NaN	NaN	NaN	NaN	NaN	NaN	NaN	NaN	NaN	NaN	NaN
66.22727600000144	0.4996	sub-26	1	localizer	stimulus	Schuh	NaN	0	2.4184576999996352	NaN	True	NaN	NaN	NaN	NaN	NaN	NaN	NaN
66.71033630000056	2.4185	sub-26	1	localizer	blank	interval	NaN	NaN	NaN	NaN	NaN	NaN	NaN	NaN	NaN	NaN	NaN	NaN
69.4298245000009	0.4995	sub-26	1	localizer	stimulus	Haus	NaN	0	2.001466800000344	NaN	True	NaN	NaN	NaN	NaN	NaN	NaN	NaN
69.91284410000117	2.0015	sub-26	1	localizer	blank	interval	NaN	NaN	NaN	NaN	NaN	NaN	NaN	NaN	NaN	NaN	NaN	NaN
72.21539460000167	0.4996	sub-26	1	localizer	stimulus	Katze	NaN	180	2.0182007999992493	0.4904647999992448	True	NaN	NaN	NaN	NaN	NaN	NaN	NaN
72.69838900000104	2.0182	sub-26	1	localizer	blank	interval	NaN	NaN	NaN	NaN	NaN	NaN	NaN	NaN	NaN	NaN	NaN	NaN
75.01766260000113	0.4995	sub-26	1	localizer	stimulus	Katze	NaN	0	1.267623800000365	NaN	True	NaN	NaN	NaN	NaN	NaN	NaN	NaN
75.5007125000011	1.2676	sub-26	1	localizer	blank	interval	NaN	NaN	NaN	NaN	NaN	NaN	NaN	NaN	NaN	NaN	NaN	NaN
77.06931620000069	0.4997	sub-26	1	localizer	stimulus	Stuhl	NaN	180	1.7679358000004868	0.4605305999994016	True	NaN	NaN	NaN	NaN	NaN	NaN	NaN
77.55239600000095	1.7679	sub-26	1	localizer	blank	interval	NaN	NaN	NaN	NaN	NaN	NaN	NaN	NaN	NaN	NaN	NaN	NaN
79.62136940000164	0.4997	sub-26	1	localizer	stimulus	Katze	NaN	0	2.635211900000286	NaN	True	NaN	NaN	NaN	NaN	NaN	NaN	NaN
80.10448680000081	2.6352	sub-26	1	localizer	blank	interval	NaN	NaN	NaN	NaN	NaN	NaN	NaN	NaN	NaN	NaN	NaN	NaN
83.04083030000038	0.4996	sub-26	1	localizer	stimulus	Gesicht	NaN	0	2.752199300000939	NaN	True	NaN	NaN	NaN	NaN	NaN	NaN	NaN
83.52379660000042	2.7522	sub-26	1	localizer	blank	interval	NaN	NaN	NaN	NaN	NaN	NaN	NaN	NaN	NaN	NaN	NaN	NaN
86.5771145000017	0.4996	sub-26	1	localizer	stimulus	Gesicht	NaN	180	2.568648899999971	0.4807700999990629	True	NaN	NaN	NaN	NaN	NaN	NaN	NaN
87.06015810000099	2.5686	sub-26	1	localizer	blank	interval	NaN	NaN	NaN	NaN	NaN	NaN	NaN	NaN	NaN	NaN	NaN	NaN
89.92995490000067	0.4993	sub-26	1	localizer	stimulus	Haus	NaN	0	2.7855006000009013	NaN	True	NaN	NaN	NaN	NaN	NaN	NaN	NaN
90.41267890000016	2.7855	sub-26	1	localizer	blank	interval	NaN	NaN	NaN	NaN	NaN	NaN	NaN	NaN	NaN	NaN	NaN	NaN
93.49926980000056	0.4995	sub-26	1	localizer	stimulus	Schuh	NaN	0	3.1023925000008603	NaN	True	NaN	NaN	NaN	NaN	NaN	NaN	NaN
93.9822621000003	3.1024	sub-26	1	localizer	blank	interval	NaN	NaN	NaN	NaN	NaN	NaN	NaN	NaN	NaN	NaN	NaN	NaN
97.38575460000176	0.4995	sub-26	1	localizer	stimulus	Katze	NaN	0	2.084908100001499	NaN	True	NaN	NaN	NaN	NaN	NaN	NaN	NaN
97.86873430000014	2.0849	sub-26	1	localizer	blank	interval	NaN	NaN	NaN	NaN	NaN	NaN	NaN	NaN	NaN	NaN	NaN	NaN
100.25476140000136	0.4995	sub-26	1	localizer	stimulus	Haus	NaN	0	2.201515200000358	NaN	True	NaN	NaN	NaN	NaN	NaN	NaN	NaN
100.73787730000004	2.2015	sub-26	1	localizer	blank	interval	NaN	NaN	NaN	NaN	NaN	NaN	NaN	NaN	NaN	NaN	NaN	NaN
103.24055650000082	0.4995	sub-26	1	localizer	stimulus	Haus	NaN	180	2.6019409999990017	0.4253004000001965	True	NaN	NaN	NaN	NaN	NaN	NaN	NaN
103.7235212000014	2.6019	sub-26	1	localizer	blank	interval	NaN	NaN	NaN	NaN	NaN	NaN	NaN	NaN	NaN	NaN	NaN	NaN
106.62673820000056	0.4994	sub-26	1	localizer	stimulus	Gesicht	NaN	0	2.752209000000221	NaN	True	NaN	NaN	NaN	NaN	NaN	NaN	NaN
107.1096546000008	2.7522	sub-26	1	localizer	blank	interval	NaN	NaN	NaN	NaN	NaN	NaN	NaN	NaN	NaN	NaN	NaN	NaN
110.16301190000011	0.4994	sub-26	1	localizer	stimulus	Katze	NaN	0	2.818649800001367	NaN	True	NaN	NaN	NaN	NaN	NaN	NaN	NaN
110.64591010000004	2.8186	sub-26	1	localizer	blank	interval	NaN	NaN	NaN	NaN	NaN	NaN	NaN	NaN	NaN	NaN	NaN	NaN
113.76565790000132	0.4996	sub-26	1	localizer	stimulus	Schuh	NaN	0	2.8855425999990842	NaN	True	NaN	NaN	NaN	NaN	NaN	NaN	NaN
114.248682200001	2.8855	sub-26	1	localizer	blank	interval	NaN	NaN	NaN	NaN	NaN	NaN	NaN	NaN	NaN	NaN	NaN	NaN
117.43530080000164	0.4995	sub-26	1	localizer	stimulus	Schuh	NaN	0	1.317640399998723	NaN	True	NaN	NaN	NaN	NaN	NaN	NaN	NaN
117.91829550000148	1.3176	sub-26	1	localizer	blank	interval	NaN	NaN	NaN	NaN	NaN	NaN	NaN	NaN	NaN	NaN	NaN	NaN
119.53702150000026	0.4995	sub-26	1	localizer	stimulus	Stuhl	NaN	0	2.2683905000012885	NaN	True	NaN	NaN	NaN	NaN	NaN	NaN	NaN
120.02000399999996	2.2684	sub-26	1	localizer	blank	interval	NaN	NaN	NaN	NaN	NaN	NaN	NaN	NaN	NaN	NaN	NaN	NaN
125.77488020000057	1.0005	sub-26	1	sequence	cue	Haus	NaN	NaN	NaN	NaN	NaN	NaN	NaN	NaN	NaN	NaN	NaN	NaN
126.77540910000062	2.0017	sub-26	1	sequence	blank	blank	NaN	NaN	NaN	NaN	NaN	NaN	NaN	NaN	NaN	NaN	NaN	NaN
128.77713530000074	0.3002	sub-26	1	sequence	fixation	dot	NaN	NaN	NaN	NaN	NaN	NaN	NaN	NaN	NaN	NaN	NaN	NaN
129.1254201000011	0.1021	sub-26	1	sequence	stimulus	Gesicht	NaN	NaN	128.0	NaN	NaN	1.0	1.0	NaN	NaN	NaN	NaN	NaN
129.22751020000032	0.1335	sub-26	1	sequence	interval	dot	NaN	NaN	NaN	NaN	NaN	NaN	NaN	NaN	NaN	NaN	NaN	NaN
129.3609873000005	0.1	sub-26	1	sequence	stimulus	Stuhl	NaN	NaN	128.0	NaN	NaN	5.0	2.0	NaN	NaN	NaN	NaN	NaN
129.461002	0.1335	sub-26	1	sequence	interval	dot	NaN	NaN	NaN	NaN	NaN	NaN	NaN	NaN	NaN	NaN	NaN	NaN
129.59454160000132	0.1	sub-26	1	sequence	stimulus	Katze	NaN	NaN	128.0	NaN	NaN	3.0	3.0	NaN	NaN	NaN	NaN	NaN
129.69452140000067	0.1336	sub-26	1	sequence	interval	dot	NaN	NaN	NaN	NaN	NaN	NaN	NaN	NaN	NaN	NaN	NaN	NaN
129.82811450000008	0.0999	sub-26	1	sequence	stimulus	Schuh	NaN	NaN	128.0	NaN	NaN	4.0	4.0	NaN	NaN	NaN	NaN	NaN
129.92803340000137	0.1336	sub-26	1	sequence	interval	dot	NaN	NaN	NaN	NaN	NaN	NaN	NaN	NaN	NaN	NaN	NaN	NaN
130.06161580000116	0.0999	sub-26	1	sequence	stimulus	Haus	NaN	NaN	128.0	NaN	NaN	2.0	5.0	NaN	NaN	NaN	NaN	NaN
130.1615552000003	0.1335	sub-26	1	sequence	interval	dot	NaN	NaN	NaN	NaN	NaN	NaN	NaN	NaN	NaN	NaN	NaN	NaN
130.295009200001	8.0543	sub-26	1	sequence	delay	dot	NaN	NaN	NaN	NaN	NaN	NaN	NaN	NaN	NaN	NaN	NaN	NaN
138.33251810000002	0.6861	sub-26	1	sequence	choice	choice	left	NaN	NaN	0.6685161000004882	True	NaN	NaN	left	1.0	5.0	2.0	5.0
139.0188575000011	0.5001	sub-26	1	sequence	feedback	NaN	NaN	NaN	NaN	NaN	NaN	NaN	NaN	NaN	NaN	NaN	NaN	NaN
139.51907830000164	1.0008	sub-26	1	sequence	cue	Haus	NaN	NaN	NaN	NaN	NaN	NaN	NaN	NaN	NaN	NaN	NaN	NaN
140.5198371000006	2.003	sub-26	1	sequence	blank	blank	NaN	NaN	NaN	NaN	NaN	NaN	NaN	NaN	NaN	NaN	NaN	NaN
142.52285940000002	0.2996	sub-26	1	sequence	fixation	dot	NaN	NaN	NaN	NaN	NaN	NaN	NaN	NaN	NaN	NaN	NaN	NaN
142.83932890000142	0.0991	sub-26	1	sequence	stimulus	Katze	NaN	NaN	128.0	NaN	NaN	3.0	1.0	NaN	NaN	NaN	NaN	NaN
142.9384155000007	0.1336	sub-26	1	sequence	interval	dot	NaN	NaN	NaN	NaN	NaN	NaN	NaN	NaN	NaN	NaN	NaN	NaN
143.07199400000172	0.1	sub-26	1	sequence	stimulus	Schuh	NaN	NaN	128.0	NaN	NaN	4.0	2.0	NaN	NaN	NaN	NaN	NaN
143.17194500000005	0.1335	sub-26	1	sequence	interval	dot	NaN	NaN	NaN	NaN	NaN	NaN	NaN	NaN	NaN	NaN	NaN	NaN
143.30548360000105	0.1	sub-26	1	sequence	stimulus	Gesicht	NaN	NaN	128.0	NaN	NaN	1.0	3.0	NaN	NaN	NaN	NaN	NaN
143.40546130000075	0.1336	sub-26	1	sequence	interval	dot	NaN	NaN	NaN	NaN	NaN	NaN	NaN	NaN	NaN	NaN	NaN	NaN
143.53901510000105	0.1	sub-26	1	sequence	stimulus	Stuhl	NaN	NaN	128.0	NaN	NaN	5.0	4.0	NaN	NaN	NaN	NaN	NaN
143.63900400000057	0.1336	sub-26	1	sequence	interval	dot	NaN	NaN	NaN	NaN	NaN	NaN	NaN	NaN	NaN	NaN	NaN	NaN
143.77256710000074	0.1	sub-26	1	sequence	stimulus	Haus	NaN	NaN	128.0	NaN	NaN	2.0	5.0	NaN	NaN	NaN	NaN	NaN
143.87253640000017	0.1334	sub-26	1	sequence	interval	dot	NaN	NaN	NaN	NaN	NaN	NaN	NaN	NaN	NaN	NaN	NaN	NaN
144.0059465000013	8.0713	sub-26	1	sequence	delay	dot	NaN	NaN	NaN	NaN	NaN	NaN	NaN	NaN	NaN	NaN	NaN	NaN
152.06022370000028	0.6697	sub-26	1	sequence	choice	choice	right	NaN	NaN	0.6445320000002539	True	NaN	NaN	right	True	4.0	5.0	5.0
152.73008020000088	0.5	sub-26	1	sequence	feedback	NaN	NaN	NaN	NaN	NaN	NaN	NaN	NaN	NaN	NaN	NaN	NaN	NaN
153.2302378000004	1.0007	sub-26	1	sequence	cue	Haus	NaN	NaN	NaN	NaN	NaN	NaN	NaN	NaN	NaN	NaN	NaN	NaN
154.23095670000112	2.0016	sub-26	1	sequence	blank	blank	NaN	NaN	NaN	NaN	NaN	NaN	NaN	NaN	NaN	NaN	NaN	NaN
156.23253960000147	0.3003	sub-26	1	sequence	fixation	dot	NaN	NaN	NaN	NaN	NaN	NaN	NaN	NaN	NaN	NaN	NaN	NaN
156.55116330000055	0.115	sub-26	1	sequence	stimulus	Katze	NaN	NaN	64.0	NaN	NaN	3.0	1.0	NaN	NaN	NaN	NaN	NaN
156.66621320000013	0.0668	sub-26	1	sequence	interval	dot	NaN	NaN	NaN	NaN	NaN	NaN	NaN	NaN	NaN	NaN	NaN	NaN
156.73302150000018	0.1	sub-26	1	sequence	stimulus	Stuhl	NaN	NaN	64.0	NaN	NaN	5.0	2.0	NaN	NaN	NaN	NaN	NaN
156.8329805000012	0.0668	sub-26	1	sequence	interval	dot	NaN	NaN	NaN	NaN	NaN	NaN	NaN	NaN	NaN	NaN	NaN	NaN
156.8998147000002	0.1	sub-26	1	sequence	stimulus	Schuh	NaN	NaN	64.0	NaN	NaN	4.0	3.0	NaN	NaN	NaN	NaN	NaN
156.999813800001	0.0668	sub-26	1	sequence	interval	dot	NaN	NaN	NaN	NaN	NaN	NaN	NaN	NaN	NaN	NaN	NaN	NaN
157.06661760000134	0.1	sub-26	1	sequence	stimulus	Gesicht	NaN	NaN	64.0	NaN	NaN	1.0	4.0	NaN	NaN	NaN	NaN	NaN
157.16662300000098	0.0668	sub-26	1	sequence	interval	dot	NaN	NaN	NaN	NaN	NaN	NaN	NaN	NaN	NaN	NaN	NaN	NaN
157.23347160000048	0.0999	sub-26	1	sequence	stimulus	Haus	NaN	NaN	64.0	NaN	NaN	2.0	5.0	NaN	NaN	NaN	NaN	NaN
157.3334188000008	0.0667	sub-26	1	sequence	interval	dot	NaN	NaN	NaN	NaN	NaN	NaN	NaN	NaN	NaN	NaN	NaN	NaN
157.4001377000004	8.3882	sub-26	1	sequence	delay	dot	NaN	NaN	NaN	NaN	NaN	NaN	NaN	NaN	NaN	NaN	NaN	NaN
165.76189130000057	0.7291	sub-26	1	sequence	choice	choice	right	NaN	NaN	0.6934923000007984	True	NaN	NaN	right	True	3.0	5.0	5.0
166.49113630000102	0.5002	sub-26	1	sequence	feedback	NaN	NaN	NaN	NaN	NaN	NaN	NaN	NaN	NaN	NaN	NaN	NaN	NaN
166.99142940000092	1.0007	sub-26	1	sequence	cue	Katze	NaN	NaN	NaN	NaN	NaN	NaN	NaN	NaN	NaN	NaN	NaN	NaN
167.99208940000062	2.0017	sub-26	1	sequence	blank	blank	NaN	NaN	NaN	NaN	NaN	NaN	NaN	NaN	NaN	NaN	NaN	NaN
169.99376210000082	0.3003	sub-26	1	sequence	fixation	dot	NaN	NaN	NaN	NaN	NaN	NaN	NaN	NaN	NaN	NaN	NaN	NaN
170.31218160000026	0.1153	sub-26	1	sequence	stimulus	Schuh	NaN	NaN	512.0	NaN	NaN	4.0	1.0	NaN	NaN	NaN	NaN	NaN
170.42746240000088	0.5172	sub-26	1	sequence	interval	dot	NaN	NaN	NaN	NaN	NaN	NaN	NaN	NaN	NaN	NaN	NaN	NaN
170.94469290000052	0.1	sub-26	1	sequence	stimulus	Gesicht	NaN	NaN	512.0	NaN	NaN	1.0	2.0	NaN	NaN	NaN	NaN	NaN
171.04466290000164	0.5171	sub-26	1	sequence	interval	dot	NaN	NaN	NaN	NaN	NaN	NaN	NaN	NaN	NaN	NaN	NaN	NaN
171.56176320000122	0.1	sub-26	1	sequence	stimulus	Stuhl	NaN	NaN	512.0	NaN	NaN	5.0	3.0	NaN	NaN	NaN	NaN	NaN
171.66176110000015	0.5172	sub-26	1	sequence	interval	dot	NaN	NaN	NaN	NaN	NaN	NaN	NaN	NaN	NaN	NaN	NaN	NaN
172.17900070000178	0.1	sub-26	1	sequence	stimulus	Haus	NaN	NaN	512.0	NaN	NaN	2.0	4.0	NaN	NaN	NaN	NaN	NaN
172.2789614000012	0.5173	sub-26	1	sequence	interval	dot	NaN	NaN	NaN	NaN	NaN	NaN	NaN	NaN	NaN	NaN	NaN	NaN
172.79621970000153	0.1	sub-26	1	sequence	stimulus	Katze	NaN	NaN	512.0	NaN	NaN	3.0	5.0	NaN	NaN	NaN	NaN	NaN
172.89620530000138	0.517	sub-26	1	sequence	interval	dot	NaN	NaN	NaN	NaN	NaN	NaN	NaN	NaN	NaN	NaN	NaN	NaN
173.41325340000003	6.1529	sub-26	1	sequence	delay	dot	NaN	NaN	NaN	NaN	NaN	NaN	NaN	NaN	NaN	NaN	NaN	NaN
179.54166520000035	0.627	sub-26	1	sequence	choice	choice	left	NaN	NaN	0.5875864000008733	True	NaN	NaN	left	True	5.0	3.0	5.0
180.16885880000157	0.5001	sub-26	1	sequence	feedback	NaN	NaN	NaN	NaN	NaN	NaN	NaN	NaN	NaN	NaN	NaN	NaN	NaN
180.66914830000127	1.0006	sub-26	1	sequence	cue	Schuh	NaN	NaN	NaN	NaN	NaN	NaN	NaN	NaN	NaN	NaN	NaN	NaN
181.6697681000005	2.0017	sub-26	1	sequence	blank	blank	NaN	NaN	NaN	NaN	NaN	NaN	NaN	NaN	NaN	NaN	NaN	NaN
183.6714580000007	0.3002	sub-26	1	sequence	fixation	dot	NaN	NaN	NaN	NaN	NaN	NaN	NaN	NaN	NaN	NaN	NaN	NaN
183.9891359000012	0.0992	sub-26	1	sequence	stimulus	Katze	NaN	NaN	32.0	NaN	NaN	3.0	1.0	NaN	NaN	NaN	NaN	NaN
184.0883565000004	0.0335	sub-26	1	sequence	interval	dot	NaN	NaN	NaN	NaN	NaN	NaN	NaN	NaN	NaN	NaN	NaN	NaN
184.12184720000005	0.1	sub-26	1	sequence	stimulus	Stuhl	NaN	NaN	32.0	NaN	NaN	5.0	2.0	NaN	NaN	NaN	NaN	NaN
184.2218186000009	0.0335	sub-26	1	sequence	interval	dot	NaN	NaN	NaN	NaN	NaN	NaN	NaN	NaN	NaN	NaN	NaN	NaN
184.2552960000012	0.1	sub-26	1	sequence	stimulus	Gesicht	NaN	NaN	32.0	NaN	NaN	1.0	3.0	NaN	NaN	NaN	NaN	NaN
184.35526160000157	0.0335	sub-26	1	sequence	interval	dot	NaN	NaN	NaN	NaN	NaN	NaN	NaN	NaN	NaN	NaN	NaN	NaN
184.38876100000016	0.0999	sub-26	1	sequence	stimulus	Haus	NaN	NaN	32.0	NaN	NaN	2.0	4.0	NaN	NaN	NaN	NaN	NaN
184.48869470000136	0.0335	sub-26	1	sequence	interval	dot	NaN	NaN	NaN	NaN	NaN	NaN	NaN	NaN	NaN	NaN	NaN	NaN
184.5221631000004	0.1	sub-26	1	sequence	stimulus	Schuh	NaN	NaN	32.0	NaN	NaN	4.0	5.0	NaN	NaN	NaN	NaN	NaN
184.62214250000036	0.0334	sub-26	1	sequence	interval	dot	NaN	NaN	NaN	NaN	NaN	NaN	NaN	NaN	NaN	NaN	NaN	NaN
184.6555154000016	8.5217	sub-26	1	sequence	delay	dot	NaN	NaN	NaN	NaN	NaN	NaN	NaN	NaN	NaN	NaN	NaN	NaN
193.16529140000057	0.6646	sub-26	1	sequence	choice	choice	left	NaN	NaN	0.6405526999988069	True	NaN	NaN	left	True	5.0	2.0	5.0
193.83006520000163	0.5003	sub-26	1	sequence	feedback	NaN	NaN	NaN	NaN	NaN	NaN	NaN	NaN	NaN	NaN	NaN	NaN	NaN
194.33049430000028	1.0005	sub-26	1	sequence	cue	Schuh	NaN	NaN	NaN	NaN	NaN	NaN	NaN	NaN	NaN	NaN	NaN	NaN
195.33101870000064	2.0015	sub-26	1	sequence	blank	blank	NaN	NaN	NaN	NaN	NaN	NaN	NaN	NaN	NaN	NaN	NaN	NaN
197.33255180000012	0.3002	sub-26	1	sequence	fixation	dot	NaN	NaN	NaN	NaN	NaN	NaN	NaN	NaN	NaN	NaN	NaN	NaN
197.6503556000007	0.0991	sub-26	1	sequence	stimulus	Haus	NaN	NaN	32.0	NaN	NaN	2.0	1.0	NaN	NaN	NaN	NaN	NaN
197.7494317000001	0.0335	sub-26	1	sequence	interval	dot	NaN	NaN	NaN	NaN	NaN	NaN	NaN	NaN	NaN	NaN	NaN	NaN
197.7829275000004	0.0999	sub-26	1	sequence	stimulus	Stuhl	NaN	NaN	32.0	NaN	NaN	5.0	2.0	NaN	NaN	NaN	NaN	NaN
197.8828712000013	0.0335	sub-26	1	sequence	interval	dot	NaN	NaN	NaN	NaN	NaN	NaN	NaN	NaN	NaN	NaN	NaN	NaN
197.91633340000044	0.1	sub-26	1	sequence	stimulus	Gesicht	NaN	NaN	32.0	NaN	NaN	1.0	3.0	NaN	NaN	NaN	NaN	NaN
198.0163061000003	0.0335	sub-26	1	sequence	interval	dot	NaN	NaN	NaN	NaN	NaN	NaN	NaN	NaN	NaN	NaN	NaN	NaN
198.04978380000105	0.1	sub-26	1	sequence	stimulus	Katze	NaN	NaN	32.0	NaN	NaN	3.0	4.0	NaN	NaN	NaN	NaN	NaN
198.1497455000008	0.0335	sub-26	1	sequence	interval	dot	NaN	NaN	NaN	NaN	NaN	NaN	NaN	NaN	NaN	NaN	NaN	NaN
198.18323540000165	0.1	sub-26	1	sequence	stimulus	Schuh	NaN	NaN	32.0	NaN	NaN	4.0	5.0	NaN	NaN	NaN	NaN	NaN
198.28320460000032	0.0334	sub-26	1	sequence	interval	dot	NaN	NaN	NaN	NaN	NaN	NaN	NaN	NaN	NaN	NaN	NaN	NaN
198.31656830000065	8.5218	sub-26	1	sequence	delay	dot	NaN	NaN	NaN	NaN	NaN	NaN	NaN	NaN	NaN	NaN	NaN	NaN
206.81507860000056	0.6757	sub-26	1	sequence	choice	choice	right	NaN	NaN	0.6434556000003795	True	NaN	NaN	right	True	3.0	5.0	5.0
207.49088140000092	0.5002	sub-26	1	sequence	feedback	NaN	NaN	NaN	NaN	NaN	NaN	NaN	NaN	NaN	NaN	NaN	NaN	NaN
207.9912078000016	1.0008	sub-26	1	sequence	cue	Gesicht	NaN	NaN	NaN	NaN	NaN	NaN	NaN	NaN	NaN	NaN	NaN	NaN
208.99201020000143	2.0015	sub-26	1	sequence	blank	blank	NaN	NaN	NaN	NaN	NaN	NaN	NaN	NaN	NaN	NaN	NaN	NaN
210.9934916000002	0.3004	sub-26	1	sequence	fixation	dot	NaN	NaN	NaN	NaN	NaN	NaN	NaN	NaN	NaN	NaN	NaN	NaN
211.31208040000087	0.115	sub-26	1	sequence	stimulus	Haus	NaN	NaN	64.0	NaN	NaN	2.0	1.0	NaN	NaN	NaN	NaN	NaN
211.4271261000013	0.0669	sub-26	1	sequence	interval	dot	NaN	NaN	NaN	NaN	NaN	NaN	NaN	NaN	NaN	NaN	NaN	NaN
211.49404250000043	0.0999	sub-26	1	sequence	stimulus	Schuh	NaN	NaN	64.0	NaN	NaN	4.0	2.0	NaN	NaN	NaN	NaN	NaN
211.59397750000065	0.0669	sub-26	1	sequence	interval	dot	NaN	NaN	NaN	NaN	NaN	NaN	NaN	NaN	NaN	NaN	NaN	NaN
211.6608492000014	0.0999	sub-26	1	sequence	stimulus	Gesicht	NaN	NaN	64.0	NaN	NaN	1.0	3.0	NaN	NaN	NaN	NaN	NaN
211.76077970000009	0.0669	sub-26	1	sequence	interval	dot	NaN	NaN	NaN	NaN	NaN	NaN	NaN	NaN	NaN	NaN	NaN	NaN
211.8276549000002	0.1	sub-26	1	sequence	stimulus	Katze	NaN	NaN	64.0	NaN	NaN	3.0	4.0	NaN	NaN	NaN	NaN	NaN
211.92763530000047	0.0668	sub-26	1	sequence	interval	dot	NaN	NaN	NaN	NaN	NaN	NaN	NaN	NaN	NaN	NaN	NaN	NaN
211.99440460000005	0.1001	sub-26	1	sequence	stimulus	Stuhl	NaN	NaN	64.0	NaN	NaN	5.0	5.0	NaN	NaN	NaN	NaN	NaN
212.0944671000016	0.0667	sub-26	1	sequence	interval	dot	NaN	NaN	NaN	NaN	NaN	NaN	NaN	NaN	NaN	NaN	NaN	NaN
212.16118200000165	8.3715	sub-26	1	sequence	delay	dot	NaN	NaN	NaN	NaN	NaN	NaN	NaN	NaN	NaN	NaN	NaN	NaN
220.51673540000047	0.6184	sub-26	1	sequence	choice	choice	right	NaN	NaN	0.5970764000012423	True	NaN	NaN	right	True	5.0	3.0	3.0
221.1352525000002	0.5002	sub-26	1	sequence	feedback	NaN	NaN	NaN	NaN	NaN	NaN	NaN	NaN	NaN	NaN	NaN	NaN	NaN
221.63556040000003	1.0009	sub-26	1	sequence	cue	Schuh	NaN	NaN	NaN	NaN	NaN	NaN	NaN	NaN	NaN	NaN	NaN	NaN
222.6364561000009	2.0014	sub-26	1	sequence	blank	blank	NaN	NaN	NaN	NaN	NaN	NaN	NaN	NaN	NaN	NaN	NaN	NaN
224.6378665000011	0.3004	sub-26	1	sequence	fixation	dot	NaN	NaN	NaN	NaN	NaN	NaN	NaN	NaN	NaN	NaN	NaN	NaN
224.95571980000025	0.0991	sub-26	1	sequence	stimulus	Haus	NaN	NaN	512.0	NaN	NaN	2.0	1.0	NaN	NaN	NaN	NaN	NaN
225.05485150000092	0.5172	sub-26	1	sequence	interval	dot	NaN	NaN	NaN	NaN	NaN	NaN	NaN	NaN	NaN	NaN	NaN	NaN
225.5720581000005	0.1	sub-26	1	sequence	stimulus	Katze	NaN	NaN	512.0	NaN	NaN	3.0	2.0	NaN	NaN	NaN	NaN	NaN
225.67206140000053	0.5171	sub-26	1	sequence	interval	dot	NaN	NaN	NaN	NaN	NaN	NaN	NaN	NaN	NaN	NaN	NaN	NaN
226.1892047000001	0.1	sub-26	1	sequence	stimulus	Gesicht	NaN	NaN	512.0	NaN	NaN	1.0	3.0	NaN	NaN	NaN	NaN	NaN
226.28917890000048	0.5172	sub-26	1	sequence	interval	dot	NaN	NaN	NaN	NaN	NaN	NaN	NaN	NaN	NaN	NaN	NaN	NaN
226.8063870000005	0.1	sub-26	1	sequence	stimulus	Schuh	NaN	NaN	512.0	NaN	NaN	4.0	4.0	NaN	NaN	NaN	NaN	NaN
226.9063576000008	0.5172	sub-26	1	sequence	interval	dot	NaN	NaN	NaN	NaN	NaN	NaN	NaN	NaN	NaN	NaN	NaN	NaN
227.4235451000004	0.1	sub-26	1	sequence	stimulus	Stuhl	NaN	NaN	512.0	NaN	NaN	5.0	5.0	NaN	NaN	NaN	NaN	NaN
227.5235187000017	0.5171	sub-26	1	sequence	interval	dot	NaN	NaN	NaN	NaN	NaN	NaN	NaN	NaN	NaN	NaN	NaN	NaN
228.0406021000017	6.1531	sub-26	1	sequence	delay	dot	NaN	NaN	NaN	NaN	NaN	NaN	NaN	NaN	NaN	NaN	NaN	NaN
234.1664360000013	0.7133	sub-26	1	sequence	choice	choice	left	NaN	NaN	0.6720728000000236	True	NaN	NaN	left	True	4.0	5.0	4.0
234.8798383000012	0.5003	sub-26	1	sequence	feedback	NaN	NaN	NaN	NaN	NaN	NaN	NaN	NaN	NaN	NaN	NaN	NaN	NaN
239.20058150000116	0.4994	sub-26	1	localizer	stimulus	Schuh	NaN	0	1.4011441999991803	NaN	True	NaN	NaN	NaN	NaN	NaN	NaN	NaN
239.6834537000013	1.4011	sub-26	1	localizer	blank	interval	NaN	NaN	NaN	NaN	NaN	NaN	NaN	NaN	NaN	NaN	NaN	NaN
241.38548040000023	0.4997	sub-26	1	localizer	stimulus	Katze	NaN	180	2.3850714000000437	NaN	False	NaN	NaN	NaN	NaN	NaN	NaN	NaN
241.86861280000085	2.3851	sub-26	1	localizer	blank	interval	NaN	NaN	NaN	NaN	NaN	NaN	NaN	NaN	NaN	NaN	NaN	NaN
244.5548660000004	0.4995	sub-26	1	localizer	stimulus	Stuhl	NaN	0	2.435198099999951	NaN	True	NaN	NaN	NaN	NaN	NaN	NaN	NaN
245.0377957000001	2.4352	sub-26	1	localizer	blank	interval	NaN	NaN	NaN	NaN	NaN	NaN	NaN	NaN	NaN	NaN	NaN	NaN
247.77408710000051	0.4995	sub-26	1	localizer	stimulus	Stuhl	NaN	0	1.8681013999994605	NaN	True	NaN	NaN	NaN	NaN	NaN	NaN	NaN
248.25704730000143	1.8681	sub-26	1	localizer	blank	interval	NaN	NaN	NaN	NaN	NaN	NaN	NaN	NaN	NaN	NaN	NaN	NaN
250.4262279000013	0.4995	sub-26	1	localizer	stimulus	Schuh	NaN	180	2.101566000001185	0.4876499000001786	True	NaN	NaN	NaN	NaN	NaN	NaN	NaN
250.90921340000023	2.1016	sub-26	1	localizer	blank	interval	NaN	NaN	NaN	NaN	NaN	NaN	NaN	NaN	NaN	NaN	NaN	NaN
253.31216620000123	0.4994	sub-26	1	localizer	stimulus	Schuh	NaN	0	1.9348141999998631	NaN	True	NaN	NaN	NaN	NaN	NaN	NaN	NaN
253.79495110000065	1.9348	sub-26	1	localizer	blank	interval	NaN	NaN	NaN	NaN	NaN	NaN	NaN	NaN	NaN	NaN	NaN	NaN
256.0309296000014	0.4996	sub-26	1	localizer	stimulus	Haus	NaN	180	1.8345208000009734	0.5470027999999729	True	NaN	NaN	NaN	NaN	NaN	NaN	NaN
256.5139142000007	1.8345	sub-26	1	localizer	blank	interval	NaN	NaN	NaN	NaN	NaN	NaN	NaN	NaN	NaN	NaN	NaN	NaN
258.64953940000123	0.4996	sub-26	1	localizer	stimulus	Katze	NaN	0	2.40183739999884	NaN	True	NaN	NaN	NaN	NaN	NaN	NaN	NaN
259.1325031000015	2.4018	sub-26	1	localizer	blank	interval	NaN	NaN	NaN	NaN	NaN	NaN	NaN	NaN	NaN	NaN	NaN	NaN
261.83549550000134	0.4995	sub-26	1	localizer	stimulus	Haus	NaN	0	3.4526310000001104	NaN	True	NaN	NaN	NaN	NaN	NaN	NaN	NaN
262.31846490000135	3.4526	sub-26	1	localizer	blank	interval	NaN	NaN	NaN	NaN	NaN	NaN	NaN	NaN	NaN	NaN	NaN	NaN
266.0722262000017	0.4995	sub-26	1	localizer	stimulus	Stuhl	NaN	0	2.9856353999985004	NaN	True	NaN	NaN	NaN	NaN	NaN	NaN	NaN
266.5551987000017	2.9856	sub-26	1	localizer	blank	interval	NaN	NaN	NaN	NaN	NaN	NaN	NaN	NaN	NaN	NaN	NaN	NaN
269.84193030000097	0.4995	sub-26	1	localizer	stimulus	Gesicht	NaN	0	2.6353308000016114	NaN	True	NaN	NaN	NaN	NaN	NaN	NaN	NaN
270.3249058000001	2.6353	sub-26	1	localizer	blank	interval	NaN	NaN	NaN	NaN	NaN	NaN	NaN	NaN	NaN	NaN	NaN	NaN
273.2615229000003	0.4994	sub-26	1	localizer	stimulus	Stuhl	NaN	0	3.6863530999999057	NaN	True	NaN	NaN	NaN	NaN	NaN	NaN	NaN
273.7443587000016	3.6864	sub-26	1	localizer	blank	interval	NaN	NaN	NaN	NaN	NaN	NaN	NaN	NaN	NaN	NaN	NaN	NaN
277.73190690000047	0.4994	sub-26	1	localizer	stimulus	Haus	NaN	0	2.852031700000225	NaN	True	NaN	NaN	NaN	NaN	NaN	NaN	NaN
278.21481700000004	2.852	sub-26	1	localizer	blank	interval	NaN	NaN	NaN	NaN	NaN	NaN	NaN	NaN	NaN	NaN	NaN	NaN
281.3679419	0.4995	sub-26	1	localizer	stimulus	Haus	NaN	0	2.368446500000573	NaN	True	NaN	NaN	NaN	NaN	NaN	NaN	NaN
281.8509279000009	2.3684	sub-26	1	localizer	blank	interval	NaN	NaN	NaN	NaN	NaN	NaN	NaN	NaN	NaN	NaN	NaN	NaN
284.5204535000012	0.4996	sub-26	1	localizer	stimulus	Gesicht	NaN	0	2.985632500000065	NaN	True	NaN	NaN	NaN	NaN	NaN	NaN	NaN
285.00344680000126	2.9856	sub-26	1	localizer	blank	interval	NaN	NaN	NaN	NaN	NaN	NaN	NaN	NaN	NaN	NaN	NaN	NaN
288.29018070000166	0.4995	sub-26	1	localizer	stimulus	Gesicht	NaN	0	3.118779899999936	NaN	True	NaN	NaN	NaN	NaN	NaN	NaN	NaN
288.7734857000014	3.1188	sub-26	1	localizer	blank	interval	NaN	NaN	NaN	NaN	NaN	NaN	NaN	NaN	NaN	NaN	NaN	NaN
292.1933302000016	0.4995	sub-26	1	localizer	stimulus	Katze	NaN	0	1.7179161999992516	NaN	True	NaN	NaN	NaN	NaN	NaN	NaN	NaN
292.6763435000012	1.7179	sub-26	1	localizer	blank	interval	NaN	NaN	NaN	NaN	NaN	NaN	NaN	NaN	NaN	NaN	NaN	NaN
294.69557110000096	0.4993	sub-26	1	localizer	stimulus	Katze	NaN	0	1.8347939000013866	NaN	True	NaN	NaN	NaN	NaN	NaN	NaN	NaN
295.17838440000014	1.8348	sub-26	1	localizer	blank	interval	NaN	NaN	NaN	NaN	NaN	NaN	NaN	NaN	NaN	NaN	NaN	NaN
297.31422080000084	0.4996	sub-26	1	localizer	stimulus	Schuh	NaN	0	2.518505099998947	NaN	True	NaN	NaN	NaN	NaN	NaN	NaN	NaN
297.7972352000015	2.5185	sub-26	1	localizer	blank	interval	NaN	NaN	NaN	NaN	NaN	NaN	NaN	NaN	NaN	NaN	NaN	NaN
300.6168021000012	0.4996	sub-26	1	localizer	stimulus	Stuhl	NaN	180	2.451864700000442	0.4491164999999455	True	NaN	NaN	NaN	NaN	NaN	NaN	NaN
301.09982630000013	2.4519	sub-26	1	localizer	blank	interval	NaN	NaN	NaN	NaN	NaN	NaN	NaN	NaN	NaN	NaN	NaN	NaN
303.8527830000003	0.4995	sub-26	1	localizer	stimulus	Katze	NaN	0	2.8689453000006324	NaN	True	NaN	NaN	NaN	NaN	NaN	NaN	NaN
304.33574640000006	2.8689	sub-26	1	localizer	blank	interval	NaN	NaN	NaN	NaN	NaN	NaN	NaN	NaN	NaN	NaN	NaN	NaN
307.5057527000008	0.4995	sub-26	1	localizer	stimulus	Gesicht	NaN	0	2.6186674000000494	NaN	True	NaN	NaN	NaN	NaN	NaN	NaN	NaN
307.9887346000014	2.6187	sub-26	1	localizer	blank	interval	NaN	NaN	NaN	NaN	NaN	NaN	NaN	NaN	NaN	NaN	NaN	NaN
310.90851290000137	0.4995	sub-26	1	localizer	stimulus	Schuh	NaN	0	2.6520703000005597	NaN	True	NaN	NaN	NaN	NaN	NaN	NaN	NaN
311.39145500000086	2.6521	sub-26	1	localizer	blank	interval	NaN	NaN	NaN	NaN	NaN	NaN	NaN	NaN	NaN	NaN	NaN	NaN
314.3445999000014	0.4995	sub-26	1	localizer	stimulus	Gesicht	NaN	180	2.735570500000904	0.5052777000000788	True	NaN	NaN	NaN	NaN	NaN	NaN	NaN
314.82757440000023	2.7356	sub-26	1	localizer	blank	interval	NaN	NaN	NaN	NaN	NaN	NaN	NaN	NaN	NaN	NaN	NaN	NaN
317.86451510000006	0.4993	sub-26	1	localizer	stimulus	Haus	NaN	0	2.4183524000000034	NaN	True	NaN	NaN	NaN	NaN	NaN	NaN	NaN
318.3472427000015	2.4184	sub-26	1	localizer	blank	interval	NaN	NaN	NaN	NaN	NaN	NaN	NaN	NaN	NaN	NaN	NaN	NaN
324.2520499000002	1.0006	sub-26	1	sequence	cue	Haus	NaN	NaN	NaN	NaN	NaN	NaN	NaN	NaN	NaN	NaN	NaN	NaN
325.25261750000027	2.0016	sub-26	1	sequence	blank	blank	NaN	NaN	NaN	NaN	NaN	NaN	NaN	NaN	NaN	NaN	NaN	NaN
327.2542194000016	0.3003	sub-26	1	sequence	fixation	dot	NaN	NaN	NaN	NaN	NaN	NaN	NaN	NaN	NaN	NaN	NaN	NaN
327.57193520000146	0.0993	sub-26	1	sequence	stimulus	Katze	NaN	NaN	64.0	NaN	NaN	3.0	1.0	NaN	NaN	NaN	NaN	NaN
327.6712013000015	0.0668	sub-26	1	sequence	interval	dot	NaN	NaN	NaN	NaN	NaN	NaN	NaN	NaN	NaN	NaN	NaN	NaN
327.7380116000004	0.1	sub-26	1	sequence	stimulus	Stuhl	NaN	NaN	64.0	NaN	NaN	5.0	2.0	NaN	NaN	NaN	NaN	NaN
327.8380080000006	0.0668	sub-26	1	sequence	interval	dot	NaN	NaN	NaN	NaN	NaN	NaN	NaN	NaN	NaN	NaN	NaN	NaN
327.90482450000127	0.1	sub-26	1	sequence	stimulus	Schuh	NaN	NaN	64.0	NaN	NaN	4.0	3.0	NaN	NaN	NaN	NaN	NaN
328.0048009000002	0.0668	sub-26	1	sequence	interval	dot	NaN	NaN	NaN	NaN	NaN	NaN	NaN	NaN	NaN	NaN	NaN	NaN
328.0716031000011	0.1	sub-26	1	sequence	stimulus	Gesicht	NaN	NaN	64.0	NaN	NaN	1.0	4.0	NaN	NaN	NaN	NaN	NaN
328.17160930000136	0.0668	sub-26	1	sequence	interval	dot	NaN	NaN	NaN	NaN	NaN	NaN	NaN	NaN	NaN	NaN	NaN	NaN
328.2384507000006	0.1	sub-26	1	sequence	stimulus	Haus	NaN	NaN	64.0	NaN	NaN	2.0	5.0	NaN	NaN	NaN	NaN	NaN
328.3384009000001	0.0667	sub-26	1	sequence	interval	dot	NaN	NaN	NaN	NaN	NaN	NaN	NaN	NaN	NaN	NaN	NaN	NaN
328.40511610000067	8.3717	sub-26	1	sequence	delay	dot	NaN	NaN	NaN	NaN	NaN	NaN	NaN	NaN	NaN	NaN	NaN	NaN
336.7602050000005	0.7358	sub-26	1	sequence	choice	choice	left	NaN	NaN	0.7049465000000055	True	NaN	NaN	left	True	5.0	4.0	5.0
337.49618740000005	0.5002	sub-26	1	sequence	feedback	NaN	NaN	NaN	NaN	NaN	NaN	NaN	NaN	NaN	NaN	NaN	NaN	NaN
337.9965005000013	1.0007	sub-26	1	sequence	cue	Stuhl	NaN	NaN	NaN	NaN	NaN	NaN	NaN	NaN	NaN	NaN	NaN	NaN
338.9972264000007	2.0016	sub-26	1	sequence	blank	blank	NaN	NaN	NaN	NaN	NaN	NaN	NaN	NaN	NaN	NaN	NaN	NaN
340.9988350000003	0.3004	sub-26	1	sequence	fixation	dot	NaN	NaN	NaN	NaN	NaN	NaN	NaN	NaN	NaN	NaN	NaN	NaN
341.31680790000064	0.1156	sub-26	1	sequence	stimulus	Katze	NaN	NaN	128.0	NaN	NaN	3.0	1.0	NaN	NaN	NaN	NaN	NaN
341.4324119000012	0.1335	sub-26	1	sequence	interval	dot	NaN	NaN	NaN	NaN	NaN	NaN	NaN	NaN	NaN	NaN	NaN	NaN
341.56588210000155	0.1	sub-26	1	sequence	stimulus	Schuh	NaN	NaN	128.0	NaN	NaN	4.0	2.0	NaN	NaN	NaN	NaN	NaN
341.66583450000144	0.1336	sub-26	1	sequence	interval	dot	NaN	NaN	NaN	NaN	NaN	NaN	NaN	NaN	NaN	NaN	NaN	NaN
341.79938760000005	0.1	sub-26	1	sequence	stimulus	Gesicht	NaN	NaN	128.0	NaN	NaN	1.0	3.0	NaN	NaN	NaN	NaN	NaN
341.89937380000083	0.1335	sub-26	1	sequence	interval	dot	NaN	NaN	NaN	NaN	NaN	NaN	NaN	NaN	NaN	NaN	NaN	NaN
342.0329096000005	0.1	sub-26	1	sequence	stimulus	Stuhl	NaN	NaN	128.0	NaN	NaN	5.0	4.0	NaN	NaN	NaN	NaN	NaN
342.1328871000005	0.1336	sub-26	1	sequence	interval	dot	NaN	NaN	NaN	NaN	NaN	NaN	NaN	NaN	NaN	NaN	NaN	NaN
342.2664635000001	0.1	sub-26	1	sequence	stimulus	Haus	NaN	NaN	128.0	NaN	NaN	2.0	5.0	NaN	NaN	NaN	NaN	NaN
342.3664238000001	0.1334	sub-26	1	sequence	interval	dot	NaN	NaN	NaN	NaN	NaN	NaN	NaN	NaN	NaN	NaN	NaN	NaN
342.4998518000011	8.0548	sub-26	1	sequence	delay	dot	NaN	NaN	NaN	NaN	NaN	NaN	NaN	NaN	NaN	NaN	NaN	NaN
350.5399866000007	0.6504	sub-26	1	sequence	choice	choice	right	NaN	NaN	0.6311807000001863	True	NaN	NaN	right	True	5.0	4.0	4.0
351.19058810000024	0.5002	sub-26	1	sequence	feedback	NaN	NaN	NaN	NaN	NaN	NaN	NaN	NaN	NaN	NaN	NaN	NaN	NaN
351.69090250000045	1.0007	sub-26	1	sequence	cue	Stuhl	NaN	NaN	NaN	NaN	NaN	NaN	NaN	NaN	NaN	NaN	NaN	NaN
352.6915923000015	2.0016	sub-26	1	sequence	blank	blank	NaN	NaN	NaN	NaN	NaN	NaN	NaN	NaN	NaN	NaN	NaN	NaN
354.69318040000144	0.3001	sub-26	1	sequence	fixation	dot	NaN	NaN	NaN	NaN	NaN	NaN	NaN	NaN	NaN	NaN	NaN	NaN
355.0133106000012	0.1134	sub-26	1	sequence	stimulus	Haus	NaN	NaN	512.0	NaN	NaN	2.0	1.0	NaN	NaN	NaN	NaN	NaN
355.1267486000015	0.5172	sub-26	1	sequence	interval	dot	NaN	NaN	NaN	NaN	NaN	NaN	NaN	NaN	NaN	NaN	NaN	NaN
355.643923900001	0.1	sub-26	1	sequence	stimulus	Katze	NaN	NaN	512.0	NaN	NaN	3.0	2.0	NaN	NaN	NaN	NaN	NaN
355.74392050000097	0.5172	sub-26	1	sequence	interval	dot	NaN	NaN	NaN	NaN	NaN	NaN	NaN	NaN	NaN	NaN	NaN	NaN
356.2610798000005	0.1	sub-26	1	sequence	stimulus	Gesicht	NaN	NaN	512.0	NaN	NaN	1.0	3.0	NaN	NaN	NaN	NaN	NaN
356.3610675	0.5172	sub-26	1	sequence	interval	dot	NaN	NaN	NaN	NaN	NaN	NaN	NaN	NaN	NaN	NaN	NaN	NaN
356.8782693000012	0.1	sub-26	1	sequence	stimulus	Schuh	NaN	NaN	512.0	NaN	NaN	4.0	4.0	NaN	NaN	NaN	NaN	NaN
356.97823040000003	0.5172	sub-26	1	sequence	interval	dot	NaN	NaN	NaN	NaN	NaN	NaN	NaN	NaN	NaN	NaN	NaN	NaN
357.4954116000008	0.1	sub-26	1	sequence	stimulus	Stuhl	NaN	NaN	512.0	NaN	NaN	5.0	5.0	NaN	NaN	NaN	NaN	NaN
357.59541480000007	0.5171	sub-26	1	sequence	interval	dot	NaN	NaN	NaN	NaN	NaN	NaN	NaN	NaN	NaN	NaN	NaN	NaN
358.1124797000012	6.153	sub-26	1	sequence	delay	dot	NaN	NaN	NaN	NaN	NaN	NaN	NaN	NaN	NaN	NaN	NaN	NaN
364.2416437000011	0.6264	sub-26	1	sequence	choice	choice	left	NaN	NaN	0.6004059999995661	True	NaN	NaN	left	True	5.0	1.0	5.0
364.86820050000097	0.5003	sub-26	1	sequence	feedback	NaN	NaN	NaN	NaN	NaN	NaN	NaN	NaN	NaN	NaN	NaN	NaN	NaN
365.3686117000016	1.0007	sub-26	1	sequence	cue	Schuh	NaN	NaN	NaN	NaN	NaN	NaN	NaN	NaN	NaN	NaN	NaN	NaN
366.3692867000009	2.0017	sub-26	1	sequence	blank	blank	NaN	NaN	NaN	NaN	NaN	NaN	NaN	NaN	NaN	NaN	NaN	NaN
368.3709653000005	0.3001	sub-26	1	sequence	fixation	dot	NaN	NaN	NaN	NaN	NaN	NaN	NaN	NaN	NaN	NaN	NaN	NaN
368.6885761000012	0.0992	sub-26	1	sequence	stimulus	Haus	NaN	NaN	32.0	NaN	NaN	2.0	1.0	NaN	NaN	NaN	NaN	NaN
368.7878038000017	0.0335	sub-26	1	sequence	interval	dot	NaN	NaN	NaN	NaN	NaN	NaN	NaN	NaN	NaN	NaN	NaN	NaN
368.8212662000005	0.1	sub-26	1	sequence	stimulus	Stuhl	NaN	NaN	32.0	NaN	NaN	5.0	2.0	NaN	NaN	NaN	NaN	NaN
368.9212301000007	0.0335	sub-26	1	sequence	interval	dot	NaN	NaN	NaN	NaN	NaN	NaN	NaN	NaN	NaN	NaN	NaN	NaN
368.9547160000002	0.1	sub-26	1	sequence	stimulus	Gesicht	NaN	NaN	32.0	NaN	NaN	1.0	3.0	NaN	NaN	NaN	NaN	NaN
369.0546897000004	0.0335	sub-26	1	sequence	interval	dot	NaN	NaN	NaN	NaN	NaN	NaN	NaN	NaN	NaN	NaN	NaN	NaN
369.0881599000004	0.1	sub-26	1	sequence	stimulus	Katze	NaN	NaN	32.0	NaN	NaN	3.0	4.0	NaN	NaN	NaN	NaN	NaN
369.1881152000005	0.0335	sub-26	1	sequence	interval	dot	NaN	NaN	NaN	NaN	NaN	NaN	NaN	NaN	NaN	NaN	NaN	NaN
369.22158480000144	0.1	sub-26	1	sequence	stimulus	Schuh	NaN	NaN	32.0	NaN	NaN	4.0	5.0	NaN	NaN	NaN	NaN	NaN
369.32160080000176	0.0333	sub-26	1	sequence	interval	dot	NaN	NaN	NaN	NaN	NaN	NaN	NaN	NaN	NaN	NaN	NaN	NaN
369.3549255000016	8.5218	sub-26	1	sequence	delay	dot	NaN	NaN	NaN	NaN	NaN	NaN	NaN	NaN	NaN	NaN	NaN	NaN
377.86535950000143	0.5971	sub-26	1	sequence	choice	choice	right	NaN	NaN	0.5810557000004337	True	NaN	NaN	right	True	4.0	5.0	5.0
378.46263310000177	0.5002	sub-26	1	sequence	feedback	NaN	NaN	NaN	NaN	NaN	NaN	NaN	NaN	NaN	NaN	NaN	NaN	NaN
378.963057500001	1.0006	sub-26	1	sequence	cue	Katze	NaN	NaN	NaN	NaN	NaN	NaN	NaN	NaN	NaN	NaN	NaN	NaN
379.9636502000012	2.0016	sub-26	1	sequence	blank	blank	NaN	NaN	NaN	NaN	NaN	NaN	NaN	NaN	NaN	NaN	NaN	NaN
381.9652963000008	0.3003	sub-26	1	sequence	fixation	dot	NaN	NaN	NaN	NaN	NaN	NaN	NaN	NaN	NaN	NaN	NaN	NaN
382.28326000000015	0.1157	sub-26	1	sequence	stimulus	Schuh	NaN	NaN	512.0	NaN	NaN	4.0	1.0	NaN	NaN	NaN	NaN	NaN
382.3990095000008	0.5172	sub-26	1	sequence	interval	dot	NaN	NaN	NaN	NaN	NaN	NaN	NaN	NaN	NaN	NaN	NaN	NaN
382.9161814000017	0.1	sub-26	1	sequence	stimulus	Gesicht	NaN	NaN	512.0	NaN	NaN	1.0	2.0	NaN	NaN	NaN	NaN	NaN
383.0161538000011	0.517	sub-26	1	sequence	interval	dot	NaN	NaN	NaN	NaN	NaN	NaN	NaN	NaN	NaN	NaN	NaN	NaN
383.53314710000086	0.1	sub-26	1	sequence	stimulus	Stuhl	NaN	NaN	512.0	NaN	NaN	5.0	3.0	NaN	NaN	NaN	NaN	NaN
383.6331458000004	0.5172	sub-26	1	sequence	interval	dot	NaN	NaN	NaN	NaN	NaN	NaN	NaN	NaN	NaN	NaN	NaN	NaN
384.1503626000013	0.0999	sub-26	1	sequence	stimulus	Haus	NaN	NaN	512.0	NaN	NaN	2.0	4.0	NaN	NaN	NaN	NaN	NaN
384.2503009000011	0.5172	sub-26	1	sequence	interval	dot	NaN	NaN	NaN	NaN	NaN	NaN	NaN	NaN	NaN	NaN	NaN	NaN
384.7674816000017	0.1	sub-26	1	sequence	stimulus	Katze	NaN	NaN	512.0	NaN	NaN	3.0	5.0	NaN	NaN	NaN	NaN	NaN
384.8674734000015	0.5171	sub-26	1	sequence	interval	dot	NaN	NaN	NaN	NaN	NaN	NaN	NaN	NaN	NaN	NaN	NaN	NaN
385.3845543000007	6.1532	sub-26	1	sequence	delay	dot	NaN	NaN	NaN	NaN	NaN	NaN	NaN	NaN	NaN	NaN	NaN	NaN
391.5151320000005	0.8253	sub-26	1	sequence	choice	choice	right	NaN	NaN	0.7920331999994232	True	NaN	NaN	right	True	3.0	5.0	5.0
392.34054280000055	0.5	sub-26	1	sequence	feedback	NaN	NaN	NaN	NaN	NaN	NaN	NaN	NaN	NaN	NaN	NaN	NaN	NaN
392.84073980000176	1.0007	sub-26	1	sequence	cue	Schuh	NaN	NaN	NaN	NaN	NaN	NaN	NaN	NaN	NaN	NaN	NaN	NaN
393.8414865000013	2.0016	sub-26	1	sequence	blank	blank	NaN	NaN	NaN	NaN	NaN	NaN	NaN	NaN	NaN	NaN	NaN	NaN
395.8431322000015	0.3002	sub-26	1	sequence	fixation	dot	NaN	NaN	NaN	NaN	NaN	NaN	NaN	NaN	NaN	NaN	NaN	NaN
396.1615623000016	0.1151	sub-26	1	sequence	stimulus	Gesicht	NaN	NaN	128.0	NaN	NaN	1.0	1.0	NaN	NaN	NaN	NaN	NaN
396.2766671000009	0.1336	sub-26	1	sequence	interval	dot	NaN	NaN	NaN	NaN	NaN	NaN	NaN	NaN	NaN	NaN	NaN	NaN
396.4102362000013	0.1	sub-26	1	sequence	stimulus	Stuhl	NaN	NaN	128.0	NaN	NaN	5.0	2.0	NaN	NaN	NaN	NaN	NaN
396.5101896000015	0.1336	sub-26	1	sequence	interval	dot	NaN	NaN	NaN	NaN	NaN	NaN	NaN	NaN	NaN	NaN	NaN	NaN
396.6437686000008	0.0999	sub-26	1	sequence	stimulus	Katze	NaN	NaN	128.0	NaN	NaN	3.0	3.0	NaN	NaN	NaN	NaN	NaN
396.74371320000137	0.1336	sub-26	1	sequence	interval	dot	NaN	NaN	NaN	NaN	NaN	NaN	NaN	NaN	NaN	NaN	NaN	NaN
396.8772893000005	0.1	sub-26	1	sequence	stimulus	Schuh	NaN	NaN	128.0	NaN	NaN	4.0	4.0	NaN	NaN	NaN	NaN	NaN
396.9772519000017	0.1336	sub-26	1	sequence	interval	dot	NaN	NaN	NaN	NaN	NaN	NaN	NaN	NaN	NaN	NaN	NaN	NaN
397.1108288000014	0.0999	sub-26	1	sequence	stimulus	Haus	NaN	NaN	128.0	NaN	NaN	2.0	5.0	NaN	NaN	NaN	NaN	NaN
397.2107607000016	0.1334	sub-26	1	sequence	interval	dot	NaN	NaN	NaN	NaN	NaN	NaN	NaN	NaN	NaN	NaN	NaN	NaN
397.3442050000013	8.0548	sub-26	1	sequence	delay	dot	NaN	NaN	NaN	NaN	NaN	NaN	NaN	NaN	NaN	NaN	NaN	NaN
405.37276740000016	0.5786	sub-26	1	sequence	choice	choice	right	NaN	NaN	0.54678419999982	True	NaN	NaN	right	True	5.0	4.0	4.0
405.9515724000012	0.5002	sub-26	1	sequence	feedback	NaN	NaN	NaN	NaN	NaN	NaN	NaN	NaN	NaN	NaN	NaN	NaN	NaN
406.4518734000012	1.0007	sub-26	1	sequence	cue	Stuhl	NaN	NaN	NaN	NaN	NaN	NaN	NaN	NaN	NaN	NaN	NaN	NaN
407.452570200001	2.0016	sub-26	1	sequence	blank	blank	NaN	NaN	NaN	NaN	NaN	NaN	NaN	NaN	NaN	NaN	NaN	NaN
409.4542086000001	0.3002	sub-26	1	sequence	fixation	dot	NaN	NaN	NaN	NaN	NaN	NaN	NaN	NaN	NaN	NaN	NaN	NaN
409.77178300000014	0.0992	sub-26	1	sequence	stimulus	Haus	NaN	NaN	64.0	NaN	NaN	2.0	1.0	NaN	NaN	NaN	NaN	NaN
409.87100740000096	0.0669	sub-26	1	sequence	interval	dot	NaN	NaN	NaN	NaN	NaN	NaN	NaN	NaN	NaN	NaN	NaN	NaN
409.9378843000013	0.1	sub-26	1	sequence	stimulus	Schuh	NaN	NaN	64.0	NaN	NaN	4.0	2.0	NaN	NaN	NaN	NaN	NaN
410.03788590000113	0.0668	sub-26	1	sequence	interval	dot	NaN	NaN	NaN	NaN	NaN	NaN	NaN	NaN	NaN	NaN	NaN	NaN
410.1046456000004	0.1001	sub-26	1	sequence	stimulus	Gesicht	NaN	NaN	64.0	NaN	NaN	1.0	3.0	NaN	NaN	NaN	NaN	NaN
410.2047348000015	0.0668	sub-26	1	sequence	interval	dot	NaN	NaN	NaN	NaN	NaN	NaN	NaN	NaN	NaN	NaN	NaN	NaN
410.2715364000014	0.1	sub-26	1	sequence	stimulus	Katze	NaN	NaN	64.0	NaN	NaN	3.0	4.0	NaN	NaN	NaN	NaN	NaN
410.37153950000175	0.0668	sub-26	1	sequence	interval	dot	NaN	NaN	NaN	NaN	NaN	NaN	NaN	NaN	NaN	NaN	NaN	NaN
410.4383525000012	0.1	sub-26	1	sequence	stimulus	Stuhl	NaN	NaN	64.0	NaN	NaN	5.0	5.0	NaN	NaN	NaN	NaN	NaN
410.5383438000008	0.0667	sub-26	1	sequence	interval	dot	NaN	NaN	NaN	NaN	NaN	NaN	NaN	NaN	NaN	NaN	NaN	NaN
410.6050627000004	8.3882	sub-26	1	sequence	delay	dot	NaN	NaN	NaN	NaN	NaN	NaN	NaN	NaN	NaN	NaN	NaN	NaN
418.9704272000017	0.6085	sub-26	1	sequence	choice	choice	left	NaN	NaN	0.5846425999989151	True	NaN	NaN	left	True	5.0	3.0	5.0
419.57913160000135	0.5002	sub-26	1	sequence	feedback	NaN	NaN	NaN	NaN	NaN	NaN	NaN	NaN	NaN	NaN	NaN	NaN	NaN
420.0794824000004	1.0007	sub-26	1	sequence	cue	Schuh	NaN	NaN	NaN	NaN	NaN	NaN	NaN	NaN	NaN	NaN	NaN	NaN
421.0801460000002	2.0017	sub-26	1	sequence	blank	blank	NaN	NaN	NaN	NaN	NaN	NaN	NaN	NaN	NaN	NaN	NaN	NaN
423.081851500001	0.3002	sub-26	1	sequence	fixation	dot	NaN	NaN	NaN	NaN	NaN	NaN	NaN	NaN	NaN	NaN	NaN	NaN
423.40042600000015	0.1151	sub-26	1	sequence	stimulus	Katze	NaN	NaN	32.0	NaN	NaN	3.0	1.0	NaN	NaN	NaN	NaN	NaN
423.5155011000006	0.0335	sub-26	1	sequence	interval	dot	NaN	NaN	NaN	NaN	NaN	NaN	NaN	NaN	NaN	NaN	NaN	NaN
423.5489619	0.1	sub-26	1	sequence	stimulus	Stuhl	NaN	NaN	32.0	NaN	NaN	5.0	2.0	NaN	NaN	NaN	NaN	NaN
423.6489384000015	0.0335	sub-26	1	sequence	interval	dot	NaN	NaN	NaN	NaN	NaN	NaN	NaN	NaN	NaN	NaN	NaN	NaN
423.682428600001	0.1	sub-26	1	sequence	stimulus	Gesicht	NaN	NaN	32.0	NaN	NaN	1.0	3.0	NaN	NaN	NaN	NaN	NaN
423.78241420000086	0.0335	sub-26	1	sequence	interval	dot	NaN	NaN	NaN	NaN	NaN	NaN	NaN	NaN	NaN	NaN	NaN	NaN
423.8159129000014	0.1	sub-26	1	sequence	stimulus	Haus	NaN	NaN	32.0	NaN	NaN	2.0	4.0	NaN	NaN	NaN	NaN	NaN
423.91586890000144	0.0335	sub-26	1	sequence	interval	dot	NaN	NaN	NaN	NaN	NaN	NaN	NaN	NaN	NaN	NaN	NaN	NaN
423.9493292000007	0.1	sub-26	1	sequence	stimulus	Schuh	NaN	NaN	32.0	NaN	NaN	4.0	5.0	NaN	NaN	NaN	NaN	NaN
424.0493015000011	0.0334	sub-26	1	sequence	interval	dot	NaN	NaN	NaN	NaN	NaN	NaN	NaN	NaN	NaN	NaN	NaN	NaN
424.08268510000016	8.5216	sub-26	1	sequence	delay	dot	NaN	NaN	NaN	NaN	NaN	NaN	NaN	NaN	NaN	NaN	NaN	NaN
432.59418730000107	0.6792	sub-26	1	sequence	choice	choice	left	NaN	NaN	0.653511399999843	True	NaN	NaN	left	True	5.0	4.0	5.0
433.2735313000012	0.5002	sub-26	1	sequence	feedback	NaN	NaN	NaN	NaN	NaN	NaN	NaN	NaN	NaN	NaN	NaN	NaN	NaN
433.7740293000006	23.8524	sub-26	1	other	break	break	NaN	NaN	NaN	NaN	NaN	NaN	NaN	NaN	NaN	NaN	NaN	NaN
461.446965000001	0.4995	sub-26	1	localizer	stimulus	Haus	NaN	0	1.6848064000005252	NaN	True	NaN	NaN	NaN	NaN	NaN	NaN	NaN
461.9464707000007	1.6848	sub-26	1	localizer	blank	interval	NaN	NaN	NaN	NaN	NaN	NaN	NaN	NaN	NaN	NaN	NaN	NaN
463.9323516000004	0.4996	sub-26	1	localizer	stimulus	Schuh	NaN	0	2.568648699998448	NaN	True	NaN	NaN	NaN	NaN	NaN	NaN	NaN
464.41539380000177	2.5686	sub-26	1	localizer	blank	interval	NaN	NaN	NaN	NaN	NaN	NaN	NaN	NaN	NaN	NaN	NaN	NaN
467.2850230000004	0.4995	sub-26	1	localizer	stimulus	Schuh	NaN	0	2.9022482999990302	NaN	True	NaN	NaN	NaN	NaN	NaN	NaN	NaN
467.767950200001	2.9022	sub-26	1	localizer	blank	interval	NaN	NaN	NaN	NaN	NaN	NaN	NaN	NaN	NaN	NaN	NaN	NaN
470.97129570000106	0.4996	sub-26	1	localizer	stimulus	Gesicht	NaN	0	3.4526691999999457	NaN	True	NaN	NaN	NaN	NaN	NaN	NaN	NaN
471.4542973000007	3.4527	sub-26	1	localizer	blank	interval	NaN	NaN	NaN	NaN	NaN	NaN	NaN	NaN	NaN	NaN	NaN	NaN
475.2081154000007	0.4995	sub-26	1	localizer	stimulus	Haus	NaN	180	2.535260800001197	0.4737844999999652	True	NaN	NaN	NaN	NaN	NaN	NaN	NaN
475.6910585000005	2.5353	sub-26	1	localizer	blank	interval	NaN	NaN	NaN	NaN	NaN	NaN	NaN	NaN	NaN	NaN	NaN	NaN
478.5274752000005	0.4995	sub-26	1	localizer	stimulus	Haus	NaN	0	2.6519944000010014	NaN	True	NaN	NaN	NaN	NaN	NaN	NaN	NaN
479.0104133000005	2.652	sub-26	1	localizer	blank	interval	NaN	NaN	NaN	NaN	NaN	NaN	NaN	NaN	NaN	NaN	NaN	NaN
481.963538	0.4995	sub-26	1	localizer	stimulus	Stuhl	NaN	0	1.834782100000666	NaN	True	NaN	NaN	NaN	NaN	NaN	NaN	NaN
482.44650550000006	1.8348	sub-26	1	localizer	blank	interval	NaN	NaN	NaN	NaN	NaN	NaN	NaN	NaN	NaN	NaN	NaN	NaN
484.582429600001	0.4996	sub-26	1	localizer	stimulus	Katze	NaN	0	2.968929599999683	NaN	True	NaN	NaN	NaN	NaN	NaN	NaN	NaN
485.0654491000005	2.9689	sub-26	1	localizer	blank	interval	NaN	NaN	NaN	NaN	NaN	NaN	NaN	NaN	NaN	NaN	NaN	NaN
488.33537780000006	0.4995	sub-26	1	localizer	stimulus	Schuh	NaN	180	2.451853299999186	0.474522499998784	True	NaN	NaN	NaN	NaN	NaN	NaN	NaN
488.818331800001	2.4519	sub-26	1	localizer	blank	interval	NaN	NaN	NaN	NaN	NaN	NaN	NaN	NaN	NaN	NaN	NaN	NaN
491.5713054000007	0.4995	sub-26	1	localizer	stimulus	Stuhl	NaN	0	1.9848180999998135	NaN	True	NaN	NaN	NaN	NaN	NaN	NaN	NaN
492.0542684000011	1.9848	sub-26	1	localizer	blank	interval	NaN	NaN	NaN	NaN	NaN	NaN	NaN	NaN	NaN	NaN	NaN	NaN
494.3402202000016	0.4995	sub-26	1	localizer	stimulus	Gesicht	NaN	0	2.718752900000311	NaN	True	NaN	NaN	NaN	NaN	NaN	NaN	NaN
494.8231845000009	2.7188	sub-26	1	localizer	blank	interval	NaN	NaN	NaN	NaN	NaN	NaN	NaN	NaN	NaN	NaN	NaN	NaN
497.84304750000047	0.4995	sub-26	1	localizer	stimulus	Gesicht	NaN	0	3.252544599999908	NaN	True	NaN	NaN	NaN	NaN	NaN	NaN	NaN
498.32599540000047	3.2525	sub-26	1	localizer	blank	interval	NaN	NaN	NaN	NaN	NaN	NaN	NaN	NaN	NaN	NaN	NaN	NaN
501.8796347000007	0.4995	sub-26	1	localizer	stimulus	Stuhl	NaN	180	2.1350079999992886	0.4742634999984148	True	NaN	NaN	NaN	NaN	NaN	NaN	NaN
502.3626176000016	2.135	sub-26	1	localizer	blank	interval	NaN	NaN	NaN	NaN	NaN	NaN	NaN	NaN	NaN	NaN	NaN	NaN
504.7989010000001	0.4994	sub-26	1	localizer	stimulus	Haus	NaN	0	3.1191860000017186	NaN	True	NaN	NaN	NaN	NaN	NaN	NaN	NaN
505.2817777	3.1192	sub-26	1	localizer	blank	interval	NaN	NaN	NaN	NaN	NaN	NaN	NaN	NaN	NaN	NaN	NaN	NaN
508.7020435000013	0.4993	sub-26	1	localizer	stimulus	Gesicht	NaN	180	2.2516508999997313	0.4677313000011054	True	NaN	NaN	NaN	NaN	NaN	NaN	NaN
509.1848581000013	2.2517	sub-26	1	localizer	blank	interval	NaN	NaN	NaN	NaN	NaN	NaN	NaN	NaN	NaN	NaN	NaN	NaN
511.73760630000106	0.4995	sub-26	1	localizer	stimulus	Katze	NaN	0	2.2183407000011357	NaN	True	NaN	NaN	NaN	NaN	NaN	NaN	NaN
512.2205957000006	2.2183	sub-26	1	localizer	blank	interval	NaN	NaN	NaN	NaN	NaN	NaN	NaN	NaN	NaN	NaN	NaN	NaN
514.7400705	0.4995	sub-26	1	localizer	stimulus	Gesicht	NaN	0	2.9689202999998088	NaN	True	NaN	NaN	NaN	NaN	NaN	NaN	NaN
515.2230486000008	2.9689	sub-26	1	localizer	blank	interval	NaN	NaN	NaN	NaN	NaN	NaN	NaN	NaN	NaN	NaN	NaN	NaN
518.4930878000014	0.4995	sub-26	1	localizer	stimulus	Schuh	NaN	0	3.069014899998365	NaN	True	NaN	NaN	NaN	NaN	NaN	NaN	NaN
518.9760687000016	3.069	sub-26	1	localizer	blank	interval	NaN	NaN	NaN	NaN	NaN	NaN	NaN	NaN	NaN	NaN	NaN	NaN
522.3462141	0.4995	sub-26	1	localizer	stimulus	Haus	NaN	0	2.618667299999288	NaN	True	NaN	NaN	NaN	NaN	NaN	NaN	NaN
522.8291815000011	2.6187	sub-26	1	localizer	blank	interval	NaN	NaN	NaN	NaN	NaN	NaN	NaN	NaN	NaN	NaN	NaN	NaN
525.7491414000015	0.4994	sub-26	1	localizer	stimulus	Katze	NaN	180	2.2684265000007144	0.4527652999986458	True	NaN	NaN	NaN	NaN	NaN	NaN	NaN
526.232033100001	2.2684	sub-26	1	localizer	blank	interval	NaN	NaN	NaN	NaN	NaN	NaN	NaN	NaN	NaN	NaN	NaN	NaN
528.8015896000015	0.4996	sub-26	1	localizer	stimulus	Stuhl	NaN	0	2.5183916999994835	NaN	True	NaN	NaN	NaN	NaN	NaN	NaN	NaN
529.2845799000006	2.5184	sub-26	1	localizer	blank	interval	NaN	NaN	NaN	NaN	NaN	NaN	NaN	NaN	NaN	NaN	NaN	NaN
532.1040857000007	0.4996	sub-26	1	localizer	stimulus	Stuhl	NaN	0	1.1508066999995208	NaN	True	NaN	NaN	NaN	NaN	NaN	NaN	NaN
532.5870606000008	1.1508	sub-26	1	localizer	blank	interval	NaN	NaN	NaN	NaN	NaN	NaN	NaN	NaN	NaN	NaN	NaN	NaN
534.0389577000005	0.4995	sub-26	1	localizer	stimulus	Schuh	NaN	0	3.486024699999689	NaN	True	NaN	NaN	NaN	NaN	NaN	NaN	NaN
534.5219682000006	3.486	sub-26	1	localizer	blank	interval	NaN	NaN	NaN	NaN	NaN	NaN	NaN	NaN	NaN	NaN	NaN	NaN
538.3090942000017	0.4995	sub-26	1	localizer	stimulus	Katze	NaN	0	2.06819760000144	NaN	True	NaN	NaN	NaN	NaN	NaN	NaN	NaN
538.7920973	2.0682	sub-26	1	localizer	blank	interval	NaN	NaN	NaN	NaN	NaN	NaN	NaN	NaN	NaN	NaN	NaN	NaN
541.1614084000012	0.4995	sub-26	1	localizer	stimulus	Katze	NaN	0	2.4184707999993407	NaN	True	NaN	NaN	NaN	NaN	NaN	NaN	NaN
541.6444205000007	2.4185	sub-26	1	localizer	blank	interval	NaN	NaN	NaN	NaN	NaN	NaN	NaN	NaN	NaN	NaN	NaN	NaN
547.5495248000007	1.0005	sub-26	1	sequence	cue	Katze	NaN	NaN	NaN	NaN	NaN	NaN	NaN	NaN	NaN	NaN	NaN	NaN
548.5500554000009	2.0016	sub-26	1	sequence	blank	blank	NaN	NaN	NaN	NaN	NaN	NaN	NaN	NaN	NaN	NaN	NaN	NaN
550.5516879000006	0.3002	sub-26	1	sequence	fixation	dot	NaN	NaN	NaN	NaN	NaN	NaN	NaN	NaN	NaN	NaN	NaN	NaN
550.8709806000006	0.1143	sub-26	1	sequence	stimulus	Katze	NaN	NaN	64.0	NaN	NaN	3.0	1.0	NaN	NaN	NaN	NaN	NaN
550.9852730000002	0.0668	sub-26	1	sequence	interval	dot	NaN	NaN	NaN	NaN	NaN	NaN	NaN	NaN	NaN	NaN	NaN	NaN
551.0520593000001	0.0999	sub-26	1	sequence	stimulus	Stuhl	NaN	NaN	64.0	NaN	NaN	5.0	2.0	NaN	NaN	NaN	NaN	NaN
551.1520011000011	0.0668	sub-26	1	sequence	interval	dot	NaN	NaN	NaN	NaN	NaN	NaN	NaN	NaN	NaN	NaN	NaN	NaN
551.2188271000014	0.1	sub-26	1	sequence	stimulus	Schuh	NaN	NaN	64.0	NaN	NaN	4.0	3.0	NaN	NaN	NaN	NaN	NaN
551.3188061000001	0.0668	sub-26	1	sequence	interval	dot	NaN	NaN	NaN	NaN	NaN	NaN	NaN	NaN	NaN	NaN	NaN	NaN
551.3856202000006	0.1	sub-26	1	sequence	stimulus	Gesicht	NaN	NaN	64.0	NaN	NaN	1.0	4.0	NaN	NaN	NaN	NaN	NaN
551.4855837000014	0.0669	sub-26	1	sequence	interval	dot	NaN	NaN	NaN	NaN	NaN	NaN	NaN	NaN	NaN	NaN	NaN	NaN
551.5524398000016	0.1	sub-26	1	sequence	stimulus	Haus	NaN	NaN	64.0	NaN	NaN	2.0	5.0	NaN	NaN	NaN	NaN	NaN
551.6524009000004	0.0667	sub-26	1	sequence	interval	dot	NaN	NaN	NaN	NaN	NaN	NaN	NaN	NaN	NaN	NaN	NaN	NaN
551.7191109000014	8.3883	sub-26	1	sequence	delay	dot	NaN	NaN	NaN	NaN	NaN	NaN	NaN	NaN	NaN	NaN	NaN	NaN
560.0955231000007	0.6476	sub-26	1	sequence	choice	choice	left	NaN	NaN	0.6306315999991057	True	NaN	NaN	left	True	1.0	4.0	1.0
560.7433708000008	0.5003	sub-26	1	sequence	feedback	NaN	NaN	NaN	NaN	NaN	NaN	NaN	NaN	NaN	NaN	NaN	NaN	NaN
561.2438070000007	1.0005	sub-26	1	sequence	cue	Schuh	NaN	NaN	NaN	NaN	NaN	NaN	NaN	NaN	NaN	NaN	NaN	NaN
562.2443134000005	2.0016	sub-26	1	sequence	blank	blank	NaN	NaN	NaN	NaN	NaN	NaN	NaN	NaN	NaN	NaN	NaN	NaN
564.2459124000015	0.3003	sub-26	1	sequence	fixation	dot	NaN	NaN	NaN	NaN	NaN	NaN	NaN	NaN	NaN	NaN	NaN	NaN
564.5644527000004	0.1152	sub-26	1	sequence	stimulus	Katze	NaN	NaN	128.0	NaN	NaN	3.0	1.0	NaN	NaN	NaN	NaN	NaN
564.6796539000006	0.1335	sub-26	1	sequence	interval	dot	NaN	NaN	NaN	NaN	NaN	NaN	NaN	NaN	NaN	NaN	NaN	NaN
564.8131231000007	0.1	sub-26	1	sequence	stimulus	Schuh	NaN	NaN	128.0	NaN	NaN	4.0	2.0	NaN	NaN	NaN	NaN	NaN
564.9131044000005	0.1336	sub-26	1	sequence	interval	dot	NaN	NaN	NaN	NaN	NaN	NaN	NaN	NaN	NaN	NaN	NaN	NaN
565.0466608000006	0.1	sub-26	1	sequence	stimulus	Gesicht	NaN	NaN	128.0	NaN	NaN	1.0	3.0	NaN	NaN	NaN	NaN	NaN
565.1466418	0.1336	sub-26	1	sequence	interval	dot	NaN	NaN	NaN	NaN	NaN	NaN	NaN	NaN	NaN	NaN	NaN	NaN
565.2801955000014	0.1	sub-26	1	sequence	stimulus	Stuhl	NaN	NaN	128.0	NaN	NaN	5.0	4.0	NaN	NaN	NaN	NaN	NaN
565.3801651000012	0.1335	sub-26	1	sequence	interval	dot	NaN	NaN	NaN	NaN	NaN	NaN	NaN	NaN	NaN	NaN	NaN	NaN
565.5137051000002	0.1	sub-26	1	sequence	stimulus	Haus	NaN	NaN	128.0	NaN	NaN	2.0	5.0	NaN	NaN	NaN	NaN	NaN
565.6136834000008	0.1334	sub-26	1	sequence	interval	dot	NaN	NaN	NaN	NaN	NaN	NaN	NaN	NaN	NaN	NaN	NaN	NaN
565.7471119000002	8.0715	sub-26	1	sequence	delay	dot	NaN	NaN	NaN	NaN	NaN	NaN	NaN	NaN	NaN	NaN	NaN	NaN
573.7972654000005	0.6737	sub-26	1	sequence	choice	choice	right	NaN	NaN	0.6392449000013585	True	NaN	NaN	right	True	3.0	2.0	2.0
574.4711116000017	0.5002	sub-26	1	sequence	feedback	NaN	NaN	NaN	NaN	NaN	NaN	NaN	NaN	NaN	NaN	NaN	NaN	NaN
574.9714611000018	1.0008	sub-26	1	sequence	cue	Haus	NaN	NaN	NaN	NaN	NaN	NaN	NaN	NaN	NaN	NaN	NaN	NaN
575.9722438000008	2.0015	sub-26	1	sequence	blank	blank	NaN	NaN	NaN	NaN	NaN	NaN	NaN	NaN	NaN	NaN	NaN	NaN
577.9737133000017	0.3003	sub-26	1	sequence	fixation	dot	NaN	NaN	NaN	NaN	NaN	NaN	NaN	NaN	NaN	NaN	NaN	NaN
578.291435000001	0.0992	sub-26	1	sequence	stimulus	Gesicht	NaN	NaN	128.0	NaN	NaN	1.0	1.0	NaN	NaN	NaN	NaN	NaN
578.3906759000001	0.1336	sub-26	1	sequence	interval	dot	NaN	NaN	NaN	NaN	NaN	NaN	NaN	NaN	NaN	NaN	NaN	NaN
578.5242283000007	0.1	sub-26	1	sequence	stimulus	Stuhl	NaN	NaN	128.0	NaN	NaN	5.0	2.0	NaN	NaN	NaN	NaN	NaN
578.6242074000002	0.1335	sub-26	1	sequence	interval	dot	NaN	NaN	NaN	NaN	NaN	NaN	NaN	NaN	NaN	NaN	NaN	NaN
578.7577371000007	0.1	sub-26	1	sequence	stimulus	Katze	NaN	NaN	128.0	NaN	NaN	3.0	3.0	NaN	NaN	NaN	NaN	NaN
578.857735900001	0.1336	sub-26	1	sequence	interval	dot	NaN	NaN	NaN	NaN	NaN	NaN	NaN	NaN	NaN	NaN	NaN	NaN
578.9912865000006	0.1	sub-26	1	sequence	stimulus	Schuh	NaN	NaN	128.0	NaN	NaN	4.0	4.0	NaN	NaN	NaN	NaN	NaN
579.0912567000014	0.1336	sub-26	1	sequence	interval	dot	NaN	NaN	NaN	NaN	NaN	NaN	NaN	NaN	NaN	NaN	NaN	NaN
579.224830000001	0.0999	sub-26	1	sequence	stimulus	Haus	NaN	NaN	128.0	NaN	NaN	2.0	5.0	NaN	NaN	NaN	NaN	NaN
579.324771900001	0.1334	sub-26	1	sequence	interval	dot	NaN	NaN	NaN	NaN	NaN	NaN	NaN	NaN	NaN	NaN	NaN	NaN
579.4582166	8.0547	sub-26	1	sequence	delay	dot	NaN	NaN	NaN	NaN	NaN	NaN	NaN	NaN	NaN	NaN	NaN	NaN
587.4990240000006	0.683	sub-26	1	sequence	choice	choice	right	NaN	NaN	0.6569392000001244	True	NaN	NaN	right	True	4.0	5.0	5.0
588.1821892000007	0.5002	sub-26	1	sequence	feedback	NaN	NaN	NaN	NaN	NaN	NaN	NaN	NaN	NaN	NaN	NaN	NaN	NaN
588.6825155000006	1.0008	sub-26	1	sequence	cue	Schuh	NaN	NaN	NaN	NaN	NaN	NaN	NaN	NaN	NaN	NaN	NaN	NaN
589.6833202000016	2.0016	sub-26	1	sequence	blank	blank	NaN	NaN	NaN	NaN	NaN	NaN	NaN	NaN	NaN	NaN	NaN	NaN
591.6849385000005	0.3003	sub-26	1	sequence	fixation	dot	NaN	NaN	NaN	NaN	NaN	NaN	NaN	NaN	NaN	NaN	NaN	NaN
592.0037070000017	0.1149	sub-26	1	sequence	stimulus	Katze	NaN	NaN	32.0	NaN	NaN	3.0	1.0	NaN	NaN	NaN	NaN	NaN
592.1186411000017	0.0335	sub-26	1	sequence	interval	dot	NaN	NaN	NaN	NaN	NaN	NaN	NaN	NaN	NaN	NaN	NaN	NaN
592.1521153000012	0.1	sub-26	1	sequence	stimulus	Stuhl	NaN	NaN	32.0	NaN	NaN	5.0	2.0	NaN	NaN	NaN	NaN	NaN
592.2521006000006	0.0334	sub-26	1	sequence	interval	dot	NaN	NaN	NaN	NaN	NaN	NaN	NaN	NaN	NaN	NaN	NaN	NaN
592.2855483000003	0.1	sub-26	1	sequence	stimulus	Gesicht	NaN	NaN	32.0	NaN	NaN	1.0	3.0	NaN	NaN	NaN	NaN	NaN
592.3855183000014	0.0335	sub-26	1	sequence	interval	dot	NaN	NaN	NaN	NaN	NaN	NaN	NaN	NaN	NaN	NaN	NaN	NaN
592.4190106000005	0.0999	sub-26	1	sequence	stimulus	Haus	NaN	NaN	32.0	NaN	NaN	2.0	4.0	NaN	NaN	NaN	NaN	NaN
592.5189582000003	0.0335	sub-26	1	sequence	interval	dot	NaN	NaN	NaN	NaN	NaN	NaN	NaN	NaN	NaN	NaN	NaN	NaN
592.5524351000004	0.0999	sub-26	1	sequence	stimulus	Schuh	NaN	NaN	32.0	NaN	NaN	4.0	5.0	NaN	NaN	NaN	NaN	NaN
592.6523725000006	0.0334	sub-26	1	sequence	interval	dot	NaN	NaN	NaN	NaN	NaN	NaN	NaN	NaN	NaN	NaN	NaN	NaN
592.6857394000017	8.5385	sub-26	1	sequence	delay	dot	NaN	NaN	NaN	NaN	NaN	NaN	NaN	NaN	NaN	NaN	NaN	NaN
601.2007185000002	0.7591	sub-26	1	sequence	choice	choice	left	NaN	NaN	0.7296272999992652	True	NaN	NaN	left	True	5.0	3.0	5.0
601.9600075000017	0.5001	sub-26	1	sequence	feedback	NaN	NaN	NaN	NaN	NaN	NaN	NaN	NaN	NaN	NaN	NaN	NaN	NaN
602.4603070000012	1.0007	sub-26	1	sequence	cue	Schuh	NaN	NaN	NaN	NaN	NaN	NaN	NaN	NaN	NaN	NaN	NaN	NaN
603.4610274000006	2.0015	sub-26	1	sequence	blank	blank	NaN	NaN	NaN	NaN	NaN	NaN	NaN	NaN	NaN	NaN	NaN	NaN
605.4625817000015	0.3003	sub-26	1	sequence	fixation	dot	NaN	NaN	NaN	NaN	NaN	NaN	NaN	NaN	NaN	NaN	NaN	NaN
605.7811190000011	0.1152	sub-26	1	sequence	stimulus	Haus	NaN	NaN	64.0	NaN	NaN	2.0	1.0	NaN	NaN	NaN	NaN	NaN
605.8962954000017	0.0668	sub-26	1	sequence	interval	dot	NaN	NaN	NaN	NaN	NaN	NaN	NaN	NaN	NaN	NaN	NaN	NaN
605.9631188000003	0.1	sub-26	1	sequence	stimulus	Schuh	NaN	NaN	64.0	NaN	NaN	4.0	2.0	NaN	NaN	NaN	NaN	NaN
606.0630991000016	0.0668	sub-26	1	sequence	interval	dot	NaN	NaN	NaN	NaN	NaN	NaN	NaN	NaN	NaN	NaN	NaN	NaN
606.1298958000007	0.1	sub-26	1	sequence	stimulus	Gesicht	NaN	NaN	64.0	NaN	NaN	1.0	3.0	NaN	NaN	NaN	NaN	NaN
606.2298898000008	0.0669	sub-26	1	sequence	interval	dot	NaN	NaN	NaN	NaN	NaN	NaN	NaN	NaN	NaN	NaN	NaN	NaN
606.296740400001	0.0999	sub-26	1	sequence	stimulus	Katze	NaN	NaN	64.0	NaN	NaN	3.0	4.0	NaN	NaN	NaN	NaN	NaN
606.3966771000014	0.0668	sub-26	1	sequence	interval	dot	NaN	NaN	NaN	NaN	NaN	NaN	NaN	NaN	NaN	NaN	NaN	NaN
606.4635222000015	0.1	sub-26	1	sequence	stimulus	Stuhl	NaN	NaN	64.0	NaN	NaN	5.0	5.0	NaN	NaN	NaN	NaN	NaN
606.5634921000001	0.0667	sub-26	1	sequence	interval	dot	NaN	NaN	NaN	NaN	NaN	NaN	NaN	NaN	NaN	NaN	NaN	NaN
606.6302245000006	8.3882	sub-26	1	sequence	delay	dot	NaN	NaN	NaN	NaN	NaN	NaN	NaN	NaN	NaN	NaN	NaN	NaN
615.0063735000003	0.5479	sub-26	1	sequence	choice	choice	left	NaN	NaN	0.5354349999997794	True	NaN	NaN	left	True	2.0	4.0	2.0
615.5544587000004	0.5	sub-26	1	sequence	feedback	NaN	NaN	NaN	NaN	NaN	NaN	NaN	NaN	NaN	NaN	NaN	NaN	NaN
616.0546536000002	1.0007	sub-26	1	sequence	cue	Katze	NaN	NaN	NaN	NaN	NaN	NaN	NaN	NaN	NaN	NaN	NaN	NaN
617.0553326000008	2.0016	sub-26	1	sequence	blank	blank	NaN	NaN	NaN	NaN	NaN	NaN	NaN	NaN	NaN	NaN	NaN	NaN
619.0569231000009	0.3003	sub-26	1	sequence	fixation	dot	NaN	NaN	NaN	NaN	NaN	NaN	NaN	NaN	NaN	NaN	NaN	NaN
619.374673100001	0.0992	sub-26	1	sequence	stimulus	Haus	NaN	NaN	512.0	NaN	NaN	2.0	1.0	NaN	NaN	NaN	NaN	NaN
619.4738908000018	0.5172	sub-26	1	sequence	interval	dot	NaN	NaN	NaN	NaN	NaN	NaN	NaN	NaN	NaN	NaN	NaN	NaN
619.9911078000005	0.1	sub-26	1	sequence	stimulus	Katze	NaN	NaN	512.0	NaN	NaN	3.0	2.0	NaN	NaN	NaN	NaN	NaN
620.0910910000002	0.5172	sub-26	1	sequence	interval	dot	NaN	NaN	NaN	NaN	NaN	NaN	NaN	NaN	NaN	NaN	NaN	NaN
620.6082578000005	0.1	sub-26	1	sequence	stimulus	Gesicht	NaN	NaN	512.0	NaN	NaN	1.0	3.0	NaN	NaN	NaN	NaN	NaN
620.7082348000004	0.5172	sub-26	1	sequence	interval	dot	NaN	NaN	NaN	NaN	NaN	NaN	NaN	NaN	NaN	NaN	NaN	NaN
621.2254452000016	0.0999	sub-26	1	sequence	stimulus	Schuh	NaN	NaN	512.0	NaN	NaN	4.0	4.0	NaN	NaN	NaN	NaN	NaN
621.3253952000014	0.5172	sub-26	1	sequence	interval	dot	NaN	NaN	NaN	NaN	NaN	NaN	NaN	NaN	NaN	NaN	NaN	NaN
621.8426132000004	0.1	sub-26	1	sequence	stimulus	Stuhl	NaN	NaN	512.0	NaN	NaN	5.0	5.0	NaN	NaN	NaN	NaN	NaN
621.9425910000009	0.5171	sub-26	1	sequence	interval	dot	NaN	NaN	NaN	NaN	NaN	NaN	NaN	NaN	NaN	NaN	NaN	NaN
622.4596700000002	6.1365	sub-26	1	sequence	delay	dot	NaN	NaN	NaN	NaN	NaN	NaN	NaN	NaN	NaN	NaN	NaN	NaN
628.5780567000002	0.6038	sub-26	1	sequence	choice	choice	right	NaN	NaN	0.5817155000004277	True	NaN	NaN	right	True	4.0	2.0	2.0
629.1820039000013	0.5003	sub-26	1	sequence	feedback	NaN	NaN	NaN	NaN	NaN	NaN	NaN	NaN	NaN	NaN	NaN	NaN	NaN
629.6824846000018	1.0006	sub-26	1	sequence	cue	Haus	NaN	NaN	NaN	NaN	NaN	NaN	NaN	NaN	NaN	NaN	NaN	NaN
630.6830521000011	2.0019	sub-26	1	sequence	blank	blank	NaN	NaN	NaN	NaN	NaN	NaN	NaN	NaN	NaN	NaN	NaN	NaN
632.6849385000005	0.3001	sub-26	1	sequence	fixation	dot	NaN	NaN	NaN	NaN	NaN	NaN	NaN	NaN	NaN	NaN	NaN	NaN
633.0033503000013	0.115	sub-26	1	sequence	stimulus	Schuh	NaN	NaN	512.0	NaN	NaN	4.0	1.0	NaN	NaN	NaN	NaN	NaN
633.1183984000018	0.5173	sub-26	1	sequence	interval	dot	NaN	NaN	NaN	NaN	NaN	NaN	NaN	NaN	NaN	NaN	NaN	NaN
633.6356602000014	0.1	sub-26	1	sequence	stimulus	Gesicht	NaN	NaN	512.0	NaN	NaN	1.0	2.0	NaN	NaN	NaN	NaN	NaN
633.7356308000017	0.5172	sub-26	1	sequence	interval	dot	NaN	NaN	NaN	NaN	NaN	NaN	NaN	NaN	NaN	NaN	NaN	NaN
634.2528344000002	0.1	sub-26	1	sequence	stimulus	Stuhl	NaN	NaN	512.0	NaN	NaN	5.0	3.0	NaN	NaN	NaN	NaN	NaN
634.3527928000003	0.5171	sub-26	1	sequence	interval	dot	NaN	NaN	NaN	NaN	NaN	NaN	NaN	NaN	NaN	NaN	NaN	NaN
634.8698914000015	0.0999	sub-26	1	sequence	stimulus	Haus	NaN	NaN	512.0	NaN	NaN	2.0	4.0	NaN	NaN	NaN	NaN	NaN
634.9698113000013	0.5172	sub-26	1	sequence	interval	dot	NaN	NaN	NaN	NaN	NaN	NaN	NaN	NaN	NaN	NaN	NaN	NaN
635.4869844000004	0.1	sub-26	1	sequence	stimulus	Katze	NaN	NaN	512.0	NaN	NaN	3.0	5.0	NaN	NaN	NaN	NaN	NaN
635.5870073000006	0.517	sub-26	1	sequence	interval	dot	NaN	NaN	NaN	NaN	NaN	NaN	NaN	NaN	NaN	NaN	NaN	NaN
636.1040421000016	6.1362	sub-26	1	sequence	delay	dot	NaN	NaN	NaN	NaN	NaN	NaN	NaN	NaN	NaN	NaN	NaN	NaN
642.2278372000001	0.7821	sub-26	1	sequence	choice	choice	right	NaN	NaN	0.753617899999881	True	NaN	NaN	right	True	5.0	4.0	4.0
643.0100358	0.5001	sub-26	1	sequence	feedback	NaN	NaN	NaN	NaN	NaN	NaN	NaN	NaN	NaN	NaN	NaN	NaN	NaN
643.5103164000011	1.0007	sub-26	1	sequence	cue	Schuh	NaN	NaN	NaN	NaN	NaN	NaN	NaN	NaN	NaN	NaN	NaN	NaN
644.5109999000015	2.0015	sub-26	1	sequence	blank	blank	NaN	NaN	NaN	NaN	NaN	NaN	NaN	NaN	NaN	NaN	NaN	NaN
646.5124780000006	0.3004	sub-26	1	sequence	fixation	dot	NaN	NaN	NaN	NaN	NaN	NaN	NaN	NaN	NaN	NaN	NaN	NaN
646.8310298000015	0.1151	sub-26	1	sequence	stimulus	Haus	NaN	NaN	32.0	NaN	NaN	2.0	1.0	NaN	NaN	NaN	NaN	NaN
646.9461338000001	0.0335	sub-26	1	sequence	interval	dot	NaN	NaN	NaN	NaN	NaN	NaN	NaN	NaN	NaN	NaN	NaN	NaN
646.9796221000015	0.0999	sub-26	1	sequence	stimulus	Stuhl	NaN	NaN	32.0	NaN	NaN	5.0	2.0	NaN	NaN	NaN	NaN	NaN
647.0795620000008	0.0335	sub-26	1	sequence	interval	dot	NaN	NaN	NaN	NaN	NaN	NaN	NaN	NaN	NaN	NaN	NaN	NaN
647.1130887000018	0.0999	sub-26	1	sequence	stimulus	Gesicht	NaN	NaN	32.0	NaN	NaN	1.0	3.0	NaN	NaN	NaN	NaN	NaN
647.2130320000015	0.0335	sub-26	1	sequence	interval	dot	NaN	NaN	NaN	NaN	NaN	NaN	NaN	NaN	NaN	NaN	NaN	NaN
647.2465314000001	0.0999	sub-26	1	sequence	stimulus	Katze	NaN	NaN	32.0	NaN	NaN	3.0	4.0	NaN	NaN	NaN	NaN	NaN
647.3464651000013	0.0335	sub-26	1	sequence	interval	dot	NaN	NaN	NaN	NaN	NaN	NaN	NaN	NaN	NaN	NaN	NaN	NaN
647.3799199000005	0.1	sub-26	1	sequence	stimulus	Schuh	NaN	NaN	32.0	NaN	NaN	4.0	5.0	NaN	NaN	NaN	NaN	NaN
647.4798809000004	0.0334	sub-26	1	sequence	interval	dot	NaN	NaN	NaN	NaN	NaN	NaN	NaN	NaN	NaN	NaN	NaN	NaN
647.5132407000001	8.5382	sub-26	1	sequence	delay	dot	NaN	NaN	NaN	NaN	NaN	NaN	NaN	NaN	NaN	NaN	NaN	NaN
656.0334968000006	0.9543	sub-26	1	sequence	choice	choice	left	NaN	NaN	0.9263674000012544	True	NaN	NaN	left	True	5.0	3.0	5.0
656.9879470000014	0.5001	sub-26	1	sequence	feedback	NaN	NaN	NaN	NaN	NaN	NaN	NaN	NaN	NaN	NaN	NaN	NaN	NaN
661.3086081000001	0.4996	sub-26	1	localizer	stimulus	Stuhl	NaN	0	3.502714099999139	NaN	True	NaN	NaN	NaN	NaN	NaN	NaN	NaN
661.7916895000017	3.5027	sub-26	1	localizer	blank	interval	NaN	NaN	NaN	NaN	NaN	NaN	NaN	NaN	NaN	NaN	NaN	NaN
665.5954038	0.4997	sub-26	1	localizer	stimulus	Stuhl	NaN	180	3.002384900000834	0.5344411999994918	True	NaN	NaN	NaN	NaN	NaN	NaN	NaN
666.0783981000004	3.0024	sub-26	1	localizer	blank	interval	NaN	NaN	NaN	NaN	NaN	NaN	NaN	NaN	NaN	NaN	NaN	NaN
669.3818113000016	0.4995	sub-26	1	localizer	stimulus	Katze	NaN	0	2.7354954999991605	NaN	True	NaN	NaN	NaN	NaN	NaN	NaN	NaN
669.8648084000015	2.7355	sub-26	1	localizer	blank	interval	NaN	NaN	NaN	NaN	NaN	NaN	NaN	NaN	NaN	NaN	NaN	NaN
672.901440900001	0.4998	sub-26	1	localizer	stimulus	Stuhl	NaN	0	2.368399999999383	NaN	True	NaN	NaN	NaN	NaN	NaN	NaN	NaN
673.3845703000006	2.3684	sub-26	1	localizer	blank	interval	NaN	NaN	NaN	NaN	NaN	NaN	NaN	NaN	NaN	NaN	NaN	NaN
676.0540650000003	0.4995	sub-26	1	localizer	stimulus	Schuh	NaN	180	1.9012557000005472	0.4757704999992711	True	NaN	NaN	NaN	NaN	NaN	NaN	NaN
676.537026	1.9013	sub-26	1	localizer	blank	interval	NaN	NaN	NaN	NaN	NaN	NaN	NaN	NaN	NaN	NaN	NaN	NaN
678.7393706000003	0.4996	sub-26	1	localizer	stimulus	Gesicht	NaN	0	2.8354871999999887	NaN	True	NaN	NaN	NaN	NaN	NaN	NaN	NaN
679.2223607000014	2.8355	sub-26	1	localizer	blank	interval	NaN	NaN	NaN	NaN	NaN	NaN	NaN	NaN	NaN	NaN	NaN	NaN
682.3589834000013	0.4995	sub-26	1	localizer	stimulus	Stuhl	NaN	0	1.784631200000149	NaN	True	NaN	NaN	NaN	NaN	NaN	NaN	NaN
682.8419654000008	1.7846	sub-26	1	localizer	blank	interval	NaN	NaN	NaN	NaN	NaN	NaN	NaN	NaN	NaN	NaN	NaN	NaN
684.9277148000001	0.4995	sub-26	1	localizer	stimulus	Gesicht	NaN	180	3.102403900000354	0.4822456999991118	True	NaN	NaN	NaN	NaN	NaN	NaN	NaN
685.4107177000005	3.1024	sub-26	1	localizer	blank	interval	NaN	NaN	NaN	NaN	NaN	NaN	NaN	NaN	NaN	NaN	NaN	NaN
688.8142226	0.4995	sub-26	1	localizer	stimulus	Haus	NaN	0	2.051513399999749	NaN	True	NaN	NaN	NaN	NaN	NaN	NaN	NaN
689.2972078000003	2.0515	sub-26	1	localizer	blank	interval	NaN	NaN	NaN	NaN	NaN	NaN	NaN	NaN	NaN	NaN	NaN	NaN
691.6498755000011	0.4995	sub-26	1	localizer	stimulus	Haus	NaN	0	2.6188743000002432	NaN	True	NaN	NaN	NaN	NaN	NaN	NaN	NaN
692.1327447000003	2.6189	sub-26	1	localizer	blank	interval	NaN	NaN	NaN	NaN	NaN	NaN	NaN	NaN	NaN	NaN	NaN	NaN
695.0525816000008	0.4997	sub-26	1	localizer	stimulus	Gesicht	NaN	0	2.418397700001151	NaN	True	NaN	NaN	NaN	NaN	NaN	NaN	NaN
695.5356532000005	2.4184	sub-26	1	localizer	blank	interval	NaN	NaN	NaN	NaN	NaN	NaN	NaN	NaN	NaN	NaN	NaN	NaN
698.2551624000007	0.4995	sub-26	1	localizer	stimulus	Schuh	NaN	0	1.9014069000004383	NaN	True	NaN	NaN	NaN	NaN	NaN	NaN	NaN
698.7381452000009	1.9014	sub-26	1	localizer	blank	interval	NaN	NaN	NaN	NaN	NaN	NaN	NaN	NaN	NaN	NaN	NaN	NaN
700.9407077000014	0.4995	sub-26	1	localizer	stimulus	Haus	NaN	0	1.0006821999995736	NaN	True	NaN	NaN	NaN	NaN	NaN	NaN	NaN
701.4236728000014	1.0007	sub-26	1	localizer	blank	interval	NaN	NaN	NaN	NaN	NaN	NaN	NaN	NaN	NaN	NaN	NaN	NaN
702.7421571000014	0.4995	sub-26	1	localizer	stimulus	Katze	NaN	0	1.7846799999988434	NaN	True	NaN	NaN	NaN	NaN	NaN	NaN	NaN
703.2251026000013	1.7847	sub-26	1	localizer	blank	interval	NaN	NaN	NaN	NaN	NaN	NaN	NaN	NaN	NaN	NaN	NaN	NaN
705.3108794	0.4995	sub-26	1	localizer	stimulus	Katze	NaN	180	1.3676662999987457	0.4429065000003902	True	NaN	NaN	NaN	NaN	NaN	NaN	NaN
705.7938528000013	1.3677	sub-26	1	localizer	blank	interval	NaN	NaN	NaN	NaN	NaN	NaN	NaN	NaN	NaN	NaN	NaN	NaN
707.462636100001	0.4995	sub-26	1	localizer	stimulus	Gesicht	NaN	0	2.7187503000004654	NaN	True	NaN	NaN	NaN	NaN	NaN	NaN	NaN
707.9456083000005	2.7188	sub-26	1	localizer	blank	interval	NaN	NaN	NaN	NaN	NaN	NaN	NaN	NaN	NaN	NaN	NaN	NaN
710.9654553	0.4995	sub-26	1	localizer	stimulus	Gesicht	NaN	0	2.718754799998351	NaN	True	NaN	NaN	NaN	NaN	NaN	NaN	NaN
711.4484426000017	2.7188	sub-26	1	localizer	blank	interval	NaN	NaN	NaN	NaN	NaN	NaN	NaN	NaN	NaN	NaN	NaN	NaN
714.4684443000006	0.4995	sub-26	1	localizer	stimulus	Katze	NaN	0	2.5520208999987517	NaN	True	NaN	NaN	NaN	NaN	NaN	NaN	NaN
714.9513885000015	2.552	sub-26	1	localizer	blank	interval	NaN	NaN	NaN	NaN	NaN	NaN	NaN	NaN	NaN	NaN	NaN	NaN
717.8045196000003	0.4995	sub-26	1	localizer	stimulus	Schuh	NaN	0	2.952096499999243	NaN	True	NaN	NaN	NaN	NaN	NaN	NaN	NaN
718.287479300001	2.9521	sub-26	1	localizer	blank	interval	NaN	NaN	NaN	NaN	NaN	NaN	NaN	NaN	NaN	NaN	NaN	NaN
721.5406759000016	0.4995	sub-26	1	localizer	stimulus	Schuh	NaN	0	2.4518775999986246	NaN	True	NaN	NaN	NaN	NaN	NaN	NaN	NaN
722.0236587000018	2.4519	sub-26	1	localizer	blank	interval	NaN	NaN	NaN	NaN	NaN	NaN	NaN	NaN	NaN	NaN	NaN	NaN
724.7766232000013	0.4995	sub-26	1	localizer	stimulus	Katze	NaN	0	2.6687193000016123	NaN	True	NaN	NaN	NaN	NaN	NaN	NaN	NaN
725.2596173000002	2.6687	sub-26	1	localizer	blank	interval	NaN	NaN	NaN	NaN	NaN	NaN	NaN	NaN	NaN	NaN	NaN	NaN
728.2294379000014	0.4999	sub-26	1	localizer	stimulus	Haus	NaN	180	2.201585500000874	0.5084850999992341	True	NaN	NaN	NaN	NaN	NaN	NaN	NaN
728.7124848000003	2.2016	sub-26	1	localizer	blank	interval	NaN	NaN	NaN	NaN	NaN	NaN	NaN	NaN	NaN	NaN	NaN	NaN
731.2151600000016	0.4995	sub-26	1	localizer	stimulus	Stuhl	NaN	0	2.3684873999991396	NaN	True	NaN	NaN	NaN	NaN	NaN	NaN	NaN
731.6981489000009	2.3685	sub-26	1	localizer	blank	interval	NaN	NaN	NaN	NaN	NaN	NaN	NaN	NaN	NaN	NaN	NaN	NaN
734.3678803000003	0.4994	sub-26	1	localizer	stimulus	Haus	NaN	0	2.4019318999999086	NaN	True	NaN	NaN	NaN	NaN	NaN	NaN	NaN
734.8507305000003	2.4019	sub-26	1	localizer	blank	interval	NaN	NaN	NaN	NaN	NaN	NaN	NaN	NaN	NaN	NaN	NaN	NaN
737.5537162	0.4996	sub-26	1	localizer	stimulus	Schuh	NaN	0	2.8353766999989602	NaN	True	NaN	NaN	NaN	NaN	NaN	NaN	NaN
738.0367424000015	2.8354	sub-26	1	localizer	blank	interval	NaN	NaN	NaN	NaN	NaN	NaN	NaN	NaN	NaN	NaN	NaN	NaN
744.3586796000018	1.0004	sub-26	1	sequence	cue	Schuh	NaN	NaN	NaN	NaN	NaN	NaN	NaN	NaN	NaN	NaN	NaN	NaN
745.3591251000016	2.0016	sub-26	1	sequence	blank	blank	NaN	NaN	NaN	NaN	NaN	NaN	NaN	NaN	NaN	NaN	NaN	NaN
747.3607453000004	0.3002	sub-26	1	sequence	fixation	dot	NaN	NaN	NaN	NaN	NaN	NaN	NaN	NaN	NaN	NaN	NaN	NaN
747.6792615000013	0.1151	sub-26	1	sequence	stimulus	Haus	NaN	NaN	512.0	NaN	NaN	2.0	1.0	NaN	NaN	NaN	NaN	NaN
747.7943921000006	0.5172	sub-26	1	sequence	interval	dot	NaN	NaN	NaN	NaN	NaN	NaN	NaN	NaN	NaN	NaN	NaN	NaN
748.3115867000015	0.1	sub-26	1	sequence	stimulus	Katze	NaN	NaN	512.0	NaN	NaN	3.0	2.0	NaN	NaN	NaN	NaN	NaN
748.4115473000002	0.5172	sub-26	1	sequence	interval	dot	NaN	NaN	NaN	NaN	NaN	NaN	NaN	NaN	NaN	NaN	NaN	NaN
748.928762900001	0.1	sub-26	1	sequence	stimulus	Gesicht	NaN	NaN	512.0	NaN	NaN	1.0	3.0	NaN	NaN	NaN	NaN	NaN
749.0287350000017	0.5172	sub-26	1	sequence	interval	dot	NaN	NaN	NaN	NaN	NaN	NaN	NaN	NaN	NaN	NaN	NaN	NaN
749.5459324000003	0.1	sub-26	1	sequence	stimulus	Schuh	NaN	NaN	512.0	NaN	NaN	4.0	4.0	NaN	NaN	NaN	NaN	NaN
749.6459001000003	0.5172	sub-26	1	sequence	interval	dot	NaN	NaN	NaN	NaN	NaN	NaN	NaN	NaN	NaN	NaN	NaN	NaN
750.1630829000005	0.1	sub-26	1	sequence	stimulus	Stuhl	NaN	NaN	512.0	NaN	NaN	5.0	5.0	NaN	NaN	NaN	NaN	NaN
750.2630534	0.5171	sub-26	1	sequence	interval	dot	NaN	NaN	NaN	NaN	NaN	NaN	NaN	NaN	NaN	NaN	NaN	NaN
750.7801474000007	6.1531	sub-26	1	sequence	delay	dot	NaN	NaN	NaN	NaN	NaN	NaN	NaN	NaN	NaN	NaN	NaN	NaN
756.9113647000013	0.6745	sub-26	1	sequence	choice	choice	left	NaN	NaN	0.6366823999996996	True	NaN	NaN	left	True	4.0	3.0	4.0
757.5861173000012	0.5001	sub-26	1	sequence	feedback	NaN	NaN	NaN	NaN	NaN	NaN	NaN	NaN	NaN	NaN	NaN	NaN	NaN
758.0863462000016	1.0007	sub-26	1	sequence	cue	Haus	NaN	NaN	NaN	NaN	NaN	NaN	NaN	NaN	NaN	NaN	NaN	NaN
759.0870870000017	2.0014	sub-26	1	sequence	blank	blank	NaN	NaN	NaN	NaN	NaN	NaN	NaN	NaN	NaN	NaN	NaN	NaN
761.0885272000014	0.3003	sub-26	1	sequence	fixation	dot	NaN	NaN	NaN	NaN	NaN	NaN	NaN	NaN	NaN	NaN	NaN	NaN
761.4062467000003	0.0993	sub-26	1	sequence	stimulus	Gesicht	NaN	NaN	128.0	NaN	NaN	1.0	1.0	NaN	NaN	NaN	NaN	NaN
761.5055034000015	0.1335	sub-26	1	sequence	interval	dot	NaN	NaN	NaN	NaN	NaN	NaN	NaN	NaN	NaN	NaN	NaN	NaN
761.63904	0.1	sub-26	1	sequence	stimulus	Stuhl	NaN	NaN	128.0	NaN	NaN	5.0	2.0	NaN	NaN	NaN	NaN	NaN
761.7390194000018	0.1335	sub-26	1	sequence	interval	dot	NaN	NaN	NaN	NaN	NaN	NaN	NaN	NaN	NaN	NaN	NaN	NaN
761.8725362000005	0.1	sub-26	1	sequence	stimulus	Katze	NaN	NaN	128.0	NaN	NaN	3.0	3.0	NaN	NaN	NaN	NaN	NaN
761.9725593000003	0.1335	sub-26	1	sequence	interval	dot	NaN	NaN	NaN	NaN	NaN	NaN	NaN	NaN	NaN	NaN	NaN	NaN
762.1060851000002	0.1	sub-26	1	sequence	stimulus	Schuh	NaN	NaN	128.0	NaN	NaN	4.0	4.0	NaN	NaN	NaN	NaN	NaN
762.2060530000017	0.1336	sub-26	1	sequence	interval	dot	NaN	NaN	NaN	NaN	NaN	NaN	NaN	NaN	NaN	NaN	NaN	NaN
762.3396473000012	0.1	sub-26	1	sequence	stimulus	Haus	NaN	NaN	128.0	NaN	NaN	2.0	5.0	NaN	NaN	NaN	NaN	NaN
762.4395977000004	0.1334	sub-26	1	sequence	interval	dot	NaN	NaN	NaN	NaN	NaN	NaN	NaN	NaN	NaN	NaN	NaN	NaN
762.5730185000011	8.0547	sub-26	1	sequence	delay	dot	NaN	NaN	NaN	NaN	NaN	NaN	NaN	NaN	NaN	NaN	NaN	NaN
770.6130398000005	0.6171	sub-26	1	sequence	choice	choice	right	NaN	NaN	0.5901703999988968	True	NaN	NaN	right	True	1.0	5.0	5.0
771.2303076000007	0.5002	sub-26	1	sequence	feedback	NaN	NaN	NaN	NaN	NaN	NaN	NaN	NaN	NaN	NaN	NaN	NaN	NaN
771.7305991000012	1.0007	sub-26	1	sequence	cue	Katze	NaN	NaN	NaN	NaN	NaN	NaN	NaN	NaN	NaN	NaN	NaN	NaN
772.7312794000009	2.0016	sub-26	1	sequence	blank	blank	NaN	NaN	NaN	NaN	NaN	NaN	NaN	NaN	NaN	NaN	NaN	NaN
774.7328718000008	0.3003	sub-26	1	sequence	fixation	dot	NaN	NaN	NaN	NaN	NaN	NaN	NaN	NaN	NaN	NaN	NaN	NaN
775.0506578000004	0.0992	sub-26	1	sequence	stimulus	Katze	NaN	NaN	128.0	NaN	NaN	3.0	1.0	NaN	NaN	NaN	NaN	NaN
775.1498612000014	0.1335	sub-26	1	sequence	interval	dot	NaN	NaN	NaN	NaN	NaN	NaN	NaN	NaN	NaN	NaN	NaN	NaN
775.2833952000001	0.1	sub-26	1	sequence	stimulus	Schuh	NaN	NaN	128.0	NaN	NaN	4.0	2.0	NaN	NaN	NaN	NaN	NaN
775.3833711000007	0.1335	sub-26	1	sequence	interval	dot	NaN	NaN	NaN	NaN	NaN	NaN	NaN	NaN	NaN	NaN	NaN	NaN
775.5169178000015	0.1	sub-26	1	sequence	stimulus	Gesicht	NaN	NaN	128.0	NaN	NaN	1.0	3.0	NaN	NaN	NaN	NaN	NaN
775.6168967000012	0.1335	sub-26	1	sequence	interval	dot	NaN	NaN	NaN	NaN	NaN	NaN	NaN	NaN	NaN	NaN	NaN	NaN
775.7504347000013	0.1	sub-26	1	sequence	stimulus	Stuhl	NaN	NaN	128.0	NaN	NaN	5.0	4.0	NaN	NaN	NaN	NaN	NaN
775.8504262000006	0.1336	sub-26	1	sequence	interval	dot	NaN	NaN	NaN	NaN	NaN	NaN	NaN	NaN	NaN	NaN	NaN	NaN
775.9839912000007	0.1	sub-26	1	sequence	stimulus	Haus	NaN	NaN	128.0	NaN	NaN	2.0	5.0	NaN	NaN	NaN	NaN	NaN
776.0839500000002	0.1334	sub-26	1	sequence	interval	dot	NaN	NaN	NaN	NaN	NaN	NaN	NaN	NaN	NaN	NaN	NaN	NaN
776.2173789000008	8.0715	sub-26	1	sequence	delay	dot	NaN	NaN	NaN	NaN	NaN	NaN	NaN	NaN	NaN	NaN	NaN	NaN
784.262756600001	0.545	sub-26	1	sequence	choice	choice	left	NaN	NaN	0.5129947000004904	True	NaN	NaN	left	True	1.0	4.0	1.0
784.8079633000016	0.5001	sub-26	1	sequence	feedback	NaN	NaN	NaN	NaN	NaN	NaN	NaN	NaN	NaN	NaN	NaN	NaN	NaN
785.3082673000008	1.0007	sub-26	1	sequence	cue	Stuhl	NaN	NaN	NaN	NaN	NaN	NaN	NaN	NaN	NaN	NaN	NaN	NaN
786.3089269000011	2.0016	sub-26	1	sequence	blank	blank	NaN	NaN	NaN	NaN	NaN	NaN	NaN	NaN	NaN	NaN	NaN	NaN
788.3105637000008	0.3002	sub-26	1	sequence	fixation	dot	NaN	NaN	NaN	NaN	NaN	NaN	NaN	NaN	NaN	NaN	NaN	NaN
788.6290647000005	0.1151	sub-26	1	sequence	stimulus	Haus	NaN	NaN	64.0	NaN	NaN	2.0	1.0	NaN	NaN	NaN	NaN	NaN
788.7441853	0.0668	sub-26	1	sequence	interval	dot	NaN	NaN	NaN	NaN	NaN	NaN	NaN	NaN	NaN	NaN	NaN	NaN
788.8110278000004	0.1	sub-26	1	sequence	stimulus	Schuh	NaN	NaN	64.0	NaN	NaN	4.0	2.0	NaN	NaN	NaN	NaN	NaN
788.9109817000008	0.0669	sub-26	1	sequence	interval	dot	NaN	NaN	NaN	NaN	NaN	NaN	NaN	NaN	NaN	NaN	NaN	NaN
788.9778320000005	0.1	sub-26	1	sequence	stimulus	Gesicht	NaN	NaN	64.0	NaN	NaN	1.0	3.0	NaN	NaN	NaN	NaN	NaN
789.0778030000001	0.0668	sub-26	1	sequence	interval	dot	NaN	NaN	NaN	NaN	NaN	NaN	NaN	NaN	NaN	NaN	NaN	NaN
789.1446451000011	0.0999	sub-26	1	sequence	stimulus	Katze	NaN	NaN	64.0	NaN	NaN	3.0	4.0	NaN	NaN	NaN	NaN	NaN
789.2445848000007	0.0668	sub-26	1	sequence	interval	dot	NaN	NaN	NaN	NaN	NaN	NaN	NaN	NaN	NaN	NaN	NaN	NaN
789.3114293000017	0.0999	sub-26	1	sequence	stimulus	Stuhl	NaN	NaN	64.0	NaN	NaN	5.0	5.0	NaN	NaN	NaN	NaN	NaN
789.4113787000006	0.0667	sub-26	1	sequence	interval	dot	NaN	NaN	NaN	NaN	NaN	NaN	NaN	NaN	NaN	NaN	NaN	NaN
789.4781103000005	8.3715	sub-26	1	sequence	delay	dot	NaN	NaN	NaN	NaN	NaN	NaN	NaN	NaN	NaN	NaN	NaN	NaN
797.8344969000009	0.9847	sub-26	1	sequence	choice	choice	left	NaN	NaN	0.9603106999984448	True	NaN	NaN	left	True	5.0	3.0	5.0
798.8193736000012	0.5002	sub-26	1	sequence	feedback	NaN	NaN	NaN	NaN	NaN	NaN	NaN	NaN	NaN	NaN	NaN	NaN	NaN
799.3196759000002	1.0174	sub-26	1	sequence	cue	Schuh	NaN	NaN	NaN	NaN	NaN	NaN	NaN	NaN	NaN	NaN	NaN	NaN
800.3370806000003	1.9849	sub-26	1	sequence	blank	blank	NaN	NaN	NaN	NaN	NaN	NaN	NaN	NaN	NaN	NaN	NaN	NaN
802.3220094000008	0.3003	sub-26	1	sequence	fixation	dot	NaN	NaN	NaN	NaN	NaN	NaN	NaN	NaN	NaN	NaN	NaN	NaN
802.6403380000011	0.1152	sub-26	1	sequence	stimulus	Katze	NaN	NaN	64.0	NaN	NaN	3.0	1.0	NaN	NaN	NaN	NaN	NaN
802.7555172000011	0.0668	sub-26	1	sequence	interval	dot	NaN	NaN	NaN	NaN	NaN	NaN	NaN	NaN	NaN	NaN	NaN	NaN
802.8223442000017	0.1	sub-26	1	sequence	stimulus	Stuhl	NaN	NaN	64.0	NaN	NaN	5.0	2.0	NaN	NaN	NaN	NaN	NaN
802.9223167	0.0669	sub-26	1	sequence	interval	dot	NaN	NaN	NaN	NaN	NaN	NaN	NaN	NaN	NaN	NaN	NaN	NaN
802.9891676000007	0.0999	sub-26	1	sequence	stimulus	Schuh	NaN	NaN	64.0	NaN	NaN	4.0	3.0	NaN	NaN	NaN	NaN	NaN
803.0890797000011	0.0669	sub-26	1	sequence	interval	dot	NaN	NaN	NaN	NaN	NaN	NaN	NaN	NaN	NaN	NaN	NaN	NaN
803.1559498000006	0.1	sub-26	1	sequence	stimulus	Gesicht	NaN	NaN	64.0	NaN	NaN	1.0	4.0	NaN	NaN	NaN	NaN	NaN
803.2559335000005	0.0668	sub-26	1	sequence	interval	dot	NaN	NaN	NaN	NaN	NaN	NaN	NaN	NaN	NaN	NaN	NaN	NaN
803.3227806000014	0.0999	sub-26	1	sequence	stimulus	Haus	NaN	NaN	64.0	NaN	NaN	2.0	5.0	NaN	NaN	NaN	NaN	NaN
803.4226922000016	0.0668	sub-26	1	sequence	interval	dot	NaN	NaN	NaN	NaN	NaN	NaN	NaN	NaN	NaN	NaN	NaN	NaN
803.4894726000002	8.3716	sub-26	1	sequence	delay	dot	NaN	NaN	NaN	NaN	NaN	NaN	NaN	NaN	NaN	NaN	NaN	NaN
811.8481511000009	0.6154	sub-26	1	sequence	choice	choice	right	NaN	NaN	0.5888628000011522	True	NaN	NaN	right	True	4.0	3.0	3.0
812.463737	0.5007	sub-26	1	sequence	feedback	NaN	NaN	NaN	NaN	NaN	NaN	NaN	NaN	NaN	NaN	NaN	NaN	NaN
812.9645933000011	1.0004	sub-26	1	sequence	cue	Gesicht	NaN	NaN	NaN	NaN	NaN	NaN	NaN	NaN	NaN	NaN	NaN	NaN
813.9649821000003	2.0014	sub-26	1	sequence	blank	blank	NaN	NaN	NaN	NaN	NaN	NaN	NaN	NaN	NaN	NaN	NaN	NaN
815.9663930000006	0.3001	sub-26	1	sequence	fixation	dot	NaN	NaN	NaN	NaN	NaN	NaN	NaN	NaN	NaN	NaN	NaN	NaN
816.2848684	0.115	sub-26	1	sequence	stimulus	Haus	NaN	NaN	32.0	NaN	NaN	2.0	1.0	NaN	NaN	NaN	NaN	NaN
816.3998893000007	0.0335	sub-26	1	sequence	interval	dot	NaN	NaN	NaN	NaN	NaN	NaN	NaN	NaN	NaN	NaN	NaN	NaN
816.4333717000009	0.1	sub-26	1	sequence	stimulus	Stuhl	NaN	NaN	32.0	NaN	NaN	5.0	2.0	NaN	NaN	NaN	NaN	NaN
816.5333598000016	0.0335	sub-26	1	sequence	interval	dot	NaN	NaN	NaN	NaN	NaN	NaN	NaN	NaN	NaN	NaN	NaN	NaN
816.5668170000008	0.1	sub-26	1	sequence	stimulus	Gesicht	NaN	NaN	32.0	NaN	NaN	1.0	3.0	NaN	NaN	NaN	NaN	NaN
816.6667773000008	0.0335	sub-26	1	sequence	interval	dot	NaN	NaN	NaN	NaN	NaN	NaN	NaN	NaN	NaN	NaN	NaN	NaN
816.7002413000009	0.1	sub-26	1	sequence	stimulus	Katze	NaN	NaN	32.0	NaN	NaN	3.0	4.0	NaN	NaN	NaN	NaN	NaN
816.8002147000007	0.0335	sub-26	1	sequence	interval	dot	NaN	NaN	NaN	NaN	NaN	NaN	NaN	NaN	NaN	NaN	NaN	NaN
816.8336798	0.1	sub-26	1	sequence	stimulus	Schuh	NaN	NaN	32.0	NaN	NaN	4.0	5.0	NaN	NaN	NaN	NaN	NaN
816.9336693000005	0.0334	sub-26	1	sequence	interval	dot	NaN	NaN	NaN	NaN	NaN	NaN	NaN	NaN	NaN	NaN	NaN	NaN
816.9670401000003	8.5552	sub-26	1	sequence	delay	dot	NaN	NaN	NaN	NaN	NaN	NaN	NaN	NaN	NaN	NaN	NaN	NaN
825.4978331000002	0.6767	sub-26	1	sequence	choice	choice	left	NaN	NaN	0.6397200999999768	True	NaN	NaN	left	True	3.0	4.0	3.0
826.1747351000013	0.5003	sub-26	1	sequence	feedback	NaN	NaN	NaN	NaN	NaN	NaN	NaN	NaN	NaN	NaN	NaN	NaN	NaN
826.6751569000007	1.0007	sub-26	1	sequence	cue	Schuh	NaN	NaN	NaN	NaN	NaN	NaN	NaN	NaN	NaN	NaN	NaN	NaN
827.6758302000017	2.0016	sub-26	1	sequence	blank	blank	NaN	NaN	NaN	NaN	NaN	NaN	NaN	NaN	NaN	NaN	NaN	NaN
829.6774551000017	0.3001	sub-26	1	sequence	fixation	dot	NaN	NaN	NaN	NaN	NaN	NaN	NaN	NaN	NaN	NaN	NaN	NaN
829.9958370000004	0.1151	sub-26	1	sequence	stimulus	Katze	NaN	NaN	32.0	NaN	NaN	3.0	1.0	NaN	NaN	NaN	NaN	NaN
830.110959900001	0.0335	sub-26	1	sequence	interval	dot	NaN	NaN	NaN	NaN	NaN	NaN	NaN	NaN	NaN	NaN	NaN	NaN
830.1444417000002	0.1	sub-26	1	sequence	stimulus	Stuhl	NaN	NaN	32.0	NaN	NaN	5.0	2.0	NaN	NaN	NaN	NaN	NaN
830.2444077	0.0335	sub-26	1	sequence	interval	dot	NaN	NaN	NaN	NaN	NaN	NaN	NaN	NaN	NaN	NaN	NaN	NaN
830.2778897000007	0.0999	sub-26	1	sequence	stimulus	Gesicht	NaN	NaN	32.0	NaN	NaN	1.0	3.0	NaN	NaN	NaN	NaN	NaN
830.3778386000013	0.0335	sub-26	1	sequence	interval	dot	NaN	NaN	NaN	NaN	NaN	NaN	NaN	NaN	NaN	NaN	NaN	NaN
830.4113527000009	0.0999	sub-26	1	sequence	stimulus	Haus	NaN	NaN	32.0	NaN	NaN	2.0	4.0	NaN	NaN	NaN	NaN	NaN
830.5112983000017	0.0335	sub-26	1	sequence	interval	dot	NaN	NaN	NaN	NaN	NaN	NaN	NaN	NaN	NaN	NaN	NaN	NaN
830.5447649000016	0.1	sub-26	1	sequence	stimulus	Schuh	NaN	NaN	32.0	NaN	NaN	4.0	5.0	NaN	NaN	NaN	NaN	NaN
830.6447267000003	0.0334	sub-26	1	sequence	interval	dot	NaN	NaN	NaN	NaN	NaN	NaN	NaN	NaN	NaN	NaN	NaN	NaN
830.6780901000002	8.5385	sub-26	1	sequence	delay	dot	NaN	NaN	NaN	NaN	NaN	NaN	NaN	NaN	NaN	NaN	NaN	NaN
839.1995400000014	0.6527	sub-26	1	sequence	choice	choice	right	NaN	NaN	0.6333476999989216	True	NaN	NaN	right	True	3.0	5.0	5.0
839.8524382000014	0.5003	sub-26	1	sequence	feedback	NaN	NaN	NaN	NaN	NaN	NaN	NaN	NaN	NaN	NaN	NaN	NaN	NaN
840.3528902000016	1.0008	sub-26	1	sequence	cue	Haus	NaN	NaN	NaN	NaN	NaN	NaN	NaN	NaN	NaN	NaN	NaN	NaN
841.3537037000006	2.0017	sub-26	1	sequence	blank	blank	NaN	NaN	NaN	NaN	NaN	NaN	NaN	NaN	NaN	NaN	NaN	NaN
843.3554232000006	0.3002	sub-26	1	sequence	fixation	dot	NaN	NaN	NaN	NaN	NaN	NaN	NaN	NaN	NaN	NaN	NaN	NaN
843.673051400001	0.0992	sub-26	1	sequence	stimulus	Schuh	NaN	NaN	512.0	NaN	NaN	4.0	1.0	NaN	NaN	NaN	NaN	NaN
843.7722387000013	0.5171	sub-26	1	sequence	interval	dot	NaN	NaN	NaN	NaN	NaN	NaN	NaN	NaN	NaN	NaN	NaN	NaN
844.2893750000003	0.0999	sub-26	1	sequence	stimulus	Gesicht	NaN	NaN	512.0	NaN	NaN	1.0	2.0	NaN	NaN	NaN	NaN	NaN
844.3892775000004	0.5171	sub-26	1	sequence	interval	dot	NaN	NaN	NaN	NaN	NaN	NaN	NaN	NaN	NaN	NaN	NaN	NaN
844.9064081000015	0.1	sub-26	1	sequence	stimulus	Stuhl	NaN	NaN	512.0	NaN	NaN	5.0	3.0	NaN	NaN	NaN	NaN	NaN
845.0063960000007	0.5172	sub-26	1	sequence	interval	dot	NaN	NaN	NaN	NaN	NaN	NaN	NaN	NaN	NaN	NaN	NaN	NaN
845.5236128000015	0.1	sub-26	1	sequence	stimulus	Haus	NaN	NaN	512.0	NaN	NaN	2.0	4.0	NaN	NaN	NaN	NaN	NaN
845.6236110000009	0.5171	sub-26	1	sequence	interval	dot	NaN	NaN	NaN	NaN	NaN	NaN	NaN	NaN	NaN	NaN	NaN	NaN
846.1407384000013	0.1	sub-26	1	sequence	stimulus	Katze	NaN	NaN	512.0	NaN	NaN	3.0	5.0	NaN	NaN	NaN	NaN	NaN
846.2407124000001	0.5171	sub-26	1	sequence	interval	dot	NaN	NaN	NaN	NaN	NaN	NaN	NaN	NaN	NaN	NaN	NaN	NaN
846.7577998000015	6.1364	sub-26	1	sequence	delay	dot	NaN	NaN	NaN	NaN	NaN	NaN	NaN	NaN	NaN	NaN	NaN	NaN
852.8752546000014	0.6214	sub-26	1	sequence	choice	choice	right	NaN	NaN	0.5877336000012292	True	NaN	NaN	right	True	1.0	4.0	4.0
853.4968406000007	0.5002	sub-26	1	sequence	feedback	NaN	NaN	NaN	NaN	NaN	NaN	NaN	NaN	NaN	NaN	NaN	NaN	NaN
853.9973632000001	17.9809	sub-26	1	other	break	break	NaN	NaN	NaN	NaN	NaN	NaN	NaN	NaN	NaN	NaN	NaN	NaN
875.7988082000011	0.4995	sub-26	1	localizer	stimulus	Schuh	NaN	0	1.6847001999994973	NaN	True	NaN	NaN	NaN	NaN	NaN	NaN	NaN
876.2983243000017	1.6847	sub-26	1	localizer	blank	interval	NaN	NaN	NaN	NaN	NaN	NaN	NaN	NaN	NaN	NaN	NaN	NaN
878.2841358000005	0.4995	sub-26	1	localizer	stimulus	Stuhl	NaN	0	3.2358637999986968	NaN	True	NaN	NaN	NaN	NaN	NaN	NaN	NaN
878.7671139000013	3.2359	sub-26	1	localizer	blank	interval	NaN	NaN	NaN	NaN	NaN	NaN	NaN	NaN	NaN	NaN	NaN	NaN
882.3041986000007	0.4996	sub-26	1	localizer	stimulus	Schuh	NaN	0	3.5359535999996297	NaN	True	NaN	NaN	NaN	NaN	NaN	NaN	NaN
882.7871735000008	3.536	sub-26	1	localizer	blank	interval	NaN	NaN	NaN	NaN	NaN	NaN	NaN	NaN	NaN	NaN	NaN	NaN
886.6242360000015	0.4995	sub-26	1	localizer	stimulus	Gesicht	NaN	0	2.0848951999996643	NaN	True	NaN	NaN	NaN	NaN	NaN	NaN	NaN
887.1072080000013	2.0849	sub-26	1	localizer	blank	interval	NaN	NaN	NaN	NaN	NaN	NaN	NaN	NaN	NaN	NaN	NaN	NaN
889.4932107000004	0.4995	sub-26	1	localizer	stimulus	Katze	NaN	180	2.0182006000013644	0.4767248999996809	True	NaN	NaN	NaN	NaN	NaN	NaN	NaN
889.9761741000002	2.0182	sub-26	1	localizer	blank	interval	NaN	NaN	NaN	NaN	NaN	NaN	NaN	NaN	NaN	NaN	NaN	NaN
892.2954874000006	0.4995	sub-26	1	localizer	stimulus	Gesicht	NaN	0	2.3684740999997302	NaN	True	NaN	NaN	NaN	NaN	NaN	NaN	NaN
892.7784442000011	2.3685	sub-26	1	localizer	blank	interval	NaN	NaN	NaN	NaN	NaN	NaN	NaN	NaN	NaN	NaN	NaN	NaN
895.4480165000004	0.4995	sub-26	1	localizer	stimulus	Stuhl	NaN	0	2.718799799999033	NaN	True	NaN	NaN	NaN	NaN	NaN	NaN	NaN
895.9310004000017	2.7188	sub-26	1	localizer	blank	interval	NaN	NaN	NaN	NaN	NaN	NaN	NaN	NaN	NaN	NaN	NaN	NaN
898.9509221000008	0.4995	sub-26	1	localizer	stimulus	Haus	NaN	0	2.3684630000008156	NaN	True	NaN	NaN	NaN	NaN	NaN	NaN	NaN
899.4338453	2.3685	sub-26	1	localizer	blank	interval	NaN	NaN	NaN	NaN	NaN	NaN	NaN	NaN	NaN	NaN	NaN	NaN
902.1036471000008	0.4993	sub-26	1	localizer	stimulus	Haus	NaN	0	2.9357450000006793	NaN	True	NaN	NaN	NaN	NaN	NaN	NaN	NaN
902.5863974000004	2.9357	sub-26	1	localizer	blank	interval	NaN	NaN	NaN	NaN	NaN	NaN	NaN	NaN	NaN	NaN	NaN	NaN
905.8232862000004	0.4995	sub-26	1	localizer	stimulus	Gesicht	NaN	0	1.767760999999041	NaN	True	NaN	NaN	NaN	NaN	NaN	NaN	NaN
906.3062844000016	1.7678	sub-26	1	localizer	blank	interval	NaN	NaN	NaN	NaN	NaN	NaN	NaN	NaN	NaN	NaN	NaN	NaN
908.3751653000018	0.4995	sub-26	1	localizer	stimulus	Gesicht	NaN	0	2.8855623000000605	NaN	True	NaN	NaN	NaN	NaN	NaN	NaN	NaN
908.8581309	2.8856	sub-26	1	localizer	blank	interval	NaN	NaN	NaN	NaN	NaN	NaN	NaN	NaN	NaN	NaN	NaN	NaN
912.0447988000014	0.4995	sub-26	1	localizer	stimulus	Schuh	NaN	180	1.6678876000007676	0.5171449000008579	True	NaN	NaN	NaN	NaN	NaN	NaN	NaN
912.5277710000008	1.6679	sub-26	1	localizer	blank	interval	NaN	NaN	NaN	NaN	NaN	NaN	NaN	NaN	NaN	NaN	NaN	NaN
914.4967817000016	0.4995	sub-26	1	localizer	stimulus	Schuh	NaN	0	2.518577499998969	NaN	True	NaN	NaN	NaN	NaN	NaN	NaN	NaN
914.9797702000014	2.5186	sub-26	1	localizer	blank	interval	NaN	NaN	NaN	NaN	NaN	NaN	NaN	NaN	NaN	NaN	NaN	NaN
917.7994787000008	0.4995	sub-26	1	localizer	stimulus	Katze	NaN	0	2.6854416999996147	NaN	True	NaN	NaN	NaN	NaN	NaN	NaN	NaN
918.2824206000004	2.6854	sub-26	1	localizer	blank	interval	NaN	NaN	NaN	NaN	NaN	NaN	NaN	NaN	NaN	NaN	NaN	NaN
921.2689374	0.4995	sub-26	1	localizer	stimulus	Haus	NaN	180	2.8022478999992018	0.4370065000002796	True	NaN	NaN	NaN	NaN	NaN	NaN	NaN
921.7519402000016	2.8022	sub-26	1	localizer	blank	interval	NaN	NaN	NaN	NaN	NaN	NaN	NaN	NaN	NaN	NaN	NaN	NaN
924.8552064000014	0.4996	sub-26	1	localizer	stimulus	Schuh	NaN	0	2.251729300000079	NaN	True	NaN	NaN	NaN	NaN	NaN	NaN	NaN
925.3382793	2.2517	sub-26	1	localizer	blank	interval	NaN	NaN	NaN	NaN	NaN	NaN	NaN	NaN	NaN	NaN	NaN	NaN
927.8911613	0.4993	sub-26	1	localizer	stimulus	Haus	NaN	0	2.3851144000000204	NaN	True	NaN	NaN	NaN	NaN	NaN	NaN	NaN
928.3739567000011	2.3851	sub-26	1	localizer	blank	interval	NaN	NaN	NaN	NaN	NaN	NaN	NaN	NaN	NaN	NaN	NaN	NaN
931.0601640000004	0.4995	sub-26	1	localizer	stimulus	Stuhl	NaN	0	2.4518797999990056	NaN	True	NaN	NaN	NaN	NaN	NaN	NaN	NaN
931.5431679000012	2.4519	sub-26	1	localizer	blank	interval	NaN	NaN	NaN	NaN	NaN	NaN	NaN	NaN	NaN	NaN	NaN	NaN
934.2961624000018	0.4995	sub-26	1	localizer	stimulus	Katze	NaN	0	2.6853978000000325	NaN	True	NaN	NaN	NaN	NaN	NaN	NaN	NaN
934.7791177000016	2.6854	sub-26	1	localizer	blank	interval	NaN	NaN	NaN	NaN	NaN	NaN	NaN	NaN	NaN	NaN	NaN	NaN
937.7656020000012	0.4999	sub-26	1	localizer	stimulus	Katze	NaN	0	2.5685448999992104	NaN	True	NaN	NaN	NaN	NaN	NaN	NaN	NaN
938.2486547000008	2.5685	sub-26	1	localizer	blank	interval	NaN	NaN	NaN	NaN	NaN	NaN	NaN	NaN	NaN	NaN	NaN	NaN
941.1182965000008	0.4996	sub-26	1	localizer	stimulus	Stuhl	NaN	180	2.368497299999831	0.5075179000014032	True	NaN	NaN	NaN	NaN	NaN	NaN	NaN
941.6012925000014	2.3685	sub-26	1	localizer	blank	interval	NaN	NaN	NaN	NaN	NaN	NaN	NaN	NaN	NaN	NaN	NaN	NaN
944.2710530000004	0.4994	sub-26	1	localizer	stimulus	Stuhl	NaN	0	2.6688104999991538	NaN	True	NaN	NaN	NaN	NaN	NaN	NaN	NaN
944.7538880000012	2.6688	sub-26	1	localizer	blank	interval	NaN	NaN	NaN	NaN	NaN	NaN	NaN	NaN	NaN	NaN	NaN	NaN
947.7238316000004	0.4996	sub-26	1	localizer	stimulus	Gesicht	NaN	180	2.785239200000433	0.4779928999996627	True	NaN	NaN	NaN	NaN	NaN	NaN	NaN
948.2068827000004	2.7852	sub-26	1	localizer	blank	interval	NaN	NaN	NaN	NaN	NaN	NaN	NaN	NaN	NaN	NaN	NaN	NaN
951.2932365000016	0.4995	sub-26	1	localizer	stimulus	Haus	NaN	0	1.901374199998827	NaN	True	NaN	NaN	NaN	NaN	NaN	NaN	NaN
951.7762386000012	1.9014	sub-26	1	localizer	blank	interval	NaN	NaN	NaN	NaN	NaN	NaN	NaN	NaN	NaN	NaN	NaN	NaN
953.9787047000008	0.4995	sub-26	1	localizer	stimulus	Katze	NaN	0	2.1683061000002226	NaN	True	NaN	NaN	NaN	NaN	NaN	NaN	NaN
954.4616989000006	2.1683	sub-26	1	localizer	blank	interval	NaN	NaN	NaN	NaN	NaN	NaN	NaN	NaN	NaN	NaN	NaN	NaN
960.116470500001	1.0006	sub-26	1	sequence	cue	Katze	NaN	NaN	NaN	NaN	NaN	NaN	NaN	NaN	NaN	NaN	NaN	NaN
961.1170308	2.0016	sub-26	1	sequence	blank	blank	NaN	NaN	NaN	NaN	NaN	NaN	NaN	NaN	NaN	NaN	NaN	NaN
963.1186415000012	0.3003	sub-26	1	sequence	fixation	dot	NaN	NaN	NaN	NaN	NaN	NaN	NaN	NaN	NaN	NaN	NaN	NaN
963.4363695000012	0.0993	sub-26	1	sequence	stimulus	Haus	NaN	NaN	32.0	NaN	NaN	2.0	1.0	NaN	NaN	NaN	NaN	NaN
963.5356271	0.0335	sub-26	1	sequence	interval	dot	NaN	NaN	NaN	NaN	NaN	NaN	NaN	NaN	NaN	NaN	NaN	NaN
963.5690837000002	0.1	sub-26	1	sequence	stimulus	Stuhl	NaN	NaN	32.0	NaN	NaN	5.0	2.0	NaN	NaN	NaN	NaN	NaN
963.6690717	0.0334	sub-26	1	sequence	interval	dot	NaN	NaN	NaN	NaN	NaN	NaN	NaN	NaN	NaN	NaN	NaN	NaN
963.7025178000004	0.1	sub-26	1	sequence	stimulus	Gesicht	NaN	NaN	32.0	NaN	NaN	1.0	3.0	NaN	NaN	NaN	NaN	NaN
963.8025117000016	0.0335	sub-26	1	sequence	interval	dot	NaN	NaN	NaN	NaN	NaN	NaN	NaN	NaN	NaN	NaN	NaN	NaN
963.8359622000008	0.1	sub-26	1	sequence	stimulus	Katze	NaN	NaN	32.0	NaN	NaN	3.0	4.0	NaN	NaN	NaN	NaN	NaN
963.9359707000004	0.0334	sub-26	1	sequence	interval	dot	NaN	NaN	NaN	NaN	NaN	NaN	NaN	NaN	NaN	NaN	NaN	NaN
963.9694080000008	0.1	sub-26	1	sequence	stimulus	Schuh	NaN	NaN	32.0	NaN	NaN	4.0	5.0	NaN	NaN	NaN	NaN	NaN
964.0693895000004	0.0334	sub-26	1	sequence	interval	dot	NaN	NaN	NaN	NaN	NaN	NaN	NaN	NaN	NaN	NaN	NaN	NaN
964.1027582000006	8.5218	sub-26	1	sequence	delay	dot	NaN	NaN	NaN	NaN	NaN	NaN	NaN	NaN	NaN	NaN	NaN	NaN
972.602780700001	0.6908	sub-26	1	sequence	choice	choice	left	NaN	NaN	0.6573496999990311	True	NaN	NaN	left	True	4.0	3.0	4.0
973.2938171000004	0.5003	sub-26	1	sequence	feedback	NaN	NaN	NaN	NaN	NaN	NaN	NaN	NaN	NaN	NaN	NaN	NaN	NaN
973.7942196000004	1.0005	sub-26	1	sequence	cue	Haus	NaN	NaN	NaN	NaN	NaN	NaN	NaN	NaN	NaN	NaN	NaN	NaN
974.7947667000008	2.0016	sub-26	1	sequence	blank	blank	NaN	NaN	NaN	NaN	NaN	NaN	NaN	NaN	NaN	NaN	NaN	NaN
976.7963560000009	0.3003	sub-26	1	sequence	fixation	dot	NaN	NaN	NaN	NaN	NaN	NaN	NaN	NaN	NaN	NaN	NaN	NaN
977.1143011000004	0.1157	sub-26	1	sequence	stimulus	Haus	NaN	NaN	64.0	NaN	NaN	2.0	1.0	NaN	NaN	NaN	NaN	NaN
977.2300058	0.0669	sub-26	1	sequence	interval	dot	NaN	NaN	NaN	NaN	NaN	NaN	NaN	NaN	NaN	NaN	NaN	NaN
977.2968776000016	0.0999	sub-26	1	sequence	stimulus	Schuh	NaN	NaN	64.0	NaN	NaN	4.0	2.0	NaN	NaN	NaN	NaN	NaN
977.3968094000012	0.0668	sub-26	1	sequence	interval	dot	NaN	NaN	NaN	NaN	NaN	NaN	NaN	NaN	NaN	NaN	NaN	NaN
977.4636459000012	0.1	sub-26	1	sequence	stimulus	Gesicht	NaN	NaN	64.0	NaN	NaN	1.0	3.0	NaN	NaN	NaN	NaN	NaN
977.5636278000002	0.0668	sub-26	1	sequence	interval	dot	NaN	NaN	NaN	NaN	NaN	NaN	NaN	NaN	NaN	NaN	NaN	NaN
977.6304423	0.1	sub-26	1	sequence	stimulus	Katze	NaN	NaN	64.0	NaN	NaN	3.0	4.0	NaN	NaN	NaN	NaN	NaN
977.7304143	0.0669	sub-26	1	sequence	interval	dot	NaN	NaN	NaN	NaN	NaN	NaN	NaN	NaN	NaN	NaN	NaN	NaN
977.7972675	0.1	sub-26	1	sequence	stimulus	Stuhl	NaN	NaN	64.0	NaN	NaN	5.0	5.0	NaN	NaN	NaN	NaN	NaN
977.8972532000008	0.0667	sub-26	1	sequence	interval	dot	NaN	NaN	NaN	NaN	NaN	NaN	NaN	NaN	NaN	NaN	NaN	NaN
977.9639349000008	8.3883	sub-26	1	sequence	delay	dot	NaN	NaN	NaN	NaN	NaN	NaN	NaN	NaN	NaN	NaN	NaN	NaN
986.3305150000016	0.7743	sub-26	1	sequence	choice	choice	left	NaN	NaN	0.7378248999993957	True	NaN	NaN	left	True	1.0	5.0	1.0
987.1050002000012	0.5002	sub-26	1	sequence	feedback	NaN	NaN	NaN	NaN	NaN	NaN	NaN	NaN	NaN	NaN	NaN	NaN	NaN
987.6053465000005	1.0007	sub-26	1	sequence	cue	Haus	NaN	NaN	NaN	NaN	NaN	NaN	NaN	NaN	NaN	NaN	NaN	NaN
988.6060455000006	2.0016	sub-26	1	sequence	blank	blank	NaN	NaN	NaN	NaN	NaN	NaN	NaN	NaN	NaN	NaN	NaN	NaN
990.6077019000004	0.3003	sub-26	1	sequence	fixation	dot	NaN	NaN	NaN	NaN	NaN	NaN	NaN	NaN	NaN	NaN	NaN	NaN
990.9262393000008	0.1151	sub-26	1	sequence	stimulus	Katze	NaN	NaN	32.0	NaN	NaN	3.0	1.0	NaN	NaN	NaN	NaN	NaN
991.0413872000008	0.0334	sub-26	1	sequence	interval	dot	NaN	NaN	NaN	NaN	NaN	NaN	NaN	NaN	NaN	NaN	NaN	NaN
991.074763300001	0.0998	sub-26	1	sequence	stimulus	Stuhl	NaN	NaN	32.0	NaN	NaN	5.0	2.0	NaN	NaN	NaN	NaN	NaN
991.1746067000004	0.0335	sub-26	1	sequence	interval	dot	NaN	NaN	NaN	NaN	NaN	NaN	NaN	NaN	NaN	NaN	NaN	NaN
991.2080833	0.1	sub-26	1	sequence	stimulus	Gesicht	NaN	NaN	32.0	NaN	NaN	1.0	3.0	NaN	NaN	NaN	NaN	NaN
991.3080444000008	0.0336	sub-26	1	sequence	interval	dot	NaN	NaN	NaN	NaN	NaN	NaN	NaN	NaN	NaN	NaN	NaN	NaN
991.3416557	0.0999	sub-26	1	sequence	stimulus	Haus	NaN	NaN	32.0	NaN	NaN	2.0	4.0	NaN	NaN	NaN	NaN	NaN
991.4415938000002	0.0334	sub-26	1	sequence	interval	dot	NaN	NaN	NaN	NaN	NaN	NaN	NaN	NaN	NaN	NaN	NaN	NaN
991.4749595000012	0.1	sub-26	1	sequence	stimulus	Schuh	NaN	NaN	32.0	NaN	NaN	4.0	5.0	NaN	NaN	NaN	NaN	NaN
991.5749992	0.0333	sub-26	1	sequence	interval	dot	NaN	NaN	NaN	NaN	NaN	NaN	NaN	NaN	NaN	NaN	NaN	NaN
991.6083025000008	8.5384	sub-26	1	sequence	delay	dot	NaN	NaN	NaN	NaN	NaN	NaN	NaN	NaN	NaN	NaN	NaN	NaN
1000.136139100001	0.8132	sub-26	1	sequence	choice	choice	right	NaN	NaN	0.7993661000000429	True	NaN	NaN	right	True	2.0	4.0	4.0
1000.9494713000004	0.5002	sub-26	1	sequence	feedback	NaN	NaN	NaN	NaN	NaN	NaN	NaN	NaN	NaN	NaN	NaN	NaN	NaN
1001.4497661000004	1.0007	sub-26	1	sequence	cue	Schuh	NaN	NaN	NaN	NaN	NaN	NaN	NaN	NaN	NaN	NaN	NaN	NaN
1002.450444	2.0017	sub-26	1	sequence	blank	blank	NaN	NaN	NaN	NaN	NaN	NaN	NaN	NaN	NaN	NaN	NaN	NaN
1004.4521201000008	0.3002	sub-26	1	sequence	fixation	dot	NaN	NaN	NaN	NaN	NaN	NaN	NaN	NaN	NaN	NaN	NaN	NaN
1004.7698566000016	0.0992	sub-26	1	sequence	stimulus	Gesicht	NaN	NaN	128.0	NaN	NaN	1.0	1.0	NaN	NaN	NaN	NaN	NaN
1004.8690652000004	0.1335	sub-26	1	sequence	interval	dot	NaN	NaN	NaN	NaN	NaN	NaN	NaN	NaN	NaN	NaN	NaN	NaN
1005.0025731000004	0.1	sub-26	1	sequence	stimulus	Stuhl	NaN	NaN	128.0	NaN	NaN	5.0	2.0	NaN	NaN	NaN	NaN	NaN
1005.1025455000016	0.1336	sub-26	1	sequence	interval	dot	NaN	NaN	NaN	NaN	NaN	NaN	NaN	NaN	NaN	NaN	NaN	NaN
1005.2361397000004	0.0999	sub-26	1	sequence	stimulus	Katze	NaN	NaN	128.0	NaN	NaN	3.0	3.0	NaN	NaN	NaN	NaN	NaN
1005.3360889000014	0.1336	sub-26	1	sequence	interval	dot	NaN	NaN	NaN	NaN	NaN	NaN	NaN	NaN	NaN	NaN	NaN	NaN
1005.4696404000006	0.1	sub-26	1	sequence	stimulus	Schuh	NaN	NaN	128.0	NaN	NaN	4.0	4.0	NaN	NaN	NaN	NaN	NaN
1005.5696126000004	0.1336	sub-26	1	sequence	interval	dot	NaN	NaN	NaN	NaN	NaN	NaN	NaN	NaN	NaN	NaN	NaN	NaN
1005.7031743000008	0.0999	sub-26	1	sequence	stimulus	Haus	NaN	NaN	128.0	NaN	NaN	2.0	5.0	NaN	NaN	NaN	NaN	NaN
1005.803122700001	0.1334	sub-26	1	sequence	interval	dot	NaN	NaN	NaN	NaN	NaN	NaN	NaN	NaN	NaN	NaN	NaN	NaN
1005.9365715000004	8.0713	sub-26	1	sequence	delay	dot	NaN	NaN	NaN	NaN	NaN	NaN	NaN	NaN	NaN	NaN	NaN	NaN
1013.9938203000002	0.6332	sub-26	1	sequence	choice	choice	right	NaN	NaN	0.6181654000010894	True	NaN	NaN	right	True	5.0	4.0	4.0
1014.6272009000004	0.5002	sub-26	1	sequence	feedback	NaN	NaN	NaN	NaN	NaN	NaN	NaN	NaN	NaN	NaN	NaN	NaN	NaN
1015.1275400000012	1.0006	sub-26	1	sequence	cue	Schuh	NaN	NaN	NaN	NaN	NaN	NaN	NaN	NaN	NaN	NaN	NaN	NaN
1016.1281967000014	2.0016	sub-26	1	sequence	blank	blank	NaN	NaN	NaN	NaN	NaN	NaN	NaN	NaN	NaN	NaN	NaN	NaN
1018.129796700001	0.3003	sub-26	1	sequence	fixation	dot	NaN	NaN	NaN	NaN	NaN	NaN	NaN	NaN	NaN	NaN	NaN	NaN
1018.4477996000004	0.1156	sub-26	1	sequence	stimulus	Haus	NaN	NaN	512.0	NaN	NaN	2.0	1.0	NaN	NaN	NaN	NaN	NaN
1018.5634439000004	0.5172	sub-26	1	sequence	interval	dot	NaN	NaN	NaN	NaN	NaN	NaN	NaN	NaN	NaN	NaN	NaN	NaN
1019.0806573000008	0.1	sub-26	1	sequence	stimulus	Katze	NaN	NaN	512.0	NaN	NaN	3.0	2.0	NaN	NaN	NaN	NaN	NaN
1019.1806528000016	0.5172	sub-26	1	sequence	interval	dot	NaN	NaN	NaN	NaN	NaN	NaN	NaN	NaN	NaN	NaN	NaN	NaN
1019.6978283000008	0.0999	sub-26	1	sequence	stimulus	Gesicht	NaN	NaN	512.0	NaN	NaN	1.0	3.0	NaN	NaN	NaN	NaN	NaN
1019.7977755000012	0.5172	sub-26	1	sequence	interval	dot	NaN	NaN	NaN	NaN	NaN	NaN	NaN	NaN	NaN	NaN	NaN	NaN
1020.3149680000006	0.1	sub-26	1	sequence	stimulus	Schuh	NaN	NaN	512.0	NaN	NaN	4.0	4.0	NaN	NaN	NaN	NaN	NaN
1020.4149450000004	0.5172	sub-26	1	sequence	interval	dot	NaN	NaN	NaN	NaN	NaN	NaN	NaN	NaN	NaN	NaN	NaN	NaN
1020.9321621000016	0.1	sub-26	1	sequence	stimulus	Stuhl	NaN	NaN	512.0	NaN	NaN	5.0	5.0	NaN	NaN	NaN	NaN	NaN
1021.0321182000008	0.5171	sub-26	1	sequence	interval	dot	NaN	NaN	NaN	NaN	NaN	NaN	NaN	NaN	NaN	NaN	NaN	NaN
1021.549184200001	6.1365	sub-26	1	sequence	delay	dot	NaN	NaN	NaN	NaN	NaN	NaN	NaN	NaN	NaN	NaN	NaN	NaN
1027.669593300001	0.5353	sub-26	1	sequence	choice	choice	right	NaN	NaN	0.5162748000002466	True	NaN	NaN	right	True	3.0	4.0	4.0
1028.2050334000014	0.5001	sub-26	1	sequence	feedback	NaN	NaN	NaN	NaN	NaN	NaN	NaN	NaN	NaN	NaN	NaN	NaN	NaN
1028.7052382000002	1.0007	sub-26	1	sequence	cue	Haus	NaN	NaN	NaN	NaN	NaN	NaN	NaN	NaN	NaN	NaN	NaN	NaN
1029.7059914	2.0016	sub-26	1	sequence	blank	blank	NaN	NaN	NaN	NaN	NaN	NaN	NaN	NaN	NaN	NaN	NaN	NaN
1031.7076315000013	0.3003	sub-26	1	sequence	fixation	dot	NaN	NaN	NaN	NaN	NaN	NaN	NaN	NaN	NaN	NaN	NaN	NaN
1032.0262311000006	0.1151	sub-26	1	sequence	stimulus	Schuh	NaN	NaN	512.0	NaN	NaN	4.0	1.0	NaN	NaN	NaN	NaN	NaN
1032.141319800001	0.5171	sub-26	1	sequence	interval	dot	NaN	NaN	NaN	NaN	NaN	NaN	NaN	NaN	NaN	NaN	NaN	NaN
1032.6584662000005	0.1	sub-26	1	sequence	stimulus	Gesicht	NaN	NaN	512.0	NaN	NaN	1.0	2.0	NaN	NaN	NaN	NaN	NaN
1032.7584327000004	0.517	sub-26	1	sequence	interval	dot	NaN	NaN	NaN	NaN	NaN	NaN	NaN	NaN	NaN	NaN	NaN	NaN
1033.2754773000015	0.1	sub-26	1	sequence	stimulus	Stuhl	NaN	NaN	512.0	NaN	NaN	5.0	3.0	NaN	NaN	NaN	NaN	NaN
1033.3754472	0.5172	sub-26	1	sequence	interval	dot	NaN	NaN	NaN	NaN	NaN	NaN	NaN	NaN	NaN	NaN	NaN	NaN
1033.8926526000014	0.1	sub-26	1	sequence	stimulus	Haus	NaN	NaN	512.0	NaN	NaN	2.0	4.0	NaN	NaN	NaN	NaN	NaN
1033.9926364000005	0.5172	sub-26	1	sequence	interval	dot	NaN	NaN	NaN	NaN	NaN	NaN	NaN	NaN	NaN	NaN	NaN	NaN
1034.5097904000013	0.1	sub-26	1	sequence	stimulus	Katze	NaN	NaN	512.0	NaN	NaN	3.0	5.0	NaN	NaN	NaN	NaN	NaN
1034.6097713000015	0.5171	sub-26	1	sequence	interval	dot	NaN	NaN	NaN	NaN	NaN	NaN	NaN	NaN	NaN	NaN	NaN	NaN
1035.1268812000017	6.1532	sub-26	1	sequence	delay	dot	NaN	NaN	NaN	NaN	NaN	NaN	NaN	NaN	NaN	NaN	NaN	NaN
1041.2672843000018	0.6985	sub-26	1	sequence	choice	choice	left	NaN	NaN	0.6818937000025471	True	NaN	NaN	left	True	4.0	5.0	4.0
1041.965983	0.5006	sub-26	1	sequence	feedback	NaN	NaN	NaN	NaN	NaN	NaN	NaN	NaN	NaN	NaN	NaN	NaN	NaN
1042.4667202	1.0006	sub-26	1	sequence	cue	Schuh	NaN	NaN	NaN	NaN	NaN	NaN	NaN	NaN	NaN	NaN	NaN	NaN
1043.4672937000014	2.0013	sub-26	1	sequence	blank	blank	NaN	NaN	NaN	NaN	NaN	NaN	NaN	NaN	NaN	NaN	NaN	NaN
1045.468601300001	0.3003	sub-26	1	sequence	fixation	dot	NaN	NaN	NaN	NaN	NaN	NaN	NaN	NaN	NaN	NaN	NaN	NaN
1045.786453900002	0.0991	sub-26	1	sequence	stimulus	Katze	NaN	NaN	64.0	NaN	NaN	3.0	1.0	NaN	NaN	NaN	NaN	NaN
1045.8855685	0.0668	sub-26	1	sequence	interval	dot	NaN	NaN	NaN	NaN	NaN	NaN	NaN	NaN	NaN	NaN	NaN	NaN
1045.9524014	0.1	sub-26	1	sequence	stimulus	Stuhl	NaN	NaN	64.0	NaN	NaN	5.0	2.0	NaN	NaN	NaN	NaN	NaN
1046.052355400001	0.0668	sub-26	1	sequence	interval	dot	NaN	NaN	NaN	NaN	NaN	NaN	NaN	NaN	NaN	NaN	NaN	NaN
1046.1191863000004	0.1	sub-26	1	sequence	stimulus	Schuh	NaN	NaN	64.0	NaN	NaN	4.0	3.0	NaN	NaN	NaN	NaN	NaN
1046.2191724000022	0.0668	sub-26	1	sequence	interval	dot	NaN	NaN	NaN	NaN	NaN	NaN	NaN	NaN	NaN	NaN	NaN	NaN
1046.2860143000016	0.0999	sub-26	1	sequence	stimulus	Gesicht	NaN	NaN	64.0	NaN	NaN	1.0	4.0	NaN	NaN	NaN	NaN	NaN
1046.3859390000016	0.0669	sub-26	1	sequence	interval	dot	NaN	NaN	NaN	NaN	NaN	NaN	NaN	NaN	NaN	NaN	NaN	NaN
1046.4528140999992	0.1	sub-26	1	sequence	stimulus	Haus	NaN	NaN	64.0	NaN	NaN	2.0	5.0	NaN	NaN	NaN	NaN	NaN
1046.5528630000026	0.0667	sub-26	1	sequence	interval	dot	NaN	NaN	NaN	NaN	NaN	NaN	NaN	NaN	NaN	NaN	NaN	NaN
1046.6195338000016	8.3882	sub-26	1	sequence	delay	dot	NaN	NaN	NaN	NaN	NaN	NaN	NaN	NaN	NaN	NaN	NaN	NaN
1054.9949792000025	0.6819	sub-26	1	sequence	choice	choice	left	NaN	NaN	0.666344699999172	True	NaN	NaN	left	True	3.0	4.0	3.0
1055.6770707000014	0.5001	sub-26	1	sequence	feedback	NaN	NaN	NaN	NaN	NaN	NaN	NaN	NaN	NaN	NaN	NaN	NaN	NaN
1056.1773599999997	1.0007	sub-26	1	sequence	cue	Stuhl	NaN	NaN	NaN	NaN	NaN	NaN	NaN	NaN	NaN	NaN	NaN	NaN
1057.178042900001	2.0017	sub-26	1	sequence	blank	blank	NaN	NaN	NaN	NaN	NaN	NaN	NaN	NaN	NaN	NaN	NaN	NaN
1059.1797438000012	0.3002	sub-26	1	sequence	fixation	dot	NaN	NaN	NaN	NaN	NaN	NaN	NaN	NaN	NaN	NaN	NaN	NaN
1059.4983567	0.115	sub-26	1	sequence	stimulus	Katze	NaN	NaN	128.0	NaN	NaN	3.0	1.0	NaN	NaN	NaN	NaN	NaN
1059.6133360000003	0.1335	sub-26	1	sequence	interval	dot	NaN	NaN	NaN	NaN	NaN	NaN	NaN	NaN	NaN	NaN	NaN	NaN
1059.7468611000022	0.1	sub-26	1	sequence	stimulus	Schuh	NaN	NaN	128.0	NaN	NaN	4.0	2.0	NaN	NaN	NaN	NaN	NaN
1059.8468459000014	0.1335	sub-26	1	sequence	interval	dot	NaN	NaN	NaN	NaN	NaN	NaN	NaN	NaN	NaN	NaN	NaN	NaN
1059.9803704999997	0.1	sub-26	1	sequence	stimulus	Gesicht	NaN	NaN	128.0	NaN	NaN	1.0	3.0	NaN	NaN	NaN	NaN	NaN
1060.080356200002	0.1336	sub-26	1	sequence	interval	dot	NaN	NaN	NaN	NaN	NaN	NaN	NaN	NaN	NaN	NaN	NaN	NaN
1060.213955600002	0.0999	sub-26	1	sequence	stimulus	Stuhl	NaN	NaN	128.0	NaN	NaN	5.0	4.0	NaN	NaN	NaN	NaN	NaN
1060.3138842999997	0.1336	sub-26	1	sequence	interval	dot	NaN	NaN	NaN	NaN	NaN	NaN	NaN	NaN	NaN	NaN	NaN	NaN
1060.447471100002	0.0999	sub-26	1	sequence	stimulus	Haus	NaN	NaN	128.0	NaN	NaN	2.0	5.0	NaN	NaN	NaN	NaN	NaN
1060.5474153000014	0.1334	sub-26	1	sequence	interval	dot	NaN	NaN	NaN	NaN	NaN	NaN	NaN	NaN	NaN	NaN	NaN	NaN
1060.6808574000006	8.0547	sub-26	1	sequence	delay	dot	NaN	NaN	NaN	NaN	NaN	NaN	NaN	NaN	NaN	NaN	NaN	NaN
1068.7227471999995	0.5985	sub-26	1	sequence	choice	choice	right	NaN	NaN	0.5703137999989849	True	NaN	NaN	right	True	3.0	4.0	4.0
1069.3214358999994	0.5002	sub-26	1	sequence	feedback	NaN	NaN	NaN	NaN	NaN	NaN	NaN	NaN	NaN	NaN	NaN	NaN	NaN
1073.6424358000022	0.4995	sub-26	1	localizer	stimulus	Haus	NaN	0	3.2022515999994994	NaN	True	NaN	NaN	NaN	NaN	NaN	NaN	NaN
1074.1254056000016	3.2023	sub-26	1	localizer	blank	interval	NaN	NaN	NaN	NaN	NaN	NaN	NaN	NaN	NaN	NaN	NaN	NaN
1077.6287377999995	0.4996	sub-26	1	localizer	stimulus	Katze	NaN	0	2.5852914999995846	NaN	True	NaN	NaN	NaN	NaN	NaN	NaN	NaN
1078.1117546000005	2.5853	sub-26	1	localizer	blank	interval	NaN	NaN	NaN	NaN	NaN	NaN	NaN	NaN	NaN	NaN	NaN	NaN
1080.998136600001	0.4996	sub-26	1	localizer	stimulus	Katze	NaN	180	3.235810800000536	0.4676987999991979	True	NaN	NaN	NaN	NaN	NaN	NaN	NaN
1081.4811467000018	3.2358	sub-26	1	localizer	blank	interval	NaN	NaN	NaN	NaN	NaN	NaN	NaN	NaN	NaN	NaN	NaN	NaN
1085.0180564999991	0.4996	sub-26	1	localizer	stimulus	Stuhl	NaN	0	2.068254400001024	NaN	True	NaN	NaN	NaN	NaN	NaN	NaN	NaN
1085.5010311999995	2.0683	sub-26	1	localizer	blank	interval	NaN	NaN	NaN	NaN	NaN	NaN	NaN	NaN	NaN	NaN	NaN	NaN
1087.8703893000002	0.4995	sub-26	1	localizer	stimulus	Stuhl	NaN	180	1.2509243000022252	0.5156439000020328	True	NaN	NaN	NaN	NaN	NaN	NaN	NaN
1088.3533315000004	1.2509	sub-26	1	localizer	blank	interval	NaN	NaN	NaN	NaN	NaN	NaN	NaN	NaN	NaN	NaN	NaN	NaN
1089.9053460000014	0.4996	sub-26	1	localizer	stimulus	Schuh	NaN	0	2.1350853000005827	NaN	True	NaN	NaN	NaN	NaN	NaN	NaN	NaN
1090.3883246000023	2.1351	sub-26	1	localizer	blank	interval	NaN	NaN	NaN	NaN	NaN	NaN	NaN	NaN	NaN	NaN	NaN	NaN
1092.824456799999	0.4996	sub-26	1	localizer	stimulus	Katze	NaN	0	2.701921299998503	NaN	True	NaN	NaN	NaN	NaN	NaN	NaN	NaN
1093.3074964000025	2.7019	sub-26	1	localizer	blank	interval	NaN	NaN	NaN	NaN	NaN	NaN	NaN	NaN	NaN	NaN	NaN	NaN
1096.3105577000006	0.4995	sub-26	1	localizer	stimulus	Haus	NaN	0	2.8688460999983363	NaN	True	NaN	NaN	NaN	NaN	NaN	NaN	NaN
1096.793545300001	2.8688	sub-26	1	localizer	blank	interval	NaN	NaN	NaN	NaN	NaN	NaN	NaN	NaN	NaN	NaN	NaN	NaN
1099.9634857	0.4995	sub-26	1	localizer	stimulus	Gesicht	NaN	0	2.7020782000001873	NaN	True	NaN	NaN	NaN	NaN	NaN	NaN	NaN
1100.4464645000023	2.7021	sub-26	1	localizer	blank	interval	NaN	NaN	NaN	NaN	NaN	NaN	NaN	NaN	NaN	NaN	NaN	NaN
1103.4496358000015	0.4996	sub-26	1	localizer	stimulus	Katze	NaN	0	2.351774299997487	NaN	True	NaN	NaN	NaN	NaN	NaN	NaN	NaN
1103.932634400002	2.3518	sub-26	1	localizer	blank	interval	NaN	NaN	NaN	NaN	NaN	NaN	NaN	NaN	NaN	NaN	NaN	NaN
1106.5855073000002	0.4996	sub-26	1	localizer	stimulus	Schuh	NaN	180	3.1691539000021294	0.5764794999995502	True	NaN	NaN	NaN	NaN	NaN	NaN	NaN
1107.0685025000002	3.1692	sub-26	1	localizer	blank	interval	NaN	NaN	NaN	NaN	NaN	NaN	NaN	NaN	NaN	NaN	NaN	NaN
1110.5387310000024	0.4995	sub-26	1	localizer	stimulus	Schuh	NaN	0	2.051707100003341	NaN	True	NaN	NaN	NaN	NaN	NaN	NaN	NaN
1111.021682799999	2.0517	sub-26	1	localizer	blank	interval	NaN	NaN	NaN	NaN	NaN	NaN	NaN	NaN	NaN	NaN	NaN	NaN
1113.3744339999994	0.4996	sub-26	1	localizer	stimulus	Gesicht	NaN	180	1.9181208000009065	0.5475931000000855	True	NaN	NaN	NaN	NaN	NaN	NaN	NaN
1113.8574962000002	1.9181	sub-26	1	localizer	blank	interval	NaN	NaN	NaN	NaN	NaN	NaN	NaN	NaN	NaN	NaN	NaN	NaN
1116.0767338999997	0.4995	sub-26	1	localizer	stimulus	Schuh	NaN	0	2.0013682999999673	NaN	True	NaN	NaN	NaN	NaN	NaN	NaN	NaN
