onset	duration	subject	session	condition	trial_type	stim_label	key_down	orientation	interval_time	response_time	accuracy	stim_index	serial_position	key_expected	key_pressed	choice_left	choice_right	choice_correct
1.2661152000000584	1.6668	sub-27	1	instruction	instruction	language_selection	german	NaN	NaN	NaN	NaN	NaN	NaN	NaN	NaN	NaN	NaN	NaN
36.758079900000666	0.5024	sub-27	1	localizer	stimulus	Gesicht	NaN	0	1.567883100000472	NaN	1.0	NaN	NaN	NaN	NaN	NaN	NaN	NaN
37.24405560000014	1.5679	sub-27	1	localizer	blank	interval	NaN	NaN	NaN	NaN	NaN	NaN	NaN	NaN	NaN	NaN	NaN	NaN
39.11283630000071	0.4994	sub-27	1	localizer	stimulus	Stuhl	NaN	0	2.652001299999938	0.5195928000002823	False	NaN	NaN	NaN	NaN	NaN	NaN	NaN
39.59589120000055	2.652	sub-27	1	localizer	blank	interval	NaN	NaN	NaN	NaN	NaN	NaN	NaN	NaN	NaN	NaN	NaN	NaN
42.5489148000006	0.4996	sub-27	1	localizer	stimulus	Stuhl	NaN	0	2.3850330999994185	NaN	True	NaN	NaN	NaN	NaN	NaN	NaN	NaN
43.0319984000007	2.385	sub-27	1	localizer	blank	interval	NaN	NaN	NaN	NaN	NaN	NaN	NaN	NaN	NaN	NaN	NaN	NaN
45.71813960000054	0.4996	sub-27	1	localizer	stimulus	Katze	NaN	0	2.0348182999996425	NaN	True	NaN	NaN	NaN	NaN	NaN	NaN	NaN
46.20116170000074	2.0348	sub-27	1	localizer	blank	interval	NaN	NaN	NaN	NaN	NaN	NaN	NaN	NaN	NaN	NaN	NaN	NaN
48.53710940000019	0.4996	sub-27	1	localizer	stimulus	Haus	NaN	0	2.535305999999764	NaN	True	NaN	NaN	NaN	NaN	NaN	NaN	NaN
49.02012210000066	2.5353	sub-27	1	localizer	blank	interval	NaN	NaN	NaN	NaN	NaN	NaN	NaN	NaN	NaN	NaN	NaN	NaN
51.856448000000455	0.4996	sub-27	1	localizer	stimulus	Stuhl	NaN	180	3.052422900000245	0.6641363999997338	True	NaN	NaN	NaN	NaN	NaN	NaN	NaN
52.33944520000023	3.0524	sub-27	1	localizer	blank	interval	NaN	NaN	NaN	NaN	NaN	NaN	NaN	NaN	NaN	NaN	NaN	NaN
55.69298130000061	0.4996	sub-27	1	localizer	stimulus	Schuh	NaN	0	1.8513449000001927	NaN	True	NaN	NaN	NaN	NaN	NaN	NaN	NaN
56.17609160000029	1.8513	sub-27	1	localizer	blank	interval	NaN	NaN	NaN	NaN	NaN	NaN	NaN	NaN	NaN	NaN	NaN	NaN
58.3284749000004	0.4997	sub-27	1	localizer	stimulus	Haus	NaN	180	3.0687834000000294	0.7599989000000278	True	NaN	NaN	NaN	NaN	NaN	NaN	NaN
58.81156550000014	3.0688	sub-27	1	localizer	blank	interval	NaN	NaN	NaN	NaN	NaN	NaN	NaN	NaN	NaN	NaN	NaN	NaN
62.18147200000021	0.4995	sub-27	1	localizer	stimulus	Haus	NaN	0	2.8187068000006548	NaN	True	NaN	NaN	NaN	NaN	NaN	NaN	NaN
62.66460439999992	2.8187	sub-27	1	localizer	blank	interval	NaN	NaN	NaN	NaN	NaN	NaN	NaN	NaN	NaN	NaN	NaN	NaN
65.78438020000067	0.4995	sub-27	1	localizer	stimulus	Katze	NaN	0	3.035646400000587	NaN	True	NaN	NaN	NaN	NaN	NaN	NaN	NaN
66.26739850000013	3.0356	sub-27	1	localizer	blank	interval	NaN	NaN	NaN	NaN	NaN	NaN	NaN	NaN	NaN	NaN	NaN	NaN
69.60414149999997	0.4996	sub-27	1	localizer	stimulus	Schuh	NaN	0	2.2182356000002983	NaN	True	NaN	NaN	NaN	NaN	NaN	NaN	NaN
70.08721500000047	2.2182	sub-27	1	localizer	blank	interval	NaN	NaN	NaN	NaN	NaN	NaN	NaN	NaN	NaN	NaN	NaN	NaN
72.60654479999994	0.4996	sub-27	1	localizer	stimulus	Gesicht	NaN	180	2.268343400000049	0.5779244000004837	True	NaN	NaN	NaN	NaN	NaN	NaN	NaN
73.0895444000007	2.2683	sub-27	1	localizer	blank	interval	NaN	NaN	NaN	NaN	NaN	NaN	NaN	NaN	NaN	NaN	NaN	NaN
75.65932370000064	0.4992	sub-27	1	localizer	stimulus	Schuh	NaN	0	2.735560600000099	NaN	True	NaN	NaN	NaN	NaN	NaN	NaN	NaN
76.14204599999994	2.7356	sub-27	1	localizer	blank	interval	NaN	NaN	NaN	NaN	NaN	NaN	NaN	NaN	NaN	NaN	NaN	NaN
79.17867340000066	0.4997	sub-27	1	localizer	stimulus	Katze	NaN	0	3.102279400000043	NaN	True	NaN	NaN	NaN	NaN	NaN	NaN	NaN
79.66176950000045	3.1023	sub-27	1	localizer	blank	interval	NaN	NaN	NaN	NaN	NaN	NaN	NaN	NaN	NaN	NaN	NaN	NaN
83.06499820000045	0.4995	sub-27	1	localizer	stimulus	Gesicht	NaN	0	2.301738699999987	NaN	True	NaN	NaN	NaN	NaN	NaN	NaN	NaN
83.54797380000036	2.3017	sub-27	1	localizer	blank	interval	NaN	NaN	NaN	NaN	NaN	NaN	NaN	NaN	NaN	NaN	NaN	NaN
86.15087310000035	0.4995	sub-27	1	localizer	stimulus	Haus	NaN	0	2.1349026999996568	NaN	True	NaN	NaN	NaN	NaN	NaN	NaN	NaN
86.63385350000044	2.1349	sub-27	1	localizer	blank	interval	NaN	NaN	NaN	NaN	NaN	NaN	NaN	NaN	NaN	NaN	NaN	NaN
89.06985560000066	0.4995	sub-27	1	localizer	stimulus	Schuh	NaN	0	2.501834200000303	NaN	True	NaN	NaN	NaN	NaN	NaN	NaN	NaN
89.5528860000004	2.5018	sub-27	1	localizer	blank	interval	NaN	NaN	NaN	NaN	NaN	NaN	NaN	NaN	NaN	NaN	NaN	NaN
92.3558223	0.4995	sub-27	1	localizer	stimulus	Schuh	NaN	180	1.6178061000000667	0.5887369000001854	True	NaN	NaN	NaN	NaN	NaN	NaN	NaN
92.83884930000022	1.6178	sub-27	1	localizer	blank	interval	NaN	NaN	NaN	NaN	NaN	NaN	NaN	NaN	NaN	NaN	NaN	NaN
94.75777749999996	0.4996	sub-27	1	localizer	stimulus	Stuhl	NaN	0	2.7688148999995974	NaN	True	NaN	NaN	NaN	NaN	NaN	NaN	NaN
95.24091060000046	2.7688	sub-27	1	localizer	blank	interval	NaN	NaN	NaN	NaN	NaN	NaN	NaN	NaN	NaN	NaN	NaN	NaN
98.31075310000053	0.4996	sub-27	1	localizer	stimulus	Gesicht	NaN	0	2.385150600000074	NaN	True	NaN	NaN	NaN	NaN	NaN	NaN	NaN
98.79385640000056	2.3852	sub-27	1	localizer	blank	interval	NaN	NaN	NaN	NaN	NaN	NaN	NaN	NaN	NaN	NaN	NaN	NaN
101.48007039999992	0.4993	sub-27	1	localizer	stimulus	Katze	NaN	180	2.351755400000002	0.5843977999993513	True	NaN	NaN	NaN	NaN	NaN	NaN	NaN
101.9629259000003	2.3518	sub-27	1	localizer	blank	interval	NaN	NaN	NaN	NaN	NaN	NaN	NaN	NaN	NaN	NaN	NaN	NaN
104.61574230000042	0.4996	sub-27	1	localizer	stimulus	Katze	NaN	0	2.1345600000003913	NaN	True	NaN	NaN	NaN	NaN	NaN	NaN	NaN
105.09913890000009	2.1346	sub-27	1	localizer	blank	interval	NaN	NaN	NaN	NaN	NaN	NaN	NaN	NaN	NaN	NaN	NaN	NaN
107.53475230000004	0.4996	sub-27	1	localizer	stimulus	Stuhl	NaN	0	2.4018182999998174	NaN	True	NaN	NaN	NaN	NaN	NaN	NaN	NaN
108.01776300000074	2.4018	sub-27	1	localizer	blank	interval	NaN	NaN	NaN	NaN	NaN	NaN	NaN	NaN	NaN	NaN	NaN	NaN
110.72068320000017	0.4996	sub-27	1	localizer	stimulus	Haus	NaN	0	2.401782299999468	NaN	True	NaN	NaN	NaN	NaN	NaN	NaN	NaN
111.2037519000005	2.4018	sub-27	1	localizer	blank	interval	NaN	NaN	NaN	NaN	NaN	NaN	NaN	NaN	NaN	NaN	NaN	NaN
113.90662780000002	0.4995	sub-27	1	localizer	stimulus	Gesicht	NaN	0	1.5676667000006717	NaN	True	NaN	NaN	NaN	NaN	NaN	NaN	NaN
114.38969369999997	1.5677	sub-27	1	localizer	blank	interval	NaN	NaN	NaN	NaN	NaN	NaN	NaN	NaN	NaN	NaN	NaN	NaN
119.44416560000082	1.0004	sub-27	1	sequence	cue	Katze	NaN	NaN	NaN	NaN	NaN	NaN	NaN	NaN	NaN	NaN	NaN	NaN
120.44455300000028	2.0016	sub-27	1	sequence	blank	blank	NaN	NaN	NaN	NaN	NaN	NaN	NaN	NaN	NaN	NaN	NaN	NaN
122.44621020000068	0.3001	sub-27	1	sequence	fixation	dot	NaN	NaN	NaN	NaN	NaN	NaN	NaN	NaN	NaN	NaN	NaN	NaN
122.81106480000015	0.102	sub-27	1	sequence	stimulus	Stuhl	NaN	NaN	32.0	NaN	NaN	5.0	1.0	NaN	NaN	NaN	NaN	NaN
122.91305100000044	0.0335	sub-27	1	sequence	interval	dot	NaN	NaN	NaN	NaN	NaN	NaN	NaN	NaN	NaN	NaN	NaN	NaN
122.9465439000005	0.0999	sub-27	1	sequence	stimulus	Katze	NaN	NaN	32.0	NaN	NaN	3.0	2.0	NaN	NaN	NaN	NaN	NaN
123.04646910000064	0.0335	sub-27	1	sequence	interval	dot	NaN	NaN	NaN	NaN	NaN	NaN	NaN	NaN	NaN	NaN	NaN	NaN
123.0800003000004	0.0999	sub-27	1	sequence	stimulus	Schuh	NaN	NaN	32.0	NaN	NaN	4.0	3.0	NaN	NaN	NaN	NaN	NaN
123.17987549999998	0.0336	sub-27	1	sequence	interval	dot	NaN	NaN	NaN	NaN	NaN	NaN	NaN	NaN	NaN	NaN	NaN	NaN
123.21345550000024	0.0999	sub-27	1	sequence	stimulus	Haus	NaN	NaN	32.0	NaN	NaN	2.0	4.0	NaN	NaN	NaN	NaN	NaN
123.31337620000068	0.0335	sub-27	1	sequence	interval	dot	NaN	NaN	NaN	NaN	NaN	NaN	NaN	NaN	NaN	NaN	NaN	NaN
123.34688890000052	0.0999	sub-27	1	sequence	stimulus	Gesicht	NaN	NaN	32.0	NaN	NaN	1.0	5.0	NaN	NaN	NaN	NaN	NaN
123.44677290000072	0.0334	sub-27	1	sequence	interval	dot	NaN	NaN	NaN	NaN	NaN	NaN	NaN	NaN	NaN	NaN	NaN	NaN
123.48017250000066	8.5549	sub-27	1	sequence	delay	dot	NaN	NaN	NaN	NaN	NaN	NaN	NaN	NaN	NaN	NaN	NaN	NaN
132.0034028	0.8178	sub-27	1	sequence	choice	choice	right	NaN	NaN	0.7815285000006043	True	NaN	NaN	right	1.0	4.0	2.0	2.0
132.82160980000026	0.5	sub-27	1	sequence	feedback	NaN	NaN	NaN	NaN	NaN	NaN	NaN	NaN	NaN	NaN	NaN	NaN	NaN
133.32176380000055	1.0006	sub-27	1	sequence	cue	Katze	NaN	NaN	NaN	NaN	NaN	NaN	NaN	NaN	NaN	NaN	NaN	NaN
134.32236620000003	2.0016	sub-27	1	sequence	blank	blank	NaN	NaN	NaN	NaN	NaN	NaN	NaN	NaN	NaN	NaN	NaN	NaN
136.32398420000027	0.3001	sub-27	1	sequence	fixation	dot	NaN	NaN	NaN	NaN	NaN	NaN	NaN	NaN	NaN	NaN	NaN	NaN
136.64182640000035	0.099	sub-27	1	sequence	stimulus	Haus	NaN	NaN	512.0	NaN	NaN	2.0	1.0	NaN	NaN	NaN	NaN	NaN
136.74085420000029	0.5176	sub-27	1	sequence	interval	dot	NaN	NaN	NaN	NaN	NaN	NaN	NaN	NaN	NaN	NaN	NaN	NaN
137.25841590000073	0.0996	sub-27	1	sequence	stimulus	Schuh	NaN	NaN	512.0	NaN	NaN	4.0	2.0	NaN	NaN	NaN	NaN	NaN
137.35802450000028	0.5172	sub-27	1	sequence	interval	dot	NaN	NaN	NaN	NaN	NaN	NaN	NaN	NaN	NaN	NaN	NaN	NaN
137.8752744000003	0.1001	sub-27	1	sequence	stimulus	Gesicht	NaN	NaN	512.0	NaN	NaN	1.0	3.0	NaN	NaN	NaN	NaN	NaN
137.97533720000047	0.5171	sub-27	1	sequence	interval	dot	NaN	NaN	NaN	NaN	NaN	NaN	NaN	NaN	NaN	NaN	NaN	NaN
138.4924471000004	0.0999	sub-27	1	sequence	stimulus	Stuhl	NaN	NaN	512.0	NaN	NaN	5.0	4.0	NaN	NaN	NaN	NaN	NaN
138.59236820000024	0.5172	sub-27	1	sequence	interval	dot	NaN	NaN	NaN	NaN	NaN	NaN	NaN	NaN	NaN	NaN	NaN	NaN
139.10956420000002	0.1	sub-27	1	sequence	stimulus	Katze	NaN	NaN	512.0	NaN	NaN	3.0	5.0	NaN	NaN	NaN	NaN	NaN
139.20951910000076	0.5171	sub-27	1	sequence	interval	dot	NaN	NaN	NaN	NaN	NaN	NaN	NaN	NaN	NaN	NaN	NaN	NaN
139.7266412000008	6.1529	sub-27	1	sequence	delay	dot	NaN	NaN	NaN	NaN	NaN	NaN	NaN	NaN	NaN	NaN	NaN	NaN
145.86106280000058	0.788	sub-27	1	sequence	choice	choice	left	NaN	NaN	0.7529328000000532	True	NaN	NaN	left	True	5.0	4.0	5.0
146.64937570000075	0.5001	sub-27	1	sequence	feedback	NaN	NaN	NaN	NaN	NaN	NaN	NaN	NaN	NaN	NaN	NaN	NaN	NaN
147.14968960000078	1.0004	sub-27	1	sequence	cue	Gesicht	NaN	NaN	NaN	NaN	NaN	NaN	NaN	NaN	NaN	NaN	NaN	NaN
148.15011159999997	2.0016	sub-27	1	sequence	blank	blank	NaN	NaN	NaN	NaN	NaN	NaN	NaN	NaN	NaN	NaN	NaN	NaN
150.1517276000004	0.3003	sub-27	1	sequence	fixation	dot	NaN	NaN	NaN	NaN	NaN	NaN	NaN	NaN	NaN	NaN	NaN	NaN
150.46958450000056	0.0991	sub-27	1	sequence	stimulus	Schuh	NaN	NaN	128.0	NaN	NaN	4.0	1.0	NaN	NaN	NaN	NaN	NaN
150.56868030000078	0.1336	sub-27	1	sequence	interval	dot	NaN	NaN	NaN	NaN	NaN	NaN	NaN	NaN	NaN	NaN	NaN	NaN
150.7023050000007	0.0999	sub-27	1	sequence	stimulus	Katze	NaN	NaN	128.0	NaN	NaN	3.0	2.0	NaN	NaN	NaN	NaN	NaN
150.8022372000005	0.1336	sub-27	1	sequence	interval	dot	NaN	NaN	NaN	NaN	NaN	NaN	NaN	NaN	NaN	NaN	NaN	NaN
150.93588420000015	0.0999	sub-27	1	sequence	stimulus	Haus	NaN	NaN	128.0	NaN	NaN	2.0	3.0	NaN	NaN	NaN	NaN	NaN
151.03574840000056	0.1336	sub-27	1	sequence	interval	dot	NaN	NaN	NaN	NaN	NaN	NaN	NaN	NaN	NaN	NaN	NaN	NaN
151.1693535000004	0.0999	sub-27	1	sequence	stimulus	Gesicht	NaN	NaN	128.0	NaN	NaN	1.0	4.0	NaN	NaN	NaN	NaN	NaN
151.26924920000056	0.1336	sub-27	1	sequence	interval	dot	NaN	NaN	NaN	NaN	NaN	NaN	NaN	NaN	NaN	NaN	NaN	NaN
151.4028728000003	0.0999	sub-27	1	sequence	stimulus	Stuhl	NaN	NaN	128.0	NaN	NaN	5.0	5.0	NaN	NaN	NaN	NaN	NaN
151.50278010000056	0.1335	sub-27	1	sequence	interval	dot	NaN	NaN	NaN	NaN	NaN	NaN	NaN	NaN	NaN	NaN	NaN	NaN
151.6362547000008	8.0714	sub-27	1	sequence	delay	dot	NaN	NaN	NaN	NaN	NaN	NaN	NaN	NaN	NaN	NaN	NaN	NaN
159.69270680000045	0.7343	sub-27	1	sequence	choice	choice	left	NaN	NaN	0.7168471000004502	True	NaN	NaN	left	True	4.0	5.0	4.0
160.4272660000006	0.5001	sub-27	1	sequence	feedback	NaN	NaN	NaN	NaN	NaN	NaN	NaN	NaN	NaN	NaN	NaN	NaN	NaN
160.92757500000062	1.0006	sub-27	1	sequence	cue	Haus	NaN	NaN	NaN	NaN	NaN	NaN	NaN	NaN	NaN	NaN	NaN	NaN
161.92823190000036	2.0015	sub-27	1	sequence	blank	blank	NaN	NaN	NaN	NaN	NaN	NaN	NaN	NaN	NaN	NaN	NaN	NaN
163.92973830000028	0.3002	sub-27	1	sequence	fixation	dot	NaN	NaN	NaN	NaN	NaN	NaN	NaN	NaN	NaN	NaN	NaN	NaN
164.24827060000007	0.1151	sub-27	1	sequence	stimulus	Schuh	NaN	NaN	512.0	NaN	NaN	4.0	1.0	NaN	NaN	NaN	NaN	NaN
164.3633974000004	0.517	sub-27	1	sequence	interval	dot	NaN	NaN	NaN	NaN	NaN	NaN	NaN	NaN	NaN	NaN	NaN	NaN
164.8804387	0.1	sub-27	1	sequence	stimulus	Gesicht	NaN	NaN	512.0	NaN	NaN	1.0	2.0	NaN	NaN	NaN	NaN	NaN
164.98041840000042	0.5172	sub-27	1	sequence	interval	dot	NaN	NaN	NaN	NaN	NaN	NaN	NaN	NaN	NaN	NaN	NaN	NaN
165.49762720000035	0.1	sub-27	1	sequence	stimulus	Haus	NaN	NaN	512.0	NaN	NaN	2.0	3.0	NaN	NaN	NaN	NaN	NaN
165.5976384000005	0.5171	sub-27	1	sequence	interval	dot	NaN	NaN	NaN	NaN	NaN	NaN	NaN	NaN	NaN	NaN	NaN	NaN
166.1147714000008	0.0999	sub-27	1	sequence	stimulus	Stuhl	NaN	NaN	512.0	NaN	NaN	5.0	4.0	NaN	NaN	NaN	NaN	NaN
166.21469780000007	0.5172	sub-27	1	sequence	interval	dot	NaN	NaN	NaN	NaN	NaN	NaN	NaN	NaN	NaN	NaN	NaN	NaN
166.73191860000043	0.0999	sub-27	1	sequence	stimulus	Katze	NaN	NaN	512.0	NaN	NaN	3.0	5.0	NaN	NaN	NaN	NaN	NaN
166.8318463000005	0.5172	sub-27	1	sequence	interval	dot	NaN	NaN	NaN	NaN	NaN	NaN	NaN	NaN	NaN	NaN	NaN	NaN
167.34906500000034	6.1362	sub-27	1	sequence	delay	dot	NaN	NaN	NaN	NaN	NaN	NaN	NaN	NaN	NaN	NaN	NaN	NaN
173.4723679000008	0.8992	sub-27	1	sequence	choice	choice	right	NaN	NaN	0.8833431000002747	True	NaN	NaN	right	True	4.0	3.0	3.0
174.37182590000066	0.5	sub-27	1	sequence	feedback	NaN	NaN	NaN	NaN	NaN	NaN	NaN	NaN	NaN	NaN	NaN	NaN	NaN
174.8720454000004	1.0005	sub-27	1	sequence	cue	Schuh	NaN	NaN	NaN	NaN	NaN	NaN	NaN	NaN	NaN	NaN	NaN	NaN
175.87250620000032	2.0017	sub-27	1	sequence	blank	blank	NaN	NaN	NaN	NaN	NaN	NaN	NaN	NaN	NaN	NaN	NaN	NaN
177.87418030000026	0.3003	sub-27	1	sequence	fixation	dot	NaN	NaN	NaN	NaN	NaN	NaN	NaN	NaN	NaN	NaN	NaN	NaN
178.1918923000003	0.0992	sub-27	1	sequence	stimulus	Haus	NaN	NaN	64.0	NaN	NaN	2.0	1.0	NaN	NaN	NaN	NaN	NaN
178.29109700000026	0.0669	sub-27	1	sequence	interval	dot	NaN	NaN	NaN	NaN	NaN	NaN	NaN	NaN	NaN	NaN	NaN	NaN
178.35802480000075	0.0999	sub-27	1	sequence	stimulus	Katze	NaN	NaN	64.0	NaN	NaN	3.0	2.0	NaN	NaN	NaN	NaN	NaN
178.45794540000043	0.0668	sub-27	1	sequence	interval	dot	NaN	NaN	NaN	NaN	NaN	NaN	NaN	NaN	NaN	NaN	NaN	NaN
178.52479290000065	0.0999	sub-27	1	sequence	stimulus	Schuh	NaN	NaN	64.0	NaN	NaN	4.0	3.0	NaN	NaN	NaN	NaN	NaN
178.62471619999997	0.0669	sub-27	1	sequence	interval	dot	NaN	NaN	NaN	NaN	NaN	NaN	NaN	NaN	NaN	NaN	NaN	NaN
178.69158590000006	0.0999	sub-27	1	sequence	stimulus	Stuhl	NaN	NaN	64.0	NaN	NaN	5.0	4.0	NaN	NaN	NaN	NaN	NaN
178.79151040000033	0.0669	sub-27	1	sequence	interval	dot	NaN	NaN	NaN	NaN	NaN	NaN	NaN	NaN	NaN	NaN	NaN	NaN
178.8584062	0.1	sub-27	1	sequence	stimulus	Gesicht	NaN	NaN	64.0	NaN	NaN	1.0	5.0	NaN	NaN	NaN	NaN	NaN
178.95840279999993	0.0667	sub-27	1	sequence	interval	dot	NaN	NaN	NaN	NaN	NaN	NaN	NaN	NaN	NaN	NaN	NaN	NaN
179.0250848000005	8.3715	sub-27	1	sequence	delay	dot	NaN	NaN	NaN	NaN	NaN	NaN	NaN	NaN	NaN	NaN	NaN	NaN
187.3820553000005	0.884	sub-27	1	sequence	choice	choice	left	NaN	NaN	0.8598112999998193	True	NaN	NaN	left	True	3.0	5.0	3.0
188.26636250000047	0.5001	sub-27	1	sequence	feedback	NaN	NaN	NaN	NaN	NaN	NaN	NaN	NaN	NaN	NaN	NaN	NaN	NaN
188.7665794000004	1.0005	sub-27	1	sequence	cue	Stuhl	NaN	NaN	NaN	NaN	NaN	NaN	NaN	NaN	NaN	NaN	NaN	NaN
189.7670717000001	2.0016	sub-27	1	sequence	blank	blank	NaN	NaN	NaN	NaN	NaN	NaN	NaN	NaN	NaN	NaN	NaN	NaN
191.76869250000072	0.3003	sub-27	1	sequence	fixation	dot	NaN	NaN	NaN	NaN	NaN	NaN	NaN	NaN	NaN	NaN	NaN	NaN
192.08653420000064	0.0992	sub-27	1	sequence	stimulus	Katze	NaN	NaN	128.0	NaN	NaN	3.0	1.0	NaN	NaN	NaN	NaN	NaN
192.1857731	0.1336	sub-27	1	sequence	interval	dot	NaN	NaN	NaN	NaN	NaN	NaN	NaN	NaN	NaN	NaN	NaN	NaN
192.31933389999995	0.0999	sub-27	1	sequence	stimulus	Haus	NaN	NaN	128.0	NaN	NaN	2.0	2.0	NaN	NaN	NaN	NaN	NaN
192.41920720000053	0.1336	sub-27	1	sequence	interval	dot	NaN	NaN	NaN	NaN	NaN	NaN	NaN	NaN	NaN	NaN	NaN	NaN
192.55281450000075	0.1	sub-27	1	sequence	stimulus	Gesicht	NaN	NaN	128.0	NaN	NaN	1.0	3.0	NaN	NaN	NaN	NaN	NaN
192.6528416000001	0.1335	sub-27	1	sequence	interval	dot	NaN	NaN	NaN	NaN	NaN	NaN	NaN	NaN	NaN	NaN	NaN	NaN
192.78629170000025	0.1	sub-27	1	sequence	stimulus	Stuhl	NaN	NaN	128.0	NaN	NaN	5.0	4.0	NaN	NaN	NaN	NaN	NaN
192.8863211000007	0.1335	sub-27	1	sequence	interval	dot	NaN	NaN	NaN	NaN	NaN	NaN	NaN	NaN	NaN	NaN	NaN	NaN
193.01984530000027	0.1	sub-27	1	sequence	stimulus	Schuh	NaN	NaN	128.0	NaN	NaN	4.0	5.0	NaN	NaN	NaN	NaN	NaN
193.11987560000037	0.1334	sub-27	1	sequence	interval	dot	NaN	NaN	NaN	NaN	NaN	NaN	NaN	NaN	NaN	NaN	NaN	NaN
193.25331069999996	8.0545	sub-27	1	sequence	delay	dot	NaN	NaN	NaN	NaN	NaN	NaN	NaN	NaN	NaN	NaN	NaN	NaN
201.29178420000065	0.6854	sub-27	1	sequence	choice	choice	right	NaN	NaN	0.6686120000003939	True	NaN	NaN	right	True	5.0	4.0	4.0
201.97742760000077	0.5001	sub-27	1	sequence	feedback	NaN	NaN	NaN	NaN	NaN	NaN	NaN	NaN	NaN	NaN	NaN	NaN	NaN
202.4778176	1.0006	sub-27	1	sequence	cue	Haus	NaN	NaN	NaN	NaN	NaN	NaN	NaN	NaN	NaN	NaN	NaN	NaN
203.47842519999995	2.0017	sub-27	1	sequence	blank	blank	NaN	NaN	NaN	NaN	NaN	NaN	NaN	NaN	NaN	NaN	NaN	NaN
205.4801165000008	0.3001	sub-27	1	sequence	fixation	dot	NaN	NaN	NaN	NaN	NaN	NaN	NaN	NaN	NaN	NaN	NaN	NaN
205.7985378000003	0.1151	sub-27	1	sequence	stimulus	Stuhl	NaN	NaN	64.0	NaN	NaN	5.0	1.0	NaN	NaN	NaN	NaN	NaN
205.91365270000009	0.067	sub-27	1	sequence	interval	dot	NaN	NaN	NaN	NaN	NaN	NaN	NaN	NaN	NaN	NaN	NaN	NaN
205.98062930000012	0.0999	sub-27	1	sequence	stimulus	Gesicht	NaN	NaN	64.0	NaN	NaN	1.0	2.0	NaN	NaN	NaN	NaN	NaN
206.0805377000006	0.0669	sub-27	1	sequence	interval	dot	NaN	NaN	NaN	NaN	NaN	NaN	NaN	NaN	NaN	NaN	NaN	NaN
206.14741570000024	0.0998	sub-27	1	sequence	stimulus	Schuh	NaN	NaN	64.0	NaN	NaN	4.0	3.0	NaN	NaN	NaN	NaN	NaN
206.2472583000008	0.0669	sub-27	1	sequence	interval	dot	NaN	NaN	NaN	NaN	NaN	NaN	NaN	NaN	NaN	NaN	NaN	NaN
206.31414010000023	0.0999	sub-27	1	sequence	stimulus	Haus	NaN	NaN	64.0	NaN	NaN	2.0	4.0	NaN	NaN	NaN	NaN	NaN
206.4140770000004	0.0667	sub-27	1	sequence	interval	dot	NaN	NaN	NaN	NaN	NaN	NaN	NaN	NaN	NaN	NaN	NaN	NaN
206.4808163000007	0.1	sub-27	1	sequence	stimulus	Katze	NaN	NaN	64.0	NaN	NaN	3.0	5.0	NaN	NaN	NaN	NaN	NaN
206.5807807000001	0.0666	sub-27	1	sequence	interval	dot	NaN	NaN	NaN	NaN	NaN	NaN	NaN	NaN	NaN	NaN	NaN	NaN
206.6474198000005	8.3883	sub-27	1	sequence	delay	dot	NaN	NaN	NaN	NaN	NaN	NaN	NaN	NaN	NaN	NaN	NaN	NaN
215.01948770000035	0.7856	sub-27	1	sequence	choice	choice	right	NaN	NaN	0.7566955000002054	True	NaN	NaN	right	True	5.0	4.0	4.0
215.8053191000008	0.5	sub-27	1	sequence	feedback	NaN	NaN	NaN	NaN	NaN	NaN	NaN	NaN	NaN	NaN	NaN	NaN	NaN
216.3055166000004	1.0006	sub-27	1	sequence	cue	Haus	NaN	NaN	NaN	NaN	NaN	NaN	NaN	NaN	NaN	NaN	NaN	NaN
217.30616540000028	2.0016	sub-27	1	sequence	blank	blank	NaN	NaN	NaN	NaN	NaN	NaN	NaN	NaN	NaN	NaN	NaN	NaN
219.30780420000065	0.3002	sub-27	1	sequence	fixation	dot	NaN	NaN	NaN	NaN	NaN	NaN	NaN	NaN	NaN	NaN	NaN	NaN
219.62539340000055	0.0993	sub-27	1	sequence	stimulus	Katze	NaN	NaN	32.0	NaN	NaN	3.0	1.0	NaN	NaN	NaN	NaN	NaN
219.72470350000003	0.0337	sub-27	1	sequence	interval	dot	NaN	NaN	NaN	NaN	NaN	NaN	NaN	NaN	NaN	NaN	NaN	NaN
219.7583607000006	0.0997	sub-27	1	sequence	stimulus	Schuh	NaN	NaN	32.0	NaN	NaN	4.0	2.0	NaN	NaN	NaN	NaN	NaN
219.8580496000004	0.0336	sub-27	1	sequence	interval	dot	NaN	NaN	NaN	NaN	NaN	NaN	NaN	NaN	NaN	NaN	NaN	NaN
219.89169110000057	0.0998	sub-27	1	sequence	stimulus	Haus	NaN	NaN	32.0	NaN	NaN	2.0	3.0	NaN	NaN	NaN	NaN	NaN
219.99146999999996	0.0335	sub-27	1	sequence	interval	dot	NaN	NaN	NaN	NaN	NaN	NaN	NaN	NaN	NaN	NaN	NaN	NaN
220.02497930000027	0.1001	sub-27	1	sequence	stimulus	Stuhl	NaN	NaN	32.0	NaN	NaN	5.0	4.0	NaN	NaN	NaN	NaN	NaN
220.1250301	0.0335	sub-27	1	sequence	interval	dot	NaN	NaN	NaN	NaN	NaN	NaN	NaN	NaN	NaN	NaN	NaN	NaN
220.15857080000023	0.0998	sub-27	1	sequence	stimulus	Gesicht	NaN	NaN	32.0	NaN	NaN	1.0	5.0	NaN	NaN	NaN	NaN	NaN
220.2583747000008	0.0334	sub-27	1	sequence	interval	dot	NaN	NaN	NaN	NaN	NaN	NaN	NaN	NaN	NaN	NaN	NaN	NaN
220.2917264000007	8.5217	sub-27	1	sequence	delay	dot	NaN	NaN	NaN	NaN	NaN	NaN	NaN	NaN	NaN	NaN	NaN	NaN
228.79922160000024	0.7002	sub-27	1	sequence	choice	choice	left	NaN	NaN	0.6749680000002627	True	NaN	NaN	left	True	3.0	5.0	3.0
229.4996998000006	0.5	sub-27	1	sequence	feedback	NaN	NaN	NaN	NaN	NaN	NaN	NaN	NaN	NaN	NaN	NaN	NaN	NaN
233.82027860000017	0.4995	sub-27	1	localizer	stimulus	Gesicht	NaN	0	2.935607399999725	NaN	True	NaN	NaN	NaN	NaN	NaN	NaN	NaN
234.3032439000008	2.9356	sub-27	1	localizer	blank	interval	NaN	NaN	NaN	NaN	NaN	NaN	NaN	NaN	NaN	NaN	NaN	NaN
237.53985550000016	0.4996	sub-27	1	localizer	stimulus	Katze	NaN	180	2.034868900000248	0.7244258000000627	True	NaN	NaN	NaN	NaN	NaN	NaN	NaN
238.0229306000001	2.0349	sub-27	1	localizer	blank	interval	NaN	NaN	NaN	NaN	NaN	NaN	NaN	NaN	NaN	NaN	NaN	NaN
240.35886740000024	0.4995	sub-27	1	localizer	stimulus	Haus	NaN	0	1.6844885000000431	NaN	True	NaN	NaN	NaN	NaN	NaN	NaN	NaN
240.84196950000023	1.6845	sub-27	1	localizer	blank	interval	NaN	NaN	NaN	NaN	NaN	NaN	NaN	NaN	NaN	NaN	NaN	NaN
242.8274904	0.4995	sub-27	1	localizer	stimulus	Stuhl	NaN	0	2.3685658999993677	NaN	True	NaN	NaN	NaN	NaN	NaN	NaN	NaN
243.31052510000063	2.3686	sub-27	1	localizer	blank	interval	NaN	NaN	NaN	NaN	NaN	NaN	NaN	NaN	NaN	NaN	NaN	NaN
245.98004970000056	0.4997	sub-27	1	localizer	stimulus	Haus	NaN	180	2.7519443999999567	0.6602550999996311	True	NaN	NaN	NaN	NaN	NaN	NaN	NaN
246.4631722000004	2.7519	sub-27	1	localizer	blank	interval	NaN	NaN	NaN	NaN	NaN	NaN	NaN	NaN	NaN	NaN	NaN	NaN
249.51623930000005	0.4996	sub-27	1	localizer	stimulus	Gesicht	NaN	0	2.0183248000003005	NaN	True	NaN	NaN	NaN	NaN	NaN	NaN	NaN
249.9992127000005	2.0183	sub-27	1	localizer	blank	interval	NaN	NaN	NaN	NaN	NaN	NaN	NaN	NaN	NaN	NaN	NaN	NaN
252.3185045	0.4996	sub-27	1	localizer	stimulus	Gesicht	NaN	0	3.002304000000521	NaN	True	NaN	NaN	NaN	NaN	NaN	NaN	NaN
252.8015249	3.0023	sub-27	1	localizer	blank	interval	NaN	NaN	NaN	NaN	NaN	NaN	NaN	NaN	NaN	NaN	NaN	NaN
256.10485620000054	0.4996	sub-27	1	localizer	stimulus	Schuh	NaN	0	2.2014219000001845	NaN	True	NaN	NaN	NaN	NaN	NaN	NaN	NaN
256.5880039000004	2.2014	sub-27	1	localizer	blank	interval	NaN	NaN	NaN	NaN	NaN	NaN	NaN	NaN	NaN	NaN	NaN	NaN
259.0906117000004	0.4996	sub-27	1	localizer	stimulus	Schuh	NaN	180	2.018095600000379	0.6218159000000014	True	NaN	NaN	NaN	NaN	NaN	NaN	NaN
259.5736882000001	2.0181	sub-27	1	localizer	blank	interval	NaN	NaN	NaN	NaN	NaN	NaN	NaN	NaN	NaN	NaN	NaN	NaN
261.89291240000057	0.4995	sub-27	1	localizer	stimulus	Stuhl	NaN	0	2.468513599999824	NaN	True	NaN	NaN	NaN	NaN	NaN	NaN	NaN
262.3759082000006	2.4685	sub-27	1	localizer	blank	interval	NaN	NaN	NaN	NaN	NaN	NaN	NaN	NaN	NaN	NaN	NaN	NaN
265.14563420000013	0.4996	sub-27	1	localizer	stimulus	Stuhl	NaN	180	2.9189840999997614	0.5267143999999462	True	NaN	NaN	NaN	NaN	NaN	NaN	NaN
265.6286716000004	2.919	sub-27	1	localizer	blank	interval	NaN	NaN	NaN	NaN	NaN	NaN	NaN	NaN	NaN	NaN	NaN	NaN
268.8487189000007	0.4995	sub-27	1	localizer	stimulus	Katze	NaN	0	1.6677472999999736	NaN	True	NaN	NaN	NaN	NaN	NaN	NaN	NaN
269.331674	1.6677	sub-27	1	localizer	blank	interval	NaN	NaN	NaN	NaN	NaN	NaN	NaN	NaN	NaN	NaN	NaN	NaN
271.30051189999995	0.4995	sub-27	1	localizer	stimulus	Gesicht	NaN	0	3.0022915999998077	NaN	True	NaN	NaN	NaN	NaN	NaN	NaN	NaN
271.7835296000003	3.0023	sub-27	1	localizer	blank	interval	NaN	NaN	NaN	NaN	NaN	NaN	NaN	NaN	NaN	NaN	NaN	NaN
275.0869405000003	0.4995	sub-27	1	localizer	stimulus	Haus	NaN	0	3.569498900000326	NaN	True	NaN	NaN	NaN	NaN	NaN	NaN	NaN
275.56993150000017	3.5695	sub-27	1	localizer	blank	interval	NaN	NaN	NaN	NaN	NaN	NaN	NaN	NaN	NaN	NaN	NaN	NaN
279.44042660000014	0.4996	sub-27	1	localizer	stimulus	Haus	NaN	0	2.2350707999994484	NaN	True	NaN	NaN	NaN	NaN	NaN	NaN	NaN
279.9234540000007	2.2351	sub-27	1	localizer	blank	interval	NaN	NaN	NaN	NaN	NaN	NaN	NaN	NaN	NaN	NaN	NaN	NaN
282.45949850000034	0.4996	sub-27	1	localizer	stimulus	Schuh	NaN	0	2.3184839999995006	NaN	True	NaN	NaN	NaN	NaN	NaN	NaN	NaN
282.9425126000005	2.3185	sub-27	1	localizer	blank	interval	NaN	NaN	NaN	NaN	NaN	NaN	NaN	NaN	NaN	NaN	NaN	NaN
285.56208530000004	0.4996	sub-27	1	localizer	stimulus	Katze	NaN	0	2.184960599999556	NaN	True	NaN	NaN	NaN	NaN	NaN	NaN	NaN
286.0451814000008	2.185	sub-27	1	localizer	blank	interval	NaN	NaN	NaN	NaN	NaN	NaN	NaN	NaN	NaN	NaN	NaN	NaN
288.53118470000027	0.4996	sub-27	1	localizer	stimulus	Katze	NaN	0	2.518387299999631	NaN	True	NaN	NaN	NaN	NaN	NaN	NaN	NaN
289.01437330000044	2.5184	sub-27	1	localizer	blank	interval	NaN	NaN	NaN	NaN	NaN	NaN	NaN	NaN	NaN	NaN	NaN	NaN
291.8339138000001	0.4994	sub-27	1	localizer	stimulus	Schuh	NaN	0	2.0014661000004708	NaN	True	NaN	NaN	NaN	NaN	NaN	NaN	NaN
292.3167757000001	2.0015	sub-27	1	localizer	blank	interval	NaN	NaN	NaN	NaN	NaN	NaN	NaN	NaN	NaN	NaN	NaN	NaN
294.61937280000075	0.4995	sub-27	1	localizer	stimulus	Haus	NaN	0	2.018142299999454	NaN	True	NaN	NaN	NaN	NaN	NaN	NaN	NaN
295.1023864000008	2.0181	sub-27	1	localizer	blank	interval	NaN	NaN	NaN	NaN	NaN	NaN	NaN	NaN	NaN	NaN	NaN	NaN
297.4216213	0.4995	sub-27	1	localizer	stimulus	Katze	NaN	0	3.03570370000034	NaN	True	NaN	NaN	NaN	NaN	NaN	NaN	NaN
297.90463120000004	3.0357	sub-27	1	localizer	blank	interval	NaN	NaN	NaN	NaN	NaN	NaN	NaN	NaN	NaN	NaN	NaN	NaN
301.24141280000003	0.4996	sub-27	1	localizer	stimulus	Stuhl	NaN	0	1.8846199999998134	NaN	True	NaN	NaN	NaN	NaN	NaN	NaN	NaN
301.7244548000008	1.8846	sub-27	1	localizer	blank	interval	NaN	NaN	NaN	NaN	NaN	NaN	NaN	NaN	NaN	NaN	NaN	NaN
303.91019890000007	0.4995	sub-27	1	localizer	stimulus	Gesicht	NaN	180	2.2182990000001155	0.6901832000003196	True	NaN	NaN	NaN	NaN	NaN	NaN	NaN
304.3931964000003	2.2183	sub-27	1	localizer	blank	interval	NaN	NaN	NaN	NaN	NaN	NaN	NaN	NaN	NaN	NaN	NaN	NaN
306.91276110000035	0.4994	sub-27	1	localizer	stimulus	Stuhl	NaN	0	2.7856267999995907	NaN	True	NaN	NaN	NaN	NaN	NaN	NaN	NaN
307.3957525000005	2.7856	sub-27	1	localizer	blank	interval	NaN	NaN	NaN	NaN	NaN	NaN	NaN	NaN	NaN	NaN	NaN	NaN
310.4823821	0.4995	sub-27	1	localizer	stimulus	Schuh	NaN	0	2.7518502000002627	NaN	True	NaN	NaN	NaN	NaN	NaN	NaN	NaN
310.9653838000004	2.7519	sub-27	1	localizer	blank	interval	NaN	NaN	NaN	NaN	NaN	NaN	NaN	NaN	NaN	NaN	NaN	NaN
317.20376060000035	1.0005	sub-27	1	sequence	cue	Gesicht	NaN	NaN	NaN	NaN	NaN	NaN	NaN	NaN	NaN	NaN	NaN	NaN
318.2042680000004	2.0017	sub-27	1	sequence	blank	blank	NaN	NaN	NaN	NaN	NaN	NaN	NaN	NaN	NaN	NaN	NaN	NaN
320.2059315000006	0.3002	sub-27	1	sequence	fixation	dot	NaN	NaN	NaN	NaN	NaN	NaN	NaN	NaN	NaN	NaN	NaN	NaN
320.52361740000015	0.0993	sub-27	1	sequence	stimulus	Schuh	NaN	NaN	512.0	NaN	NaN	4.0	1.0	NaN	NaN	NaN	NaN	NaN
320.62286960000074	0.5172	sub-27	1	sequence	interval	dot	NaN	NaN	NaN	NaN	NaN	NaN	NaN	NaN	NaN	NaN	NaN	NaN
321.14006100000006	0.0999	sub-27	1	sequence	stimulus	Gesicht	NaN	NaN	512.0	NaN	NaN	1.0	2.0	NaN	NaN	NaN	NaN	NaN
321.2399763000003	0.5173	sub-27	1	sequence	interval	dot	NaN	NaN	NaN	NaN	NaN	NaN	NaN	NaN	NaN	NaN	NaN	NaN
321.75726900000063	0.0999	sub-27	1	sequence	stimulus	Haus	NaN	NaN	512.0	NaN	NaN	2.0	3.0	NaN	NaN	NaN	NaN	NaN
321.8571492000001	0.5173	sub-27	1	sequence	interval	dot	NaN	NaN	NaN	NaN	NaN	NaN	NaN	NaN	NaN	NaN	NaN	NaN
322.3744237000001	0.0999	sub-27	1	sequence	stimulus	Stuhl	NaN	NaN	512.0	NaN	NaN	5.0	4.0	NaN	NaN	NaN	NaN	NaN
322.4743449000007	0.5172	sub-27	1	sequence	interval	dot	NaN	NaN	NaN	NaN	NaN	NaN	NaN	NaN	NaN	NaN	NaN	NaN
322.9915615	0.0999	sub-27	1	sequence	stimulus	Katze	NaN	NaN	512.0	NaN	NaN	3.0	5.0	NaN	NaN	NaN	NaN	NaN
323.09148390000064	0.5171	sub-27	1	sequence	interval	dot	NaN	NaN	NaN	NaN	NaN	NaN	NaN	NaN	NaN	NaN	NaN	NaN
323.6085771000008	6.1364	sub-27	1	sequence	delay	dot	NaN	NaN	NaN	NaN	NaN	NaN	NaN	NaN	NaN	NaN	NaN	NaN
329.7289879	0.7188	sub-27	1	sequence	choice	choice	right	NaN	NaN	0.6874229999993986	True	NaN	NaN	right	True	4.0	2.0	2.0
330.4481738000004	0.5	sub-27	1	sequence	feedback	NaN	NaN	NaN	NaN	NaN	NaN	NaN	NaN	NaN	NaN	NaN	NaN	NaN
330.9484050000001	1.0006	sub-27	1	sequence	cue	Katze	NaN	NaN	NaN	NaN	NaN	NaN	NaN	NaN	NaN	NaN	NaN	NaN
331.94898530000046	2.0013	sub-27	1	sequence	blank	blank	NaN	NaN	NaN	NaN	NaN	NaN	NaN	NaN	NaN	NaN	NaN	NaN
333.9503104000005	0.3002	sub-27	1	sequence	fixation	dot	NaN	NaN	NaN	NaN	NaN	NaN	NaN	NaN	NaN	NaN	NaN	NaN
334.2682981000007	0.099	sub-27	1	sequence	stimulus	Haus	NaN	NaN	512.0	NaN	NaN	2.0	1.0	NaN	NaN	NaN	NaN	NaN
334.3672757000004	0.5172	sub-27	1	sequence	interval	dot	NaN	NaN	NaN	NaN	NaN	NaN	NaN	NaN	NaN	NaN	NaN	NaN
334.884513	0.1	sub-27	1	sequence	stimulus	Schuh	NaN	NaN	512.0	NaN	NaN	4.0	2.0	NaN	NaN	NaN	NaN	NaN
334.98451230000046	0.5172	sub-27	1	sequence	interval	dot	NaN	NaN	NaN	NaN	NaN	NaN	NaN	NaN	NaN	NaN	NaN	NaN
335.5017189	0.0999	sub-27	1	sequence	stimulus	Gesicht	NaN	NaN	512.0	NaN	NaN	1.0	3.0	NaN	NaN	NaN	NaN	NaN
335.6016316000005	0.5172	sub-27	1	sequence	interval	dot	NaN	NaN	NaN	NaN	NaN	NaN	NaN	NaN	NaN	NaN	NaN	NaN
336.1188289000001	0.1	sub-27	1	sequence	stimulus	Stuhl	NaN	NaN	512.0	NaN	NaN	5.0	4.0	NaN	NaN	NaN	NaN	NaN
336.2187878000004	0.5172	sub-27	1	sequence	interval	dot	NaN	NaN	NaN	NaN	NaN	NaN	NaN	NaN	NaN	NaN	NaN	NaN
336.73601770000005	0.0999	sub-27	1	sequence	stimulus	Katze	NaN	NaN	512.0	NaN	NaN	3.0	5.0	NaN	NaN	NaN	NaN	NaN
336.8359433000005	0.5171	sub-27	1	sequence	interval	dot	NaN	NaN	NaN	NaN	NaN	NaN	NaN	NaN	NaN	NaN	NaN	NaN
337.35299620000023	6.1533	sub-27	1	sequence	delay	dot	NaN	NaN	NaN	NaN	NaN	NaN	NaN	NaN	NaN	NaN	NaN	NaN
343.4826898000001	0.7094	sub-27	1	sequence	choice	choice	right	NaN	NaN	0.6780006999997568	True	NaN	NaN	right	True	3.0	5.0	5.0
344.19241240000065	0.5	sub-27	1	sequence	feedback	NaN	NaN	NaN	NaN	NaN	NaN	NaN	NaN	NaN	NaN	NaN	NaN	NaN
344.6925717000004	1.0006	sub-27	1	sequence	cue	Schuh	NaN	NaN	NaN	NaN	NaN	NaN	NaN	NaN	NaN	NaN	NaN	NaN
345.6931514000007	2.0017	sub-27	1	sequence	blank	blank	NaN	NaN	NaN	NaN	NaN	NaN	NaN	NaN	NaN	NaN	NaN	NaN
347.69483540000056	0.3002	sub-27	1	sequence	fixation	dot	NaN	NaN	NaN	NaN	NaN	NaN	NaN	NaN	NaN	NaN	NaN	NaN
348.0134609000006	0.1149	sub-27	1	sequence	stimulus	Stuhl	NaN	NaN	64.0	NaN	NaN	5.0	1.0	NaN	NaN	NaN	NaN	NaN
348.1283964000004	0.0669	sub-27	1	sequence	interval	dot	NaN	NaN	NaN	NaN	NaN	NaN	NaN	NaN	NaN	NaN	NaN	NaN
348.1952844000007	0.1	sub-27	1	sequence	stimulus	Gesicht	NaN	NaN	64.0	NaN	NaN	1.0	2.0	NaN	NaN	NaN	NaN	NaN
348.2952430000005	0.0668	sub-27	1	sequence	interval	dot	NaN	NaN	NaN	NaN	NaN	NaN	NaN	NaN	NaN	NaN	NaN	NaN
348.3620755000002	0.0999	sub-27	1	sequence	stimulus	Schuh	NaN	NaN	64.0	NaN	NaN	4.0	3.0	NaN	NaN	NaN	NaN	NaN
348.46199630000046	0.0669	sub-27	1	sequence	interval	dot	NaN	NaN	NaN	NaN	NaN	NaN	NaN	NaN	NaN	NaN	NaN	NaN
348.5289156000008	0.0999	sub-27	1	sequence	stimulus	Haus	NaN	NaN	64.0	NaN	NaN	2.0	4.0	NaN	NaN	NaN	NaN	NaN
348.62885000000006	0.0669	sub-27	1	sequence	interval	dot	NaN	NaN	NaN	NaN	NaN	NaN	NaN	NaN	NaN	NaN	NaN	NaN
348.69571890000043	0.0999	sub-27	1	sequence	stimulus	Katze	NaN	NaN	64.0	NaN	NaN	3.0	5.0	NaN	NaN	NaN	NaN	NaN
348.7956172000004	0.0667	sub-27	1	sequence	interval	dot	NaN	NaN	NaN	NaN	NaN	NaN	NaN	NaN	NaN	NaN	NaN	NaN
348.8623415000002	8.3884	sub-27	1	sequence	delay	dot	NaN	NaN	NaN	NaN	NaN	NaN	NaN	NaN	NaN	NaN	NaN	NaN
357.2363881000001	0.7669	sub-27	1	sequence	choice	choice	left	NaN	NaN	0.7495920000001206	True	NaN	NaN	left	True	3.0	4.0	3.0
358.00358310000047	0.5	sub-27	1	sequence	feedback	NaN	NaN	NaN	NaN	NaN	NaN	NaN	NaN	NaN	NaN	NaN	NaN	NaN
358.5037028000006	1.0006	sub-27	1	sequence	cue	Schuh	NaN	NaN	NaN	NaN	NaN	NaN	NaN	NaN	NaN	NaN	NaN	NaN
359.50435390000075	2.0016	sub-27	1	sequence	blank	blank	NaN	NaN	NaN	NaN	NaN	NaN	NaN	NaN	NaN	NaN	NaN	NaN
361.5059693000003	0.3003	sub-27	1	sequence	fixation	dot	NaN	NaN	NaN	NaN	NaN	NaN	NaN	NaN	NaN	NaN	NaN	NaN
361.8382554	0.1014	sub-27	1	sequence	stimulus	Haus	NaN	NaN	64.0	NaN	NaN	2.0	1.0	NaN	NaN	NaN	NaN	NaN
361.9396660000002	0.0669	sub-27	1	sequence	interval	dot	NaN	NaN	NaN	NaN	NaN	NaN	NaN	NaN	NaN	NaN	NaN	NaN
362.0065274000008	0.0998	sub-27	1	sequence	stimulus	Katze	NaN	NaN	64.0	NaN	NaN	3.0	2.0	NaN	NaN	NaN	NaN	NaN
362.10634800000025	0.0669	sub-27	1	sequence	interval	dot	NaN	NaN	NaN	NaN	NaN	NaN	NaN	NaN	NaN	NaN	NaN	NaN
362.17325470000014	0.0999	sub-27	1	sequence	stimulus	Schuh	NaN	NaN	64.0	NaN	NaN	4.0	3.0	NaN	NaN	NaN	NaN	NaN
362.2731665000001	0.0669	sub-27	1	sequence	interval	dot	NaN	NaN	NaN	NaN	NaN	NaN	NaN	NaN	NaN	NaN	NaN	NaN
362.3400263000003	0.1	sub-27	1	sequence	stimulus	Stuhl	NaN	NaN	64.0	NaN	NaN	5.0	4.0	NaN	NaN	NaN	NaN	NaN
362.4400740000001	0.0669	sub-27	1	sequence	interval	dot	NaN	NaN	NaN	NaN	NaN	NaN	NaN	NaN	NaN	NaN	NaN	NaN
362.5069399000004	0.0998	sub-27	1	sequence	stimulus	Gesicht	NaN	NaN	64.0	NaN	NaN	1.0	5.0	NaN	NaN	NaN	NaN	NaN
362.6067656000005	0.0668	sub-27	1	sequence	interval	dot	NaN	NaN	NaN	NaN	NaN	NaN	NaN	NaN	NaN	NaN	NaN	NaN
362.67358950000016	8.4049	sub-27	1	sequence	delay	dot	NaN	NaN	NaN	NaN	NaN	NaN	NaN	NaN	NaN	NaN	NaN	NaN
371.0423856000007	0.839	sub-27	1	sequence	choice	choice	left	NaN	NaN	0.7858874000003198	True	NaN	NaN	left	True	3.0	5.0	3.0
371.8816142000005	0.5	sub-27	1	sequence	feedback	NaN	NaN	NaN	NaN	NaN	NaN	NaN	NaN	NaN	NaN	NaN	NaN	NaN
372.3818324000004	1.0007	sub-27	1	sequence	cue	Schuh	NaN	NaN	NaN	NaN	NaN	NaN	NaN	NaN	NaN	NaN	NaN	NaN
373.3825218000002	2.0013	sub-27	1	sequence	blank	blank	NaN	NaN	NaN	NaN	NaN	NaN	NaN	NaN	NaN	NaN	NaN	NaN
375.38379970000005	0.3002	sub-27	1	sequence	fixation	dot	NaN	NaN	NaN	NaN	NaN	NaN	NaN	NaN	NaN	NaN	NaN	NaN
375.70168530000046	0.0991	sub-27	1	sequence	stimulus	Katze	NaN	NaN	128.0	NaN	NaN	3.0	1.0	NaN	NaN	NaN	NaN	NaN
375.8007895999999	0.1336	sub-27	1	sequence	interval	dot	NaN	NaN	NaN	NaN	NaN	NaN	NaN	NaN	NaN	NaN	NaN	NaN
375.9344329000005	0.0999	sub-27	1	sequence	stimulus	Haus	NaN	NaN	128.0	NaN	NaN	2.0	2.0	NaN	NaN	NaN	NaN	NaN
376.0343088	0.1336	sub-27	1	sequence	interval	dot	NaN	NaN	NaN	NaN	NaN	NaN	NaN	NaN	NaN	NaN	NaN	NaN
376.16792650000025	0.0999	sub-27	1	sequence	stimulus	Gesicht	NaN	NaN	128.0	NaN	NaN	1.0	3.0	NaN	NaN	NaN	NaN	NaN
376.2677954999999	0.1336	sub-27	1	sequence	interval	dot	NaN	NaN	NaN	NaN	NaN	NaN	NaN	NaN	NaN	NaN	NaN	NaN
376.4013927000005	0.0999	sub-27	1	sequence	stimulus	Stuhl	NaN	NaN	128.0	NaN	NaN	5.0	4.0	NaN	NaN	NaN	NaN	NaN
376.50131240000064	0.1336	sub-27	1	sequence	interval	dot	NaN	NaN	NaN	NaN	NaN	NaN	NaN	NaN	NaN	NaN	NaN	NaN
376.63492940000015	0.1	sub-27	1	sequence	stimulus	Schuh	NaN	NaN	128.0	NaN	NaN	4.0	5.0	NaN	NaN	NaN	NaN	NaN
376.7349127000007	0.1334	sub-27	1	sequence	interval	dot	NaN	NaN	NaN	NaN	NaN	NaN	NaN	NaN	NaN	NaN	NaN	NaN
376.8683008000007	8.0713	sub-27	1	sequence	delay	dot	NaN	NaN	NaN	NaN	NaN	NaN	NaN	NaN	NaN	NaN	NaN	NaN
384.9257940000007	0.7498	sub-27	1	sequence	choice	choice	right	NaN	NaN	0.7330400000000736	True	NaN	NaN	right	True	4.0	5.0	5.0
385.6758910000008	0.5001	sub-27	1	sequence	feedback	NaN	NaN	NaN	NaN	NaN	NaN	NaN	NaN	NaN	NaN	NaN	NaN	NaN
386.17622930000016	1.0004	sub-27	1	sequence	cue	Stuhl	NaN	NaN	NaN	NaN	NaN	NaN	NaN	NaN	NaN	NaN	NaN	NaN
387.1766535000006	2.0016	sub-27	1	sequence	blank	blank	NaN	NaN	NaN	NaN	NaN	NaN	NaN	NaN	NaN	NaN	NaN	NaN
389.1782531000008	0.3003	sub-27	1	sequence	fixation	dot	NaN	NaN	NaN	NaN	NaN	NaN	NaN	NaN	NaN	NaN	NaN	NaN
389.4970606000006	0.1149	sub-27	1	sequence	stimulus	Schuh	NaN	NaN	128.0	NaN	NaN	4.0	1.0	NaN	NaN	NaN	NaN	NaN
389.6119135000008	0.1337	sub-27	1	sequence	interval	dot	NaN	NaN	NaN	NaN	NaN	NaN	NaN	NaN	NaN	NaN	NaN	NaN
389.7455724000001	0.0999	sub-27	1	sequence	stimulus	Katze	NaN	NaN	128.0	NaN	NaN	3.0	2.0	NaN	NaN	NaN	NaN	NaN
389.8454872000002	0.1336	sub-27	1	sequence	interval	dot	NaN	NaN	NaN	NaN	NaN	NaN	NaN	NaN	NaN	NaN	NaN	NaN
389.9790993000006	0.0999	sub-27	1	sequence	stimulus	Haus	NaN	NaN	128.0	NaN	NaN	2.0	3.0	NaN	NaN	NaN	NaN	NaN
390.07896660000006	0.1336	sub-27	1	sequence	interval	dot	NaN	NaN	NaN	NaN	NaN	NaN	NaN	NaN	NaN	NaN	NaN	NaN
390.2125552000007	0.1	sub-27	1	sequence	stimulus	Gesicht	NaN	NaN	128.0	NaN	NaN	1.0	4.0	NaN	NaN	NaN	NaN	NaN
390.3125131000006	0.1337	sub-27	1	sequence	interval	dot	NaN	NaN	NaN	NaN	NaN	NaN	NaN	NaN	NaN	NaN	NaN	NaN
390.4462061000004	0.0999	sub-27	1	sequence	stimulus	Stuhl	NaN	NaN	128.0	NaN	NaN	5.0	5.0	NaN	NaN	NaN	NaN	NaN
390.5460565000003	0.1334	sub-27	1	sequence	interval	dot	NaN	NaN	NaN	NaN	NaN	NaN	NaN	NaN	NaN	NaN	NaN	NaN
390.67945770000006	8.0714	sub-27	1	sequence	delay	dot	NaN	NaN	NaN	NaN	NaN	NaN	NaN	NaN	NaN	NaN	NaN	NaN
398.73151550000057	0.8386	sub-27	1	sequence	choice	choice	right	NaN	NaN	0.8174824999996417	True	NaN	NaN	right	True	4.0	5.0	5.0
399.5704151	0.5001	sub-27	1	sequence	feedback	NaN	NaN	NaN	NaN	NaN	NaN	NaN	NaN	NaN	NaN	NaN	NaN	NaN
400.0707143	1.0005	sub-27	1	sequence	cue	Haus	NaN	NaN	NaN	NaN	NaN	NaN	NaN	NaN	NaN	NaN	NaN	NaN
401.0712568000008	2.0016	sub-27	1	sequence	blank	blank	NaN	NaN	NaN	NaN	NaN	NaN	NaN	NaN	NaN	NaN	NaN	NaN
403.0728738000007	0.3002	sub-27	1	sequence	fixation	dot	NaN	NaN	NaN	NaN	NaN	NaN	NaN	NaN	NaN	NaN	NaN	NaN
403.3906205000003	0.0993	sub-27	1	sequence	stimulus	Katze	NaN	NaN	32.0	NaN	NaN	3.0	1.0	NaN	NaN	NaN	NaN	NaN
403.4898712000004	0.0335	sub-27	1	sequence	interval	dot	NaN	NaN	NaN	NaN	NaN	NaN	NaN	NaN	NaN	NaN	NaN	NaN
403.5233358000005	0.1	sub-27	1	sequence	stimulus	Schuh	NaN	NaN	32.0	NaN	NaN	4.0	2.0	NaN	NaN	NaN	NaN	NaN
403.62330680000014	0.0335	sub-27	1	sequence	interval	dot	NaN	NaN	NaN	NaN	NaN	NaN	NaN	NaN	NaN	NaN	NaN	NaN
403.6568324	0.0999	sub-27	1	sequence	stimulus	Haus	NaN	NaN	32.0	NaN	NaN	2.0	3.0	NaN	NaN	NaN	NaN	NaN
403.7567736000001	0.0334	sub-27	1	sequence	interval	dot	NaN	NaN	NaN	NaN	NaN	NaN	NaN	NaN	NaN	NaN	NaN	NaN
403.7902129000004	0.0999	sub-27	1	sequence	stimulus	Stuhl	NaN	NaN	32.0	NaN	NaN	5.0	4.0	NaN	NaN	NaN	NaN	NaN
403.8901518000002	0.0335	sub-27	1	sequence	interval	dot	NaN	NaN	NaN	NaN	NaN	NaN	NaN	NaN	NaN	NaN	NaN	NaN
403.9236810000002	0.1	sub-27	1	sequence	stimulus	Gesicht	NaN	NaN	32.0	NaN	NaN	1.0	5.0	NaN	NaN	NaN	NaN	NaN
404.0236416000007	0.0333	sub-27	1	sequence	interval	dot	NaN	NaN	NaN	NaN	NaN	NaN	NaN	NaN	NaN	NaN	NaN	NaN
404.0569599	8.5218	sub-27	1	sequence	delay	dot	NaN	NaN	NaN	NaN	NaN	NaN	NaN	NaN	NaN	NaN	NaN	NaN
412.5631723000006	0.8517	sub-27	1	sequence	choice	choice	left	NaN	NaN	0.8295100000004823	True	NaN	NaN	left	True	3.0	4.0	3.0
413.4151310000007	0.5166	sub-27	1	sequence	feedback	NaN	NaN	NaN	NaN	NaN	NaN	NaN	NaN	NaN	NaN	NaN	NaN	NaN
413.9319727000002	0.984	sub-27	1	sequence	cue	Gesicht	NaN	NaN	NaN	NaN	NaN	NaN	NaN	NaN	NaN	NaN	NaN	NaN
414.9159741000003	2.0015	sub-27	1	sequence	blank	blank	NaN	NaN	NaN	NaN	NaN	NaN	NaN	NaN	NaN	NaN	NaN	NaN
416.91748540000026	0.3001	sub-27	1	sequence	fixation	dot	NaN	NaN	NaN	NaN	NaN	NaN	NaN	NaN	NaN	NaN	NaN	NaN
417.2359500000002	0.1151	sub-27	1	sequence	stimulus	Stuhl	NaN	NaN	32.0	NaN	NaN	5.0	1.0	NaN	NaN	NaN	NaN	NaN
417.3510489	0.0335	sub-27	1	sequence	interval	dot	NaN	NaN	NaN	NaN	NaN	NaN	NaN	NaN	NaN	NaN	NaN	NaN
417.3845787	0.0999	sub-27	1	sequence	stimulus	Katze	NaN	NaN	32.0	NaN	NaN	3.0	2.0	NaN	NaN	NaN	NaN	NaN
417.48449299999993	0.0335	sub-27	1	sequence	interval	dot	NaN	NaN	NaN	NaN	NaN	NaN	NaN	NaN	NaN	NaN	NaN	NaN
417.51801070000056	0.0999	sub-27	1	sequence	stimulus	Schuh	NaN	NaN	32.0	NaN	NaN	4.0	3.0	NaN	NaN	NaN	NaN	NaN
417.6179560000001	0.0335	sub-27	1	sequence	interval	dot	NaN	NaN	NaN	NaN	NaN	NaN	NaN	NaN	NaN	NaN	NaN	NaN
417.6514707000006	0.0999	sub-27	1	sequence	stimulus	Haus	NaN	NaN	32.0	NaN	NaN	2.0	4.0	NaN	NaN	NaN	NaN	NaN
417.7513785000001	0.0335	sub-27	1	sequence	interval	dot	NaN	NaN	NaN	NaN	NaN	NaN	NaN	NaN	NaN	NaN	NaN	NaN
417.7848883000006	0.0999	sub-27	1	sequence	stimulus	Gesicht	NaN	NaN	32.0	NaN	NaN	1.0	5.0	NaN	NaN	NaN	NaN	NaN
417.8848165	0.0333	sub-27	1	sequence	interval	dot	NaN	NaN	NaN	NaN	NaN	NaN	NaN	NaN	NaN	NaN	NaN	NaN
417.9181549000005	8.5552	sub-27	1	sequence	delay	dot	NaN	NaN	NaN	NaN	NaN	NaN	NaN	NaN	NaN	NaN	NaN	NaN
426.4468578000005	0.9292	sub-27	1	sequence	choice	choice	left	NaN	NaN	0.8949057999998331	True	NaN	NaN	left	True	5.0	3.0	5.0
427.3763392999999	0.5	sub-27	1	sequence	feedback	NaN	NaN	NaN	NaN	NaN	NaN	NaN	NaN	NaN	NaN	NaN	NaN	NaN
427.8767817000007	17.8475	sub-27	1	other	break	break	NaN	NaN	NaN	NaN	NaN	NaN	NaN	NaN	NaN	NaN	NaN	NaN
449.5445907000003	0.4995	sub-27	1	localizer	stimulus	Haus	NaN	0	1.8014695000001097	NaN	True	NaN	NaN	NaN	NaN	NaN	NaN	NaN
450.04411400000026	1.8015	sub-27	1	localizer	blank	interval	NaN	NaN	NaN	NaN	NaN	NaN	NaN	NaN	NaN	NaN	NaN	NaN
452.1466990000008	0.4995	sub-27	1	localizer	stimulus	Katze	NaN	0	1.951600899999903	NaN	True	NaN	NaN	NaN	NaN	NaN	NaN	NaN
452.6297727000001	1.9516	sub-27	1	localizer	blank	interval	NaN	NaN	NaN	NaN	NaN	NaN	NaN	NaN	NaN	NaN	NaN	NaN
454.8823222000001	0.5001	sub-27	1	localizer	stimulus	Haus	NaN	0	1.751339100000223	NaN	True	NaN	NaN	NaN	NaN	NaN	NaN	NaN
455.3653946000004	1.7513	sub-27	1	localizer	blank	interval	NaN	NaN	NaN	NaN	NaN	NaN	NaN	NaN	NaN	NaN	NaN	NaN
457.4178039000008	0.4995	sub-27	1	localizer	stimulus	Stuhl	NaN	0	3.0855751999997665	NaN	True	NaN	NaN	NaN	NaN	NaN	NaN	NaN
457.9007416000004	3.0856	sub-27	1	localizer	blank	interval	NaN	NaN	NaN	NaN	NaN	NaN	NaN	NaN	NaN	NaN	NaN	NaN
461.2874116000002	0.4995	sub-27	1	localizer	stimulus	Gesicht	NaN	0	1.8847364000002358	NaN	True	NaN	NaN	NaN	NaN	NaN	NaN	NaN
461.7704236	1.8847	sub-27	1	localizer	blank	interval	NaN	NaN	NaN	NaN	NaN	NaN	NaN	NaN	NaN	NaN	NaN	NaN
463.9562235000003	0.4995	sub-27	1	localizer	stimulus	Stuhl	NaN	0	2.585312399999509	NaN	True	NaN	NaN	NaN	NaN	NaN	NaN	NaN
464.4392504000007	2.5853	sub-27	1	localizer	blank	interval	NaN	NaN	NaN	NaN	NaN	NaN	NaN	NaN	NaN	NaN	NaN	NaN
467.3256387000001	0.4996	sub-27	1	localizer	stimulus	Schuh	NaN	180	2.5185366999994585	0.7384641999997257	True	NaN	NaN	NaN	NaN	NaN	NaN	NaN
467.8086650000005	2.5185	sub-27	1	localizer	blank	interval	NaN	NaN	NaN	NaN	NaN	NaN	NaN	NaN	NaN	NaN	NaN	NaN
470.6283018000004	0.4996	sub-27	1	localizer	stimulus	Stuhl	NaN	0	2.3017251999999075	NaN	True	NaN	NaN	NaN	NaN	NaN	NaN	NaN
471.1113065	2.3017	sub-27	1	localizer	blank	interval	NaN	NaN	NaN	NaN	NaN	NaN	NaN	NaN	NaN	NaN	NaN	NaN
473.7141528000002	0.4995	sub-27	1	localizer	stimulus	Stuhl	NaN	180	2.6000380000004952	0.6460621999995055	True	NaN	NaN	NaN	NaN	NaN	NaN	NaN
474.1971400000002	2.6	sub-27	1	localizer	blank	interval	NaN	NaN	NaN	NaN	NaN	NaN	NaN	NaN	NaN	NaN	NaN	NaN
477.10032860000047	0.4996	sub-27	1	localizer	stimulus	Haus	NaN	180	2.201473000000078	0.6518611999999848	True	NaN	NaN	NaN	NaN	NaN	NaN	NaN
477.5833865000004	2.2015	sub-27	1	localizer	blank	interval	NaN	NaN	NaN	NaN	NaN	NaN	NaN	NaN	NaN	NaN	NaN	NaN
480.0859364000007	0.4996	sub-27	1	localizer	stimulus	Schuh	NaN	0	2.134913100000631	NaN	True	NaN	NaN	NaN	NaN	NaN	NaN	NaN
480.5689652000001	2.1349	sub-27	1	localizer	blank	interval	NaN	NaN	NaN	NaN	NaN	NaN	NaN	NaN	NaN	NaN	NaN	NaN
483.00497730000006	0.4999	sub-27	1	localizer	stimulus	Schuh	NaN	0	2.618572200000017	NaN	True	NaN	NaN	NaN	NaN	NaN	NaN	NaN
483.48804670000027	2.6186	sub-27	1	localizer	blank	interval	NaN	NaN	NaN	NaN	NaN	NaN	NaN	NaN	NaN	NaN	NaN	NaN
486.4077215000007	0.4995	sub-27	1	localizer	stimulus	Gesicht	NaN	0	1.6844980000005307	NaN	True	NaN	NaN	NaN	NaN	NaN	NaN	NaN
486.8907786	1.6845	sub-27	1	localizer	blank	interval	NaN	NaN	NaN	NaN	NaN	NaN	NaN	NaN	NaN	NaN	NaN	NaN
488.87644030000047	0.4995	sub-27	1	localizer	stimulus	Katze	NaN	0	2.885520099999667	NaN	True	NaN	NaN	NaN	NaN	NaN	NaN	NaN
489.3594288000004	2.8855	sub-27	1	localizer	blank	interval	NaN	NaN	NaN	NaN	NaN	NaN	NaN	NaN	NaN	NaN	NaN	NaN
492.5460262000006	0.4995	sub-27	1	localizer	stimulus	Stuhl	NaN	0	2.6519749999997657	NaN	True	NaN	NaN	NaN	NaN	NaN	NaN	NaN
493.0291042000008	2.652	sub-27	1	localizer	blank	interval	NaN	NaN	NaN	NaN	NaN	NaN	NaN	NaN	NaN	NaN	NaN	NaN
495.98224180000034	0.4996	sub-27	1	localizer	stimulus	Katze	NaN	180	2.968908300000294	0.6180061999993995	True	NaN	NaN	NaN	NaN	NaN	NaN	NaN
496.4653476000003	2.9689	sub-27	1	localizer	blank	interval	NaN	NaN	NaN	NaN	NaN	NaN	NaN	NaN	NaN	NaN	NaN	NaN
499.7353243000007	0.4994	sub-27	1	localizer	stimulus	Katze	NaN	0	3.1857808999992585	NaN	True	NaN	NaN	NaN	NaN	NaN	NaN	NaN
500.2181518000007	3.1858	sub-27	1	localizer	blank	interval	NaN	NaN	NaN	NaN	NaN	NaN	NaN	NaN	NaN	NaN	NaN	NaN
503.7050603000007	0.4995	sub-27	1	localizer	stimulus	Schuh	NaN	0	2.1682312999992064	NaN	True	NaN	NaN	NaN	NaN	NaN	NaN	NaN
504.1880622000008	2.1682	sub-27	1	localizer	blank	interval	NaN	NaN	NaN	NaN	NaN	NaN	NaN	NaN	NaN	NaN	NaN	NaN
506.6574430999999	0.4995	sub-27	1	localizer	stimulus	Haus	NaN	0	3.3859959000001254	NaN	True	NaN	NaN	NaN	NaN	NaN	NaN	NaN
507.1404556000007	3.386	sub-27	1	localizer	blank	interval	NaN	NaN	NaN	NaN	NaN	NaN	NaN	NaN	NaN	NaN	NaN	NaN
510.8275390000008	0.4995	sub-27	1	localizer	stimulus	Haus	NaN	0	2.30169330000075	NaN	True	NaN	NaN	NaN	NaN	NaN	NaN	NaN
511.3104844	2.3017	sub-27	1	localizer	blank	interval	NaN	NaN	NaN	NaN	NaN	NaN	NaN	NaN	NaN	NaN	NaN	NaN
513.9132658000008	0.4996	sub-27	1	localizer	stimulus	Gesicht	NaN	180	2.65209380000033	0.7190046000005168	True	NaN	NaN	NaN	NaN	NaN	NaN	NaN
514.3963221000004	2.6521	sub-27	1	localizer	blank	interval	NaN	NaN	NaN	NaN	NaN	NaN	NaN	NaN	NaN	NaN	NaN	NaN
517.3495302000001	0.4996	sub-27	1	localizer	stimulus	Schuh	NaN	0	2.651890000000094	NaN	True	NaN	NaN	NaN	NaN	NaN	NaN	NaN
517.8326800000004	2.6519	sub-27	1	localizer	blank	interval	NaN	NaN	NaN	NaN	NaN	NaN	NaN	NaN	NaN	NaN	NaN	NaN
520.7856447000004	0.4994	sub-27	1	localizer	stimulus	Katze	NaN	0	2.468482400000539	NaN	True	NaN	NaN	NaN	NaN	NaN	NaN	NaN
521.2686283000003	2.4685	sub-27	1	localizer	blank	interval	NaN	NaN	NaN	NaN	NaN	NaN	NaN	NaN	NaN	NaN	NaN	NaN
524.0381345000005	0.4996	sub-27	1	localizer	stimulus	Gesicht	NaN	0	2.118277399999897	NaN	True	NaN	NaN	NaN	NaN	NaN	NaN	NaN
524.5212626000002	2.1183	sub-27	1	localizer	blank	interval	NaN	NaN	NaN	NaN	NaN	NaN	NaN	NaN	NaN	NaN	NaN	NaN
526.9404663000005	0.4995	sub-27	1	localizer	stimulus	Gesicht	NaN	0	2.902237399999649	NaN	True	NaN	NaN	NaN	NaN	NaN	NaN	NaN
527.4235599000003	2.9022	sub-27	1	localizer	blank	interval	NaN	NaN	NaN	NaN	NaN	NaN	NaN	NaN	NaN	NaN	NaN	NaN
533.8121403000005	1.0007	sub-27	1	sequence	cue	Stuhl	NaN	NaN	NaN	NaN	NaN	NaN	NaN	NaN	NaN	NaN	NaN	NaN
534.8128092000006	2.0015	sub-27	1	sequence	blank	blank	NaN	NaN	NaN	NaN	NaN	NaN	NaN	NaN	NaN	NaN	NaN	NaN
536.8143034000004	0.3003	sub-27	1	sequence	fixation	dot	NaN	NaN	NaN	NaN	NaN	NaN	NaN	NaN	NaN	NaN	NaN	NaN
537.1329956	0.115	sub-27	1	sequence	stimulus	Katze	NaN	NaN	32.0	NaN	NaN	3.0	1.0	NaN	NaN	NaN	NaN	NaN
537.2479565000003	0.0335	sub-27	1	sequence	interval	dot	NaN	NaN	NaN	NaN	NaN	NaN	NaN	NaN	NaN	NaN	NaN	NaN
537.2814778000002	0.0999	sub-27	1	sequence	stimulus	Schuh	NaN	NaN	32.0	NaN	NaN	4.0	2.0	NaN	NaN	NaN	NaN	NaN
537.3813810000001	0.0336	sub-27	1	sequence	interval	dot	NaN	NaN	NaN	NaN	NaN	NaN	NaN	NaN	NaN	NaN	NaN	NaN
537.4149825000004	0.1	sub-27	1	sequence	stimulus	Haus	NaN	NaN	32.0	NaN	NaN	2.0	3.0	NaN	NaN	NaN	NaN	NaN
537.5150026000001	0.0334	sub-27	1	sequence	interval	dot	NaN	NaN	NaN	NaN	NaN	NaN	NaN	NaN	NaN	NaN	NaN	NaN
537.5484009000002	0.0999	sub-27	1	sequence	stimulus	Stuhl	NaN	NaN	32.0	NaN	NaN	5.0	4.0	NaN	NaN	NaN	NaN	NaN
537.6482909000006	0.0336	sub-27	1	sequence	interval	dot	NaN	NaN	NaN	NaN	NaN	NaN	NaN	NaN	NaN	NaN	NaN	NaN
537.6819255	0.0998	sub-27	1	sequence	stimulus	Gesicht	NaN	NaN	32.0	NaN	NaN	1.0	5.0	NaN	NaN	NaN	NaN	NaN
537.7817650000006	0.0334	sub-27	1	sequence	interval	dot	NaN	NaN	NaN	NaN	NaN	NaN	NaN	NaN	NaN	NaN	NaN	NaN
537.815184	8.5384	sub-27	1	sequence	delay	dot	NaN	NaN	NaN	NaN	NaN	NaN	NaN	NaN	NaN	NaN	NaN	NaN
546.3302766000006	1.126	sub-27	1	sequence	choice	choice	left	NaN	NaN	1.1026513000006162	True	NaN	NaN	left	True	4.0	3.0	4.0
547.4565399000003	0.5001	sub-27	1	sequence	feedback	NaN	NaN	NaN	NaN	NaN	NaN	NaN	NaN	NaN	NaN	NaN	NaN	NaN
547.9567607000008	1.0007	sub-27	1	sequence	cue	Haus	NaN	NaN	NaN	NaN	NaN	NaN	NaN	NaN	NaN	NaN	NaN	NaN
548.9574395	2.0016	sub-27	1	sequence	blank	blank	NaN	NaN	NaN	NaN	NaN	NaN	NaN	NaN	NaN	NaN	NaN	NaN
550.9590336000001	0.3003	sub-27	1	sequence	fixation	dot	NaN	NaN	NaN	NaN	NaN	NaN	NaN	NaN	NaN	NaN	NaN	NaN
551.2789264000003	0.1138	sub-27	1	sequence	stimulus	Stuhl	NaN	NaN	64.0	NaN	NaN	5.0	1.0	NaN	NaN	NaN	NaN	NaN
551.3927168	0.0669	sub-27	1	sequence	interval	dot	NaN	NaN	NaN	NaN	NaN	NaN	NaN	NaN	NaN	NaN	NaN	NaN
551.4595934000008	0.0999	sub-27	1	sequence	stimulus	Gesicht	NaN	NaN	64.0	NaN	NaN	1.0	2.0	NaN	NaN	NaN	NaN	NaN
551.559483	0.0669	sub-27	1	sequence	interval	dot	NaN	NaN	NaN	NaN	NaN	NaN	NaN	NaN	NaN	NaN	NaN	NaN
551.6263925000003	0.0999	sub-27	1	sequence	stimulus	Schuh	NaN	NaN	64.0	NaN	NaN	4.0	3.0	NaN	NaN	NaN	NaN	NaN
551.7263347000007	0.0669	sub-27	1	sequence	interval	dot	NaN	NaN	NaN	NaN	NaN	NaN	NaN	NaN	NaN	NaN	NaN	NaN
551.7931999000002	0.0999	sub-27	1	sequence	stimulus	Haus	NaN	NaN	64.0	NaN	NaN	2.0	4.0	NaN	NaN	NaN	NaN	NaN
551.8931077000007	0.0669	sub-27	1	sequence	interval	dot	NaN	NaN	NaN	NaN	NaN	NaN	NaN	NaN	NaN	NaN	NaN	NaN
551.9600404000003	0.0999	sub-27	1	sequence	stimulus	Katze	NaN	NaN	64.0	NaN	NaN	3.0	5.0	NaN	NaN	NaN	NaN	NaN
552.0599222000001	0.0667	sub-27	1	sequence	interval	dot	NaN	NaN	NaN	NaN	NaN	NaN	NaN	NaN	NaN	NaN	NaN	NaN
552.126647	8.3883	sub-27	1	sequence	delay	dot	NaN	NaN	NaN	NaN	NaN	NaN	NaN	NaN	NaN	NaN	NaN	NaN
560.5002743000005	0.901	sub-27	1	sequence	choice	choice	left	NaN	NaN	0.8772321999995256	True	NaN	NaN	left	True	4.0	3.0	4.0
561.4014916000006	0.5	sub-27	1	sequence	feedback	NaN	NaN	NaN	NaN	NaN	NaN	NaN	NaN	NaN	NaN	NaN	NaN	NaN
561.9016418000001	1.0004	sub-27	1	sequence	cue	Stuhl	NaN	NaN	NaN	NaN	NaN	NaN	NaN	NaN	NaN	NaN	NaN	NaN
562.9020532000004	2.0016	sub-27	1	sequence	blank	blank	NaN	NaN	NaN	NaN	NaN	NaN	NaN	NaN	NaN	NaN	NaN	NaN
564.9036306000007	0.3002	sub-27	1	sequence	fixation	dot	NaN	NaN	NaN	NaN	NaN	NaN	NaN	NaN	NaN	NaN	NaN	NaN
565.2214565000004	0.0992	sub-27	1	sequence	stimulus	Haus	NaN	NaN	64.0	NaN	NaN	2.0	1.0	NaN	NaN	NaN	NaN	NaN
565.3206469000006	0.0669	sub-27	1	sequence	interval	dot	NaN	NaN	NaN	NaN	NaN	NaN	NaN	NaN	NaN	NaN	NaN	NaN
565.3875353000003	0.0999	sub-27	1	sequence	stimulus	Katze	NaN	NaN	64.0	NaN	NaN	3.0	2.0	NaN	NaN	NaN	NaN	NaN
565.4874400000008	0.0669	sub-27	1	sequence	interval	dot	NaN	NaN	NaN	NaN	NaN	NaN	NaN	NaN	NaN	NaN	NaN	NaN
565.5543268000001	0.0999	sub-27	1	sequence	stimulus	Schuh	NaN	NaN	64.0	NaN	NaN	4.0	3.0	NaN	NaN	NaN	NaN	NaN
565.6542635000005	0.0669	sub-27	1	sequence	interval	dot	NaN	NaN	NaN	NaN	NaN	NaN	NaN	NaN	NaN	NaN	NaN	NaN
565.7211321000004	0.1	sub-27	1	sequence	stimulus	Stuhl	NaN	NaN	64.0	NaN	NaN	5.0	4.0	NaN	NaN	NaN	NaN	NaN
565.8211255000006	0.0668	sub-27	1	sequence	interval	dot	NaN	NaN	NaN	NaN	NaN	NaN	NaN	NaN	NaN	NaN	NaN	NaN
565.8879703000002	0.0999	sub-27	1	sequence	stimulus	Gesicht	NaN	NaN	64.0	NaN	NaN	1.0	5.0	NaN	NaN	NaN	NaN	NaN
565.9878410000001	0.0667	sub-27	1	sequence	interval	dot	NaN	NaN	NaN	NaN	NaN	NaN	NaN	NaN	NaN	NaN	NaN	NaN
566.0545789000007	8.3716	sub-27	1	sequence	delay	dot	NaN	NaN	NaN	NaN	NaN	NaN	NaN	NaN	NaN	NaN	NaN	NaN
574.4096275000002	0.8694	sub-27	1	sequence	choice	choice	right	NaN	NaN	0.8380834999998115	True	NaN	NaN	right	True	5.0	4.0	4.0
575.2792550000004	0.5001	sub-27	1	sequence	feedback	NaN	NaN	NaN	NaN	NaN	NaN	NaN	NaN	NaN	NaN	NaN	NaN	NaN
575.7795372	1.0005	sub-27	1	sequence	cue	Stuhl	NaN	NaN	NaN	NaN	NaN	NaN	NaN	NaN	NaN	NaN	NaN	NaN
576.7800357000006	2.0017	sub-27	1	sequence	blank	blank	NaN	NaN	NaN	NaN	NaN	NaN	NaN	NaN	NaN	NaN	NaN	NaN
578.7817370000002	0.3001	sub-27	1	sequence	fixation	dot	NaN	NaN	NaN	NaN	NaN	NaN	NaN	NaN	NaN	NaN	NaN	NaN
579.0995065000006	0.099	sub-27	1	sequence	stimulus	Haus	NaN	NaN	512.0	NaN	NaN	2.0	1.0	NaN	NaN	NaN	NaN	NaN
579.1985321000002	0.5173	sub-27	1	sequence	interval	dot	NaN	NaN	NaN	NaN	NaN	NaN	NaN	NaN	NaN	NaN	NaN	NaN
579.7158803000002	0.0999	sub-27	1	sequence	stimulus	Schuh	NaN	NaN	512.0	NaN	NaN	4.0	2.0	NaN	NaN	NaN	NaN	NaN
579.8158110000004	0.5173	sub-27	1	sequence	interval	dot	NaN	NaN	NaN	NaN	NaN	NaN	NaN	NaN	NaN	NaN	NaN	NaN
580.3330872000006	0.1	sub-27	1	sequence	stimulus	Gesicht	NaN	NaN	512.0	NaN	NaN	1.0	3.0	NaN	NaN	NaN	NaN	NaN
580.4330433000005	0.5172	sub-27	1	sequence	interval	dot	NaN	NaN	NaN	NaN	NaN	NaN	NaN	NaN	NaN	NaN	NaN	NaN
580.9502376	0.1	sub-27	1	sequence	stimulus	Stuhl	NaN	NaN	512.0	NaN	NaN	5.0	4.0	NaN	NaN	NaN	NaN	NaN
581.0501967	0.5153	sub-27	1	sequence	interval	dot	NaN	NaN	NaN	NaN	NaN	NaN	NaN	NaN	NaN	NaN	NaN	NaN
581.5654623	0.102	sub-27	1	sequence	stimulus	Katze	NaN	NaN	512.0	NaN	NaN	3.0	5.0	NaN	NaN	NaN	NaN	NaN
581.6674382000001	0.517	sub-27	1	sequence	interval	dot	NaN	NaN	NaN	NaN	NaN	NaN	NaN	NaN	NaN	NaN	NaN	NaN
582.1844854999999	6.153	sub-27	1	sequence	delay	dot	NaN	NaN	NaN	NaN	NaN	NaN	NaN	NaN	NaN	NaN	NaN	NaN
588.3194057999999	0.7373	sub-27	1	sequence	choice	choice	right	NaN	NaN	0.7027683000005709	True	NaN	NaN	right	True	5.0	4.0	4.0
589.0570093000006	0.5002	sub-27	1	sequence	feedback	NaN	NaN	NaN	NaN	NaN	NaN	NaN	NaN	NaN	NaN	NaN	NaN	NaN
589.5574004	1.0005	sub-27	1	sequence	cue	Stuhl	NaN	NaN	NaN	NaN	NaN	NaN	NaN	NaN	NaN	NaN	NaN	NaN
590.5578826999999	2.0015	sub-27	1	sequence	blank	blank	NaN	NaN	NaN	NaN	NaN	NaN	NaN	NaN	NaN	NaN	NaN	NaN
592.5593774000008	0.3002	sub-27	1	sequence	fixation	dot	NaN	NaN	NaN	NaN	NaN	NaN	NaN	NaN	NaN	NaN	NaN	NaN
592.8779726000002	0.115	sub-27	1	sequence	stimulus	Schuh	NaN	NaN	128.0	NaN	NaN	4.0	1.0	NaN	NaN	NaN	NaN	NaN
592.9930056000003	0.1336	sub-27	1	sequence	interval	dot	NaN	NaN	NaN	NaN	NaN	NaN	NaN	NaN	NaN	NaN	NaN	NaN
593.1266450000003	0.1	sub-27	1	sequence	stimulus	Katze	NaN	NaN	128.0	NaN	NaN	3.0	2.0	NaN	NaN	NaN	NaN	NaN
593.2266355000002	0.1335	sub-27	1	sequence	interval	dot	NaN	NaN	NaN	NaN	NaN	NaN	NaN	NaN	NaN	NaN	NaN	NaN
593.3601547000007	0.1001	sub-27	1	sequence	stimulus	Haus	NaN	NaN	128.0	NaN	NaN	2.0	3.0	NaN	NaN	NaN	NaN	NaN
593.4602858000007	0.1334	sub-27	1	sequence	interval	dot	NaN	NaN	NaN	NaN	NaN	NaN	NaN	NaN	NaN	NaN	NaN	NaN
593.5937119	0.0999	sub-27	1	sequence	stimulus	Gesicht	NaN	NaN	128.0	NaN	NaN	1.0	4.0	NaN	NaN	NaN	NaN	NaN
593.6936498000005	0.1336	sub-27	1	sequence	interval	dot	NaN	NaN	NaN	NaN	NaN	NaN	NaN	NaN	NaN	NaN	NaN	NaN
593.8272256	0.0999	sub-27	1	sequence	stimulus	Stuhl	NaN	NaN	128.0	NaN	NaN	5.0	5.0	NaN	NaN	NaN	NaN	NaN
593.9271547000008	0.1335	sub-27	1	sequence	interval	dot	NaN	NaN	NaN	NaN	NaN	NaN	NaN	NaN	NaN	NaN	NaN	NaN
594.0606457000004	8.0546	sub-27	1	sequence	delay	dot	NaN	NaN	NaN	NaN	NaN	NaN	NaN	NaN	NaN	NaN	NaN	NaN
602.0989830000008	0.9359	sub-27	1	sequence	choice	choice	left	NaN	NaN	0.9090295999994852	True	NaN	NaN	left	True	5.0	4.0	5.0
603.0351547	0.5	sub-27	1	sequence	feedback	NaN	NaN	NaN	NaN	NaN	NaN	NaN	NaN	NaN	NaN	NaN	NaN	NaN
603.5353031000004	1.0005	sub-27	1	sequence	cue	Gesicht	NaN	NaN	NaN	NaN	NaN	NaN	NaN	NaN	NaN	NaN	NaN	NaN
604.5358283000005	2.0015	sub-27	1	sequence	blank	blank	NaN	NaN	NaN	NaN	NaN	NaN	NaN	NaN	NaN	NaN	NaN	NaN
606.5373387	0.3002	sub-27	1	sequence	fixation	dot	NaN	NaN	NaN	NaN	NaN	NaN	NaN	NaN	NaN	NaN	NaN	NaN
606.8550692000008	0.0993	sub-27	1	sequence	stimulus	Stuhl	NaN	NaN	32.0	NaN	NaN	5.0	1.0	NaN	NaN	NaN	NaN	NaN
606.9543212000008	0.0335	sub-27	1	sequence	interval	dot	NaN	NaN	NaN	NaN	NaN	NaN	NaN	NaN	NaN	NaN	NaN	NaN
606.9878096000002	0.0999	sub-27	1	sequence	stimulus	Katze	NaN	NaN	32.0	NaN	NaN	3.0	2.0	NaN	NaN	NaN	NaN	NaN
607.0877442999999	0.0335	sub-27	1	sequence	interval	dot	NaN	NaN	NaN	NaN	NaN	NaN	NaN	NaN	NaN	NaN	NaN	NaN
607.1212801000001	0.0999	sub-27	1	sequence	stimulus	Schuh	NaN	NaN	32.0	NaN	NaN	4.0	3.0	NaN	NaN	NaN	NaN	NaN
607.2211834	0.0335	sub-27	1	sequence	interval	dot	NaN	NaN	NaN	NaN	NaN	NaN	NaN	NaN	NaN	NaN	NaN	NaN
607.2547202000005	0.0999	sub-27	1	sequence	stimulus	Haus	NaN	NaN	32.0	NaN	NaN	2.0	4.0	NaN	NaN	NaN	NaN	NaN
607.3546531000002	0.0335	sub-27	1	sequence	interval	dot	NaN	NaN	NaN	NaN	NaN	NaN	NaN	NaN	NaN	NaN	NaN	NaN
607.3881729000004	0.0999	sub-27	1	sequence	stimulus	Gesicht	NaN	NaN	32.0	NaN	NaN	1.0	5.0	NaN	NaN	NaN	NaN	NaN
607.4880833000007	0.0334	sub-27	1	sequence	interval	dot	NaN	NaN	NaN	NaN	NaN	NaN	NaN	NaN	NaN	NaN	NaN	NaN
607.5214436000006	8.5384	sub-27	1	sequence	delay	dot	NaN	NaN	NaN	NaN	NaN	NaN	NaN	NaN	NaN	NaN	NaN	NaN
616.0347836999999	0.7444	sub-27	1	sequence	choice	choice	right	NaN	NaN	0.7082955999994738	False	NaN	NaN	left	True	5.0	4.0	5.0
616.7794276000004	0.5	sub-27	1	sequence	feedback	NaN	NaN	NaN	NaN	NaN	NaN	NaN	NaN	NaN	NaN	NaN	NaN	NaN
617.2795227000006	1.0007	sub-27	1	sequence	cue	Schuh	NaN	NaN	NaN	NaN	NaN	NaN	NaN	NaN	NaN	NaN	NaN	NaN
618.2802317000005	2.0015	sub-27	1	sequence	blank	blank	NaN	NaN	NaN	NaN	NaN	NaN	NaN	NaN	NaN	NaN	NaN	NaN
620.2817454000005	0.3003	sub-27	1	sequence	fixation	dot	NaN	NaN	NaN	NaN	NaN	NaN	NaN	NaN	NaN	NaN	NaN	NaN
620.5996745000002	0.0991	sub-27	1	sequence	stimulus	Katze	NaN	NaN	128.0	NaN	NaN	3.0	1.0	NaN	NaN	NaN	NaN	NaN
620.6987537000005	0.1337	sub-27	1	sequence	interval	dot	NaN	NaN	NaN	NaN	NaN	NaN	NaN	NaN	NaN	NaN	NaN	NaN
620.8324047000006	0.0999	sub-27	1	sequence	stimulus	Haus	NaN	NaN	128.0	NaN	NaN	2.0	2.0	NaN	NaN	NaN	NaN	NaN
620.9322576000004	0.1337	sub-27	1	sequence	interval	dot	NaN	NaN	NaN	NaN	NaN	NaN	NaN	NaN	NaN	NaN	NaN	NaN
621.0659863999999	0.0998	sub-27	1	sequence	stimulus	Gesicht	NaN	NaN	128.0	NaN	NaN	1.0	3.0	NaN	NaN	NaN	NaN	NaN
621.1657809000008	0.1337	sub-27	1	sequence	interval	dot	NaN	NaN	NaN	NaN	NaN	NaN	NaN	NaN	NaN	NaN	NaN	NaN
621.2994776000005	0.0999	sub-27	1	sequence	stimulus	Stuhl	NaN	NaN	128.0	NaN	NaN	5.0	4.0	NaN	NaN	NaN	NaN	NaN
621.3993729000003	0.1336	sub-27	1	sequence	interval	dot	NaN	NaN	NaN	NaN	NaN	NaN	NaN	NaN	NaN	NaN	NaN	NaN
621.5329898	0.0999	sub-27	1	sequence	stimulus	Schuh	NaN	NaN	128.0	NaN	NaN	4.0	5.0	NaN	NaN	NaN	NaN	NaN
621.6329087000004	0.1335	sub-27	1	sequence	interval	dot	NaN	NaN	NaN	NaN	NaN	NaN	NaN	NaN	NaN	NaN	NaN	NaN
621.7664523000003	8.071	sub-27	1	sequence	delay	dot	NaN	NaN	NaN	NaN	NaN	NaN	NaN	NaN	NaN	NaN	NaN	NaN
629.8143904000008	0.7927	sub-27	1	sequence	choice	choice	right	NaN	NaN	0.7546261999996204	True	NaN	NaN	right	True	2.0	5.0	5.0
630.6073258000006	0.5	sub-27	1	sequence	feedback	NaN	NaN	NaN	NaN	NaN	NaN	NaN	NaN	NaN	NaN	NaN	NaN	NaN
631.1075510000001	1.0005	sub-27	1	sequence	cue	Katze	NaN	NaN	NaN	NaN	NaN	NaN	NaN	NaN	NaN	NaN	NaN	NaN
632.1080177000003	2.0017	sub-27	1	sequence	blank	blank	NaN	NaN	NaN	NaN	NaN	NaN	NaN	NaN	NaN	NaN	NaN	NaN
634.1097037	0.3003	sub-27	1	sequence	fixation	dot	NaN	NaN	NaN	NaN	NaN	NaN	NaN	NaN	NaN	NaN	NaN	NaN
634.4281790000005	0.1151	sub-27	1	sequence	stimulus	Schuh	NaN	NaN	512.0	NaN	NaN	4.0	1.0	NaN	NaN	NaN	NaN	NaN
634.5432669000002	0.5173	sub-27	1	sequence	interval	dot	NaN	NaN	NaN	NaN	NaN	NaN	NaN	NaN	NaN	NaN	NaN	NaN
635.0605355000007	0.0999	sub-27	1	sequence	stimulus	Gesicht	NaN	NaN	512.0	NaN	NaN	1.0	2.0	NaN	NaN	NaN	NaN	NaN
635.1604336	0.5173	sub-27	1	sequence	interval	dot	NaN	NaN	NaN	NaN	NaN	NaN	NaN	NaN	NaN	NaN	NaN	NaN
635.6777192	0.0999	sub-27	1	sequence	stimulus	Haus	NaN	NaN	512.0	NaN	NaN	2.0	3.0	NaN	NaN	NaN	NaN	NaN
635.7775859000003	0.5172	sub-27	1	sequence	interval	dot	NaN	NaN	NaN	NaN	NaN	NaN	NaN	NaN	NaN	NaN	NaN	NaN
636.2948234000005	0.0999	sub-27	1	sequence	stimulus	Stuhl	NaN	NaN	512.0	NaN	NaN	5.0	4.0	NaN	NaN	NaN	NaN	NaN
636.3947577000008	0.5173	sub-27	1	sequence	interval	dot	NaN	NaN	NaN	NaN	NaN	NaN	NaN	NaN	NaN	NaN	NaN	NaN
636.9120484000005	0.0999	sub-27	1	sequence	stimulus	Katze	NaN	NaN	512.0	NaN	NaN	3.0	5.0	NaN	NaN	NaN	NaN	NaN
637.0119616000002	0.517	sub-27	1	sequence	interval	dot	NaN	NaN	NaN	NaN	NaN	NaN	NaN	NaN	NaN	NaN	NaN	NaN
637.5289992000007	6.1533	sub-27	1	sequence	delay	dot	NaN	NaN	NaN	NaN	NaN	NaN	NaN	NaN	NaN	NaN	NaN	NaN
643.6465628000005	0.7196	sub-27	1	sequence	choice	choice	right	NaN	NaN	0.6778487999999925	True	NaN	NaN	right	True	4.0	5.0	5.0
644.3664396000004	0.5021	sub-27	1	sequence	feedback	NaN	NaN	NaN	NaN	NaN	NaN	NaN	NaN	NaN	NaN	NaN	NaN	NaN
648.6888930000005	0.4996	sub-27	1	localizer	stimulus	Gesicht	NaN	180	2.3016893999993044	0.8313213999999789	True	NaN	NaN	NaN	NaN	NaN	NaN	NaN
649.1719200000007	2.3017	sub-27	1	localizer	blank	interval	NaN	NaN	NaN	NaN	NaN	NaN	NaN	NaN	NaN	NaN	NaN	NaN
651.7747262000003	0.4996	sub-27	1	localizer	stimulus	Stuhl	NaN	0	2.3851520999996865	NaN	True	NaN	NaN	NaN	NaN	NaN	NaN	NaN
652.2577598000007	2.3852	sub-27	1	localizer	blank	interval	NaN	NaN	NaN	NaN	NaN	NaN	NaN	NaN	NaN	NaN	NaN	NaN
654.9439584000002	0.4995	sub-27	1	localizer	stimulus	Gesicht	NaN	0	1.8178753000001961	NaN	True	NaN	NaN	NaN	NaN	NaN	NaN	NaN
655.4270924000002	1.8179	sub-27	1	localizer	blank	interval	NaN	NaN	NaN	NaN	NaN	NaN	NaN	NaN	NaN	NaN	NaN	NaN
657.5460565000003	0.4995	sub-27	1	localizer	stimulus	Gesicht	NaN	0	2.0013276999998197	NaN	True	NaN	NaN	NaN	NaN	NaN	NaN	NaN
658.0291956000001	2.0013	sub-27	1	localizer	blank	interval	NaN	NaN	NaN	NaN	NaN	NaN	NaN	NaN	NaN	NaN	NaN	NaN
660.3316607000006	0.4995	sub-27	1	localizer	stimulus	Haus	NaN	0	2.385093500000039	NaN	True	NaN	NaN	NaN	NaN	NaN	NaN	NaN
660.8146807000003	2.3851	sub-27	1	localizer	blank	interval	NaN	NaN	NaN	NaN	NaN	NaN	NaN	NaN	NaN	NaN	NaN	NaN
663.5010022000006	0.4996	sub-27	1	localizer	stimulus	Katze	NaN	180	2.4852750000000015	0.5950521000004301	True	NaN	NaN	NaN	NaN	NaN	NaN	NaN
663.9840270000004	2.4853	sub-27	1	localizer	blank	interval	NaN	NaN	NaN	NaN	NaN	NaN	NaN	NaN	NaN	NaN	NaN	NaN
666.7703868000008	0.4995	sub-27	1	localizer	stimulus	Schuh	NaN	0	2.2348520999994435	NaN	True	NaN	NaN	NaN	NaN	NaN	NaN	NaN
667.2533600000006	2.2349	sub-27	1	localizer	blank	interval	NaN	NaN	NaN	NaN	NaN	NaN	NaN	NaN	NaN	NaN	NaN	NaN
669.7893021	0.4995	sub-27	1	localizer	stimulus	Katze	NaN	0	2.2683799999995244	NaN	True	NaN	NaN	NaN	NaN	NaN	NaN	NaN
670.2723098000006	2.2684	sub-27	1	localizer	blank	interval	NaN	NaN	NaN	NaN	NaN	NaN	NaN	NaN	NaN	NaN	NaN	NaN
672.8418110000002	0.4995	sub-27	1	localizer	stimulus	Gesicht	NaN	0	2.285048800000368	NaN	True	NaN	NaN	NaN	NaN	NaN	NaN	NaN
673.3248075000001	2.285	sub-27	1	localizer	blank	interval	NaN	NaN	NaN	NaN	NaN	NaN	NaN	NaN	NaN	NaN	NaN	NaN
675.9109159	0.4995	sub-27	1	localizer	stimulus	Schuh	NaN	180	3.8195946999994703	0.6972124999992957	True	NaN	NaN	NaN	NaN	NaN	NaN	NaN
676.3939439000005	3.8196	sub-27	1	localizer	blank	interval	NaN	NaN	NaN	NaN	NaN	NaN	NaN	NaN	NaN	NaN	NaN	NaN
680.5146398000006	0.4995	sub-27	1	localizer	stimulus	Schuh	NaN	0	2.71881250000024	NaN	True	NaN	NaN	NaN	NaN	NaN	NaN	NaN
680.9976747999999	2.7188	sub-27	1	localizer	blank	interval	NaN	NaN	NaN	NaN	NaN	NaN	NaN	NaN	NaN	NaN	NaN	NaN
684.0175990000007	0.4998	sub-27	1	localizer	stimulus	Gesicht	NaN	0	1.8179410000002463	NaN	True	NaN	NaN	NaN	NaN	NaN	NaN	NaN
684.5006303	1.8179	sub-27	1	localizer	blank	interval	NaN	NaN	NaN	NaN	NaN	NaN	NaN	NaN	NaN	NaN	NaN	NaN
686.6196784000003	0.4996	sub-27	1	localizer	stimulus	Katze	NaN	0	3.8361736000006204	NaN	True	NaN	NaN	NaN	NaN	NaN	NaN	NaN
687.1027807	3.8362	sub-27	1	localizer	blank	interval	NaN	NaN	NaN	NaN	NaN	NaN	NaN	NaN	NaN	NaN	NaN	NaN
691.2399429000006	0.4997	sub-27	1	localizer	stimulus	Stuhl	NaN	180	1.8513150999997379	0.7520046999998158	True	NaN	NaN	NaN	NaN	NaN	NaN	NaN
691.7230298000004	1.8513	sub-27	1	localizer	blank	interval	NaN	NaN	NaN	NaN	NaN	NaN	NaN	NaN	NaN	NaN	NaN	NaN
693.8754195000001	0.4995	sub-27	1	localizer	stimulus	Schuh	NaN	0	2.651983400000063	NaN	True	NaN	NaN	NaN	NaN	NaN	NaN	NaN
694.3585651000003	2.652	sub-27	1	localizer	blank	interval	NaN	NaN	NaN	NaN	NaN	NaN	NaN	NaN	NaN	NaN	NaN	NaN
697.3115619	0.4996	sub-27	1	localizer	stimulus	Haus	NaN	180	2.3683270999999877	0.6564961000003677	True	NaN	NaN	NaN	NaN	NaN	NaN	NaN
697.7946441000004	2.3683	sub-27	1	localizer	blank	interval	NaN	NaN	NaN	NaN	NaN	NaN	NaN	NaN	NaN	NaN	NaN	NaN
700.4641095000006	0.4996	sub-27	1	localizer	stimulus	Schuh	NaN	0	2.5685756000002584	NaN	True	NaN	NaN	NaN	NaN	NaN	NaN	NaN
700.9471791000005	2.5686	sub-27	1	localizer	blank	interval	NaN	NaN	NaN	NaN	NaN	NaN	NaN	NaN	NaN	NaN	NaN	NaN
703.816785	0.4996	sub-27	1	localizer	stimulus	Stuhl	NaN	0	2.451890000000276	NaN	True	NaN	NaN	NaN	NaN	NaN	NaN	NaN
704.2999626999999	2.4519	sub-27	1	localizer	blank	interval	NaN	NaN	NaN	NaN	NaN	NaN	NaN	NaN	NaN	NaN	NaN	NaN
707.0528119	0.4996	sub-27	1	localizer	stimulus	Haus	NaN	0	3.2856629999996585	NaN	True	NaN	NaN	NaN	NaN	NaN	NaN	NaN
707.5359420000004	3.2857	sub-27	1	localizer	blank	interval	NaN	NaN	NaN	NaN	NaN	NaN	NaN	NaN	NaN	NaN	NaN	NaN
711.1227026000006	0.4995	sub-27	1	localizer	stimulus	Stuhl	NaN	0	2.952351799999633	NaN	True	NaN	NaN	NaN	NaN	NaN	NaN	NaN
711.6057296000008	2.9524	sub-27	1	localizer	blank	interval	NaN	NaN	NaN	NaN	NaN	NaN	NaN	NaN	NaN	NaN	NaN	NaN
714.8590496000006	0.4997	sub-27	1	localizer	stimulus	Stuhl	NaN	0	2.8021335999992516	NaN	True	NaN	NaN	NaN	NaN	NaN	NaN	NaN
715.3420613000008	2.8021	sub-27	1	localizer	blank	interval	NaN	NaN	NaN	NaN	NaN	NaN	NaN	NaN	NaN	NaN	NaN	NaN
718.4453003000008	0.4995	sub-27	1	localizer	stimulus	Katze	NaN	0	2.6852775999996084	NaN	True	NaN	NaN	NaN	NaN	NaN	NaN	NaN
718.9283779000007	2.6853	sub-27	1	localizer	blank	interval	NaN	NaN	NaN	NaN	NaN	NaN	NaN	NaN	NaN	NaN	NaN	NaN
721.9147726000001	0.4996	sub-27	1	localizer	stimulus	Katze	NaN	0	2.618729499999972	NaN	True	NaN	NaN	NaN	NaN	NaN	NaN	NaN
722.3977976000006	2.6187	sub-27	1	localizer	blank	interval	NaN	NaN	NaN	NaN	NaN	NaN	NaN	NaN	NaN	NaN	NaN	NaN
725.3176055000004	0.4995	sub-27	1	localizer	stimulus	Haus	NaN	0	2.7687384000000748	NaN	True	NaN	NaN	NaN	NaN	NaN	NaN	NaN
725.8006779000007	2.7687	sub-27	1	localizer	blank	interval	NaN	NaN	NaN	NaN	NaN	NaN	NaN	NaN	NaN	NaN	NaN	NaN
728.8705786	0.4996	sub-27	1	localizer	stimulus	Haus	NaN	0	2.168106500000249	NaN	True	NaN	NaN	NaN	NaN	NaN	NaN	NaN
729.3536239000005	2.1681	sub-27	1	localizer	blank	interval	NaN	NaN	NaN	NaN	NaN	NaN	NaN	NaN	NaN	NaN	NaN	NaN
735.0081291000006	1.0006	sub-27	1	sequence	cue	Katze	NaN	NaN	NaN	NaN	NaN	NaN	NaN	NaN	NaN	NaN	NaN	NaN
736.0087856	2.0015	sub-27	1	sequence	blank	blank	NaN	NaN	NaN	NaN	NaN	NaN	NaN	NaN	NaN	NaN	NaN	NaN
738.0103185000007	0.3003	sub-27	1	sequence	fixation	dot	NaN	NaN	NaN	NaN	NaN	NaN	NaN	NaN	NaN	NaN	NaN	NaN
738.3288403000006	0.1152	sub-27	1	sequence	stimulus	Haus	NaN	NaN	64.0	NaN	NaN	2.0	1.0	NaN	NaN	NaN	NaN	NaN
738.4440089	0.0668	sub-27	1	sequence	interval	dot	NaN	NaN	NaN	NaN	NaN	NaN	NaN	NaN	NaN	NaN	NaN	NaN
738.5108092	0.0999	sub-27	1	sequence	stimulus	Katze	NaN	NaN	64.0	NaN	NaN	3.0	2.0	NaN	NaN	NaN	NaN	NaN
738.6107316000007	0.067	sub-27	1	sequence	interval	dot	NaN	NaN	NaN	NaN	NaN	NaN	NaN	NaN	NaN	NaN	NaN	NaN
738.6776909	0.0999	sub-27	1	sequence	stimulus	Schuh	NaN	NaN	64.0	NaN	NaN	4.0	3.0	NaN	NaN	NaN	NaN	NaN
738.7776197000003	0.0668	sub-27	1	sequence	interval	dot	NaN	NaN	NaN	NaN	NaN	NaN	NaN	NaN	NaN	NaN	NaN	NaN
738.8444413000007	0.0999	sub-27	1	sequence	stimulus	Stuhl	NaN	NaN	64.0	NaN	NaN	5.0	4.0	NaN	NaN	NaN	NaN	NaN
738.9443007	0.0669	sub-27	1	sequence	interval	dot	NaN	NaN	NaN	NaN	NaN	NaN	NaN	NaN	NaN	NaN	NaN	NaN
739.0111955000002	0.1001	sub-27	1	sequence	stimulus	Gesicht	NaN	NaN	64.0	NaN	NaN	1.0	5.0	NaN	NaN	NaN	NaN	NaN
739.1112518	0.0667	sub-27	1	sequence	interval	dot	NaN	NaN	NaN	NaN	NaN	NaN	NaN	NaN	NaN	NaN	NaN	NaN
739.1779065000001	8.3883	sub-27	1	sequence	delay	dot	NaN	NaN	NaN	NaN	NaN	NaN	NaN	NaN	NaN	NaN	NaN	NaN
747.5398027000001	0.7126	sub-27	1	sequence	choice	choice	left	NaN	NaN	0.6818097000004855	True	NaN	NaN	left	True	2.0	4.0	2.0
748.2527260000006	0.4998	sub-27	1	sequence	feedback	NaN	NaN	NaN	NaN	NaN	NaN	NaN	NaN	NaN	NaN	NaN	NaN	NaN
748.7527852000003	1.0005	sub-27	1	sequence	cue	Stuhl	NaN	NaN	NaN	NaN	NaN	NaN	NaN	NaN	NaN	NaN	NaN	NaN
749.7533040000008	2.0014	sub-27	1	sequence	blank	blank	NaN	NaN	NaN	NaN	NaN	NaN	NaN	NaN	NaN	NaN	NaN	NaN
751.7547152000006	0.3003	sub-27	1	sequence	fixation	dot	NaN	NaN	NaN	NaN	NaN	NaN	NaN	NaN	NaN	NaN	NaN	NaN
752.0724872999999	0.0992	sub-27	1	sequence	stimulus	Haus	NaN	NaN	512.0	NaN	NaN	2.0	1.0	NaN	NaN	NaN	NaN	NaN
752.1716855000004	0.5172	sub-27	1	sequence	interval	dot	NaN	NaN	NaN	NaN	NaN	NaN	NaN	NaN	NaN	NaN	NaN	NaN
752.6889318000003	0.0999	sub-27	1	sequence	stimulus	Schuh	NaN	NaN	512.0	NaN	NaN	4.0	2.0	NaN	NaN	NaN	NaN	NaN
752.7888413999999	0.5173	sub-27	1	sequence	interval	dot	NaN	NaN	NaN	NaN	NaN	NaN	NaN	NaN	NaN	NaN	NaN	NaN
753.3061141000007	0.0999	sub-27	1	sequence	stimulus	Gesicht	NaN	NaN	512.0	NaN	NaN	1.0	3.0	NaN	NaN	NaN	NaN	NaN
753.4060618000003	0.5171	sub-27	1	sequence	interval	dot	NaN	NaN	NaN	NaN	NaN	NaN	NaN	NaN	NaN	NaN	NaN	NaN
753.9231387	0.0999	sub-27	1	sequence	stimulus	Stuhl	NaN	NaN	512.0	NaN	NaN	5.0	4.0	NaN	NaN	NaN	NaN	NaN
754.0230854000001	0.5173	sub-27	1	sequence	interval	dot	NaN	NaN	NaN	NaN	NaN	NaN	NaN	NaN	NaN	NaN	NaN	NaN
754.5404310000004	0.0999	sub-27	1	sequence	stimulus	Katze	NaN	NaN	512.0	NaN	NaN	3.0	5.0	NaN	NaN	NaN	NaN	NaN
754.6403683000008	0.5171	sub-27	1	sequence	interval	dot	NaN	NaN	NaN	NaN	NaN	NaN	NaN	NaN	NaN	NaN	NaN	NaN
755.1574507000005	6.1532	sub-27	1	sequence	delay	dot	NaN	NaN	NaN	NaN	NaN	NaN	NaN	NaN	NaN	NaN	NaN	NaN
761.2935569000001	0.803	sub-27	1	sequence	choice	choice	left	NaN	NaN	0.777478300000439	True	NaN	NaN	left	True	4.0	3.0	4.0
762.0968221000003	0.5	sub-27	1	sequence	feedback	NaN	NaN	NaN	NaN	NaN	NaN	NaN	NaN	NaN	NaN	NaN	NaN	NaN
762.5970825000004	1.0007	sub-27	1	sequence	cue	Katze	NaN	NaN	NaN	NaN	NaN	NaN	NaN	NaN	NaN	NaN	NaN	NaN
763.5977438	2.0015	sub-27	1	sequence	blank	blank	NaN	NaN	NaN	NaN	NaN	NaN	NaN	NaN	NaN	NaN	NaN	NaN
765.5992167000004	0.3003	sub-27	1	sequence	fixation	dot	NaN	NaN	NaN	NaN	NaN	NaN	NaN	NaN	NaN	NaN	NaN	NaN
765.9171396000002	0.0991	sub-27	1	sequence	stimulus	Schuh	NaN	NaN	128.0	NaN	NaN	4.0	1.0	NaN	NaN	NaN	NaN	NaN
766.0162052000005	0.1336	sub-27	1	sequence	interval	dot	NaN	NaN	NaN	NaN	NaN	NaN	NaN	NaN	NaN	NaN	NaN	NaN
766.1497956000003	0.1	sub-27	1	sequence	stimulus	Katze	NaN	NaN	128.0	NaN	NaN	3.0	2.0	NaN	NaN	NaN	NaN	NaN
766.2497548000001	0.1336	sub-27	1	sequence	interval	dot	NaN	NaN	NaN	NaN	NaN	NaN	NaN	NaN	NaN	NaN	NaN	NaN
766.3833926000007	0.0999	sub-27	1	sequence	stimulus	Haus	NaN	NaN	128.0	NaN	NaN	2.0	3.0	NaN	NaN	NaN	NaN	NaN
766.4832508	0.1336	sub-27	1	sequence	interval	dot	NaN	NaN	NaN	NaN	NaN	NaN	NaN	NaN	NaN	NaN	NaN	NaN
766.6168879000006	0.0999	sub-27	1	sequence	stimulus	Gesicht	NaN	NaN	128.0	NaN	NaN	1.0	4.0	NaN	NaN	NaN	NaN	NaN
766.7168035000004	0.1336	sub-27	1	sequence	interval	dot	NaN	NaN	NaN	NaN	NaN	NaN	NaN	NaN	NaN	NaN	NaN	NaN
766.8503929000008	0.0999	sub-27	1	sequence	stimulus	Stuhl	NaN	NaN	128.0	NaN	NaN	5.0	5.0	NaN	NaN	NaN	NaN	NaN
766.9502840000005	0.1334	sub-27	1	sequence	interval	dot	NaN	NaN	NaN	NaN	NaN	NaN	NaN	NaN	NaN	NaN	NaN	NaN
767.0837234	8.0547	sub-27	1	sequence	delay	dot	NaN	NaN	NaN	NaN	NaN	NaN	NaN	NaN	NaN	NaN	NaN	NaN
775.1252472000006	0.8659	sub-27	1	sequence	choice	choice	right	NaN	NaN	0.8376473000007536	True	NaN	NaN	right	True	3.0	2.0	2.0
775.9913928000005	0.5001	sub-27	1	sequence	feedback	NaN	NaN	NaN	NaN	NaN	NaN	NaN	NaN	NaN	NaN	NaN	NaN	NaN
776.4917094000002	1.0005	sub-27	1	sequence	cue	Schuh	NaN	NaN	NaN	NaN	NaN	NaN	NaN	NaN	NaN	NaN	NaN	NaN
777.4922069000004	2.0016	sub-27	1	sequence	blank	blank	NaN	NaN	NaN	NaN	NaN	NaN	NaN	NaN	NaN	NaN	NaN	NaN
779.4937952	0.3002	sub-27	1	sequence	fixation	dot	NaN	NaN	NaN	NaN	NaN	NaN	NaN	NaN	NaN	NaN	NaN	NaN
779.8123447000007	0.1151	sub-27	1	sequence	stimulus	Katze	NaN	NaN	128.0	NaN	NaN	3.0	1.0	NaN	NaN	NaN	NaN	NaN
779.9274548000003	0.1337	sub-27	1	sequence	interval	dot	NaN	NaN	NaN	NaN	NaN	NaN	NaN	NaN	NaN	NaN	NaN	NaN
780.061119	0.0999	sub-27	1	sequence	stimulus	Haus	NaN	NaN	128.0	NaN	NaN	2.0	2.0	NaN	NaN	NaN	NaN	NaN
780.1609973000004	0.1336	sub-27	1	sequence	interval	dot	NaN	NaN	NaN	NaN	NaN	NaN	NaN	NaN	NaN	NaN	NaN	NaN
780.294605	0.0999	sub-27	1	sequence	stimulus	Gesicht	NaN	NaN	128.0	NaN	NaN	1.0	3.0	NaN	NaN	NaN	NaN	NaN
780.3945460000004	0.1335	sub-27	1	sequence	interval	dot	NaN	NaN	NaN	NaN	NaN	NaN	NaN	NaN	NaN	NaN	NaN	NaN
780.5280898000001	0.1	sub-27	1	sequence	stimulus	Stuhl	NaN	NaN	128.0	NaN	NaN	5.0	4.0	NaN	NaN	NaN	NaN	NaN
780.6280554000004	0.1336	sub-27	1	sequence	interval	dot	NaN	NaN	NaN	NaN	NaN	NaN	NaN	NaN	NaN	NaN	NaN	NaN
780.7616739000005	0.0999	sub-27	1	sequence	stimulus	Schuh	NaN	NaN	128.0	NaN	NaN	4.0	5.0	NaN	NaN	NaN	NaN	NaN
780.8615678000006	0.1335	sub-27	1	sequence	interval	dot	NaN	NaN	NaN	NaN	NaN	NaN	NaN	NaN	NaN	NaN	NaN	NaN
780.9950219000002	8.0547	sub-27	1	sequence	delay	dot	NaN	NaN	NaN	NaN	NaN	NaN	NaN	NaN	NaN	NaN	NaN	NaN
789.0349566000004	0.8176	sub-27	1	sequence	choice	choice	right	NaN	NaN	0.7903339000004053	True	NaN	NaN	right	True	4.0	5.0	5.0
789.8527918	0.5001	sub-27	1	sequence	feedback	NaN	NaN	NaN	NaN	NaN	NaN	NaN	NaN	NaN	NaN	NaN	NaN	NaN
790.3530306000002	1.0005	sub-27	1	sequence	cue	Gesicht	NaN	NaN	NaN	NaN	NaN	NaN	NaN	NaN	NaN	NaN	NaN	NaN
791.3535817000002	2.0015	sub-27	1	sequence	blank	blank	NaN	NaN	NaN	NaN	NaN	NaN	NaN	NaN	NaN	NaN	NaN	NaN
793.3550483000008	0.3002	sub-27	1	sequence	fixation	dot	NaN	NaN	NaN	NaN	NaN	NaN	NaN	NaN	NaN	NaN	NaN	NaN
793.6727876000004	0.0992	sub-27	1	sequence	stimulus	Katze	NaN	NaN	32.0	NaN	NaN	3.0	1.0	NaN	NaN	NaN	NaN	NaN
793.7720003000004	0.0335	sub-27	1	sequence	interval	dot	NaN	NaN	NaN	NaN	NaN	NaN	NaN	NaN	NaN	NaN	NaN	NaN
793.8055339000002	0.0999	sub-27	1	sequence	stimulus	Schuh	NaN	NaN	32.0	NaN	NaN	4.0	2.0	NaN	NaN	NaN	NaN	NaN
793.9054626000006	0.0336	sub-27	1	sequence	interval	dot	NaN	NaN	NaN	NaN	NaN	NaN	NaN	NaN	NaN	NaN	NaN	NaN
793.9390300000005	0.0998	sub-27	1	sequence	stimulus	Haus	NaN	NaN	32.0	NaN	NaN	2.0	3.0	NaN	NaN	NaN	NaN	NaN
794.0388790000006	0.0335	sub-27	1	sequence	interval	dot	NaN	NaN	NaN	NaN	NaN	NaN	NaN	NaN	NaN	NaN	NaN	NaN
794.0724089000005	0.0999	sub-27	1	sequence	stimulus	Stuhl	NaN	NaN	32.0	NaN	NaN	5.0	4.0	NaN	NaN	NaN	NaN	NaN
794.1723044	0.0336	sub-27	1	sequence	interval	dot	NaN	NaN	NaN	NaN	NaN	NaN	NaN	NaN	NaN	NaN	NaN	NaN
794.2058622000004	0.0999	sub-27	1	sequence	stimulus	Gesicht	NaN	NaN	32.0	NaN	NaN	1.0	5.0	NaN	NaN	NaN	NaN	NaN
794.3057721000005	0.0334	sub-27	1	sequence	interval	dot	NaN	NaN	NaN	NaN	NaN	NaN	NaN	NaN	NaN	NaN	NaN	NaN
794.3391280000005	8.5217	sub-27	1	sequence	delay	dot	NaN	NaN	NaN	NaN	NaN	NaN	NaN	NaN	NaN	NaN	NaN	NaN
802.8406711000007	0.7728	sub-27	1	sequence	choice	choice	right	NaN	NaN	0.7471659000002546	True	NaN	NaN	right	True	3.0	5.0	5.0
803.6137034000003	0.5	sub-27	1	sequence	feedback	NaN	NaN	NaN	NaN	NaN	NaN	NaN	NaN	NaN	NaN	NaN	NaN	NaN
804.1138631000003	1.0006	sub-27	1	sequence	cue	Gesicht	NaN	NaN	NaN	NaN	NaN	NaN	NaN	NaN	NaN	NaN	NaN	NaN
805.1145162000003	2.0017	sub-27	1	sequence	blank	blank	NaN	NaN	NaN	NaN	NaN	NaN	NaN	NaN	NaN	NaN	NaN	NaN
807.1162228000003	0.3002	sub-27	1	sequence	fixation	dot	NaN	NaN	NaN	NaN	NaN	NaN	NaN	NaN	NaN	NaN	NaN	NaN
807.4347796000002	0.115	sub-27	1	sequence	stimulus	Stuhl	NaN	NaN	32.0	NaN	NaN	5.0	1.0	NaN	NaN	NaN	NaN	NaN
807.5497910000004	0.0335	sub-27	1	sequence	interval	dot	NaN	NaN	NaN	NaN	NaN	NaN	NaN	NaN	NaN	NaN	NaN	NaN
807.5833117000002	0.1	sub-27	1	sequence	stimulus	Katze	NaN	NaN	32.0	NaN	NaN	3.0	2.0	NaN	NaN	NaN	NaN	NaN
807.6833227000006	0.0335	sub-27	1	sequence	interval	dot	NaN	NaN	NaN	NaN	NaN	NaN	NaN	NaN	NaN	NaN	NaN	NaN
807.7167738000007	0.0999	sub-27	1	sequence	stimulus	Schuh	NaN	NaN	32.0	NaN	NaN	4.0	3.0	NaN	NaN	NaN	NaN	NaN
807.8166924000006	0.0335	sub-27	1	sequence	interval	dot	NaN	NaN	NaN	NaN	NaN	NaN	NaN	NaN	NaN	NaN	NaN	NaN
807.8502389000005	0.0999	sub-27	1	sequence	stimulus	Haus	NaN	NaN	32.0	NaN	NaN	2.0	4.0	NaN	NaN	NaN	NaN	NaN
807.9501166	0.0335	sub-27	1	sequence	interval	dot	NaN	NaN	NaN	NaN	NaN	NaN	NaN	NaN	NaN	NaN	NaN	NaN
807.9836548000003	0.0999	sub-27	1	sequence	stimulus	Gesicht	NaN	NaN	32.0	NaN	NaN	1.0	5.0	NaN	NaN	NaN	NaN	NaN
808.0835574000002	0.0334	sub-27	1	sequence	interval	dot	NaN	NaN	NaN	NaN	NaN	NaN	NaN	NaN	NaN	NaN	NaN	NaN
808.1169144000005	8.5551	sub-27	1	sequence	delay	dot	NaN	NaN	NaN	NaN	NaN	NaN	NaN	NaN	NaN	NaN	NaN	NaN
816.6463952000004	0.7783	sub-27	1	sequence	choice	choice	left	NaN	NaN	0.7520285000000513	True	NaN	NaN	left	True	5.0	4.0	5.0
817.4249024000001	0.5001	sub-27	1	sequence	feedback	NaN	NaN	NaN	NaN	NaN	NaN	NaN	NaN	NaN	NaN	NaN	NaN	NaN
817.9251929000002	1.0006	sub-27	1	sequence	cue	Stuhl	NaN	NaN	NaN	NaN	NaN	NaN	NaN	NaN	NaN	NaN	NaN	NaN
818.9257930000003	2.0015	sub-27	1	sequence	blank	blank	NaN	NaN	NaN	NaN	NaN	NaN	NaN	NaN	NaN	NaN	NaN	NaN
820.9273375000002	0.3003	sub-27	1	sequence	fixation	dot	NaN	NaN	NaN	NaN	NaN	NaN	NaN	NaN	NaN	NaN	NaN	NaN
821.2473265000008	0.1136	sub-27	1	sequence	stimulus	Schuh	NaN	NaN	512.0	NaN	NaN	4.0	1.0	NaN	NaN	NaN	NaN	NaN
821.3609616000003	0.5173	sub-27	1	sequence	interval	dot	NaN	NaN	NaN	NaN	NaN	NaN	NaN	NaN	NaN	NaN	NaN	NaN
821.8782125000007	0.1	sub-27	1	sequence	stimulus	Gesicht	NaN	NaN	512.0	NaN	NaN	1.0	2.0	NaN	NaN	NaN	NaN	NaN
821.9782028	0.5172	sub-27	1	sequence	interval	dot	NaN	NaN	NaN	NaN	NaN	NaN	NaN	NaN	NaN	NaN	NaN	NaN
822.4954021000003	0.1	sub-27	1	sequence	stimulus	Haus	NaN	NaN	512.0	NaN	NaN	2.0	3.0	NaN	NaN	NaN	NaN	NaN
822.595378	0.5171	sub-27	1	sequence	interval	dot	NaN	NaN	NaN	NaN	NaN	NaN	NaN	NaN	NaN	NaN	NaN	NaN
823.1124984000007	0.1	sub-27	1	sequence	stimulus	Stuhl	NaN	NaN	512.0	NaN	NaN	5.0	4.0	NaN	NaN	NaN	NaN	NaN
823.2124626000004	0.5173	sub-27	1	sequence	interval	dot	NaN	NaN	NaN	NaN	NaN	NaN	NaN	NaN	NaN	NaN	NaN	NaN
823.7297424000008	0.0999	sub-27	1	sequence	stimulus	Katze	NaN	NaN	512.0	NaN	NaN	3.0	5.0	NaN	NaN	NaN	NaN	NaN
823.8296377000006	0.5171	sub-27	1	sequence	interval	dot	NaN	NaN	NaN	NaN	NaN	NaN	NaN	NaN	NaN	NaN	NaN	NaN
824.3467063000007	6.1533	sub-27	1	sequence	delay	dot	NaN	NaN	NaN	NaN	NaN	NaN	NaN	NaN	NaN	NaN	NaN	NaN
830.4780490000003	0.8914	sub-27	1	sequence	choice	choice	left	NaN	NaN	0.8599600000006831	True	NaN	NaN	left	True	4.0	2.0	4.0
831.3696987000003	0.5	sub-27	1	sequence	feedback	NaN	NaN	NaN	NaN	NaN	NaN	NaN	NaN	NaN	NaN	NaN	NaN	NaN
831.8699671000004	1.0171	sub-27	1	sequence	cue	Katze	NaN	NaN	NaN	NaN	NaN	NaN	NaN	NaN	NaN	NaN	NaN	NaN
832.8871096000003	1.985	sub-27	1	sequence	blank	blank	NaN	NaN	NaN	NaN	NaN	NaN	NaN	NaN	NaN	NaN	NaN	NaN
834.8721266000002	0.3001	sub-27	1	sequence	fixation	dot	NaN	NaN	NaN	NaN	NaN	NaN	NaN	NaN	NaN	NaN	NaN	NaN
835.1896850000003	0.0993	sub-27	1	sequence	stimulus	Stuhl	NaN	NaN	64.0	NaN	NaN	5.0	1.0	NaN	NaN	NaN	NaN	NaN
835.2889705000007	0.0668	sub-27	1	sequence	interval	dot	NaN	NaN	NaN	NaN	NaN	NaN	NaN	NaN	NaN	NaN	NaN	NaN
835.3557944000004	0.1	sub-27	1	sequence	stimulus	Gesicht	NaN	NaN	64.0	NaN	NaN	1.0	2.0	NaN	NaN	NaN	NaN	NaN
835.4557922000004	0.0668	sub-27	1	sequence	interval	dot	NaN	NaN	NaN	NaN	NaN	NaN	NaN	NaN	NaN	NaN	NaN	NaN
835.5225788000007	0.0999	sub-27	1	sequence	stimulus	Schuh	NaN	NaN	64.0	NaN	NaN	4.0	3.0	NaN	NaN	NaN	NaN	NaN
835.6225122000005	0.0669	sub-27	1	sequence	interval	dot	NaN	NaN	NaN	NaN	NaN	NaN	NaN	NaN	NaN	NaN	NaN	NaN
835.6894063	0.0999	sub-27	1	sequence	stimulus	Haus	NaN	NaN	64.0	NaN	NaN	2.0	4.0	NaN	NaN	NaN	NaN	NaN
835.7893305000007	0.0669	sub-27	1	sequence	interval	dot	NaN	NaN	NaN	NaN	NaN	NaN	NaN	NaN	NaN	NaN	NaN	NaN
835.8561931000004	0.0999	sub-27	1	sequence	stimulus	Katze	NaN	NaN	64.0	NaN	NaN	3.0	5.0	NaN	NaN	NaN	NaN	NaN
835.9561311000007	0.0667	sub-27	1	sequence	interval	dot	NaN	NaN	NaN	NaN	NaN	NaN	NaN	NaN	NaN	NaN	NaN	NaN
836.0228338000006	8.3881	sub-27	1	sequence	delay	dot	NaN	NaN	NaN	NaN	NaN	NaN	NaN	NaN	NaN	NaN	NaN	NaN
844.3877179000001	0.8094	sub-27	1	sequence	choice	choice	right	NaN	NaN	0.7731149000001096	True	NaN	NaN	right	True	1.0	5.0	5.0
845.1973938000001	0.5	sub-27	1	sequence	feedback	NaN	NaN	NaN	NaN	NaN	NaN	NaN	NaN	NaN	NaN	NaN	NaN	NaN
845.6977383000003	24.236	sub-27	1	other	break	break	NaN	NaN	NaN	NaN	NaN	NaN	NaN	NaN	NaN	NaN	NaN	NaN
873.7542428000006	0.4997	sub-27	1	localizer	stimulus	Schuh	NaN	0	2.2851308999997855	NaN	True	NaN	NaN	NaN	NaN	NaN	NaN	NaN
874.2539837000004	2.2851	sub-27	1	localizer	blank	interval	NaN	NaN	NaN	NaN	NaN	NaN	NaN	NaN	NaN	NaN	NaN	NaN
876.8401938000006	0.4993	sub-27	1	localizer	stimulus	Schuh	NaN	180	2.818808899999567	0.6637851000004957	True	NaN	NaN	NaN	NaN	NaN	NaN	NaN
877.3230829000004	2.8188	sub-27	1	localizer	blank	interval	NaN	NaN	NaN	NaN	NaN	NaN	NaN	NaN	NaN	NaN	NaN	NaN
880.4429734000005	0.4995	sub-27	1	localizer	stimulus	Haus	NaN	0	1.8179172000000108	NaN	True	NaN	NaN	NaN	NaN	NaN	NaN	NaN
880.9260113	1.8179	sub-27	1	localizer	blank	interval	NaN	NaN	NaN	NaN	NaN	NaN	NaN	NaN	NaN	NaN	NaN	NaN
883.0450297000007	0.4996	sub-27	1	localizer	stimulus	Katze	NaN	180	2.368438000000424	0.5787985999995726	True	NaN	NaN	NaN	NaN	NaN	NaN	NaN
883.5280701000001	2.3684	sub-27	1	localizer	blank	interval	NaN	NaN	NaN	NaN	NaN	NaN	NaN	NaN	NaN	NaN	NaN	NaN
886.1975643000005	0.4997	sub-27	1	localizer	stimulus	Schuh	NaN	0	2.585297499999797	NaN	True	NaN	NaN	NaN	NaN	NaN	NaN	NaN
886.6805780000004	2.5853	sub-27	1	localizer	blank	interval	NaN	NaN	NaN	NaN	NaN	NaN	NaN	NaN	NaN	NaN	NaN	NaN
889.5669872000008	0.4995	sub-27	1	localizer	stimulus	Katze	NaN	0	2.0848948000002565	NaN	True	NaN	NaN	NaN	NaN	NaN	NaN	NaN
890.0499790000003	2.0849	sub-27	1	localizer	blank	interval	NaN	NaN	NaN	NaN	NaN	NaN	NaN	NaN	NaN	NaN	NaN	NaN
892.4359715	0.4995	sub-27	1	localizer	stimulus	Stuhl	NaN	0	2.702209099999891	NaN	True	NaN	NaN	NaN	NaN	NaN	NaN	NaN
892.9189668000008	2.7022	sub-27	1	localizer	blank	interval	NaN	NaN	NaN	NaN	NaN	NaN	NaN	NaN	NaN	NaN	NaN	NaN
895.9388627000008	0.4996	sub-27	1	localizer	stimulus	Stuhl	NaN	0	1.3510058000001663	NaN	True	NaN	NaN	NaN	NaN	NaN	NaN	NaN
896.4052337000003	1.351	sub-27	1	localizer	blank	interval	NaN	NaN	NaN	NaN	NaN	NaN	NaN	NaN	NaN	NaN	NaN	NaN
898.0572132000007	0.4995	sub-27	1	localizer	stimulus	Katze	NaN	0	2.7353774000004023	NaN	True	NaN	NaN	NaN	NaN	NaN	NaN	NaN
898.5401975000004	2.7354	sub-27	1	localizer	blank	interval	NaN	NaN	NaN	NaN	NaN	NaN	NaN	NaN	NaN	NaN	NaN	NaN
901.5766843	0.4995	sub-27	1	localizer	stimulus	Katze	NaN	0	2.868855300000291	NaN	True	NaN	NaN	NaN	NaN	NaN	NaN	NaN
902.0596906	2.8689	sub-27	1	localizer	blank	interval	NaN	NaN	NaN	NaN	NaN	NaN	NaN	NaN	NaN	NaN	NaN	NaN
905.2296405000006	0.4996	sub-27	1	localizer	stimulus	Gesicht	NaN	0	2.3850691999995206	NaN	True	NaN	NaN	NaN	NaN	NaN	NaN	NaN
905.7126891000008	2.3851	sub-27	1	localizer	blank	interval	NaN	NaN	NaN	NaN	NaN	NaN	NaN	NaN	NaN	NaN	NaN	NaN
908.3988768	0.4995	sub-27	1	localizer	stimulus	Haus	NaN	180	2.101525400000355	0.6249791000000187	True	NaN	NaN	NaN	NaN	NaN	NaN	NaN
908.8818938000004	2.1015	sub-27	1	localizer	blank	interval	NaN	NaN	NaN	NaN	NaN	NaN	NaN	NaN	NaN	NaN	NaN	NaN
911.2845510000006	0.4995	sub-27	1	localizer	stimulus	Schuh	NaN	0	1.9514002000004211	NaN	True	NaN	NaN	NaN	NaN	NaN	NaN	NaN
911.7675737	1.9514	sub-27	1	localizer	blank	interval	NaN	NaN	NaN	NaN	NaN	NaN	NaN	NaN	NaN	NaN	NaN	NaN
914.0201245000007	0.4995	sub-27	1	localizer	stimulus	Stuhl	NaN	0	3.169264699999985	NaN	True	NaN	NaN	NaN	NaN	NaN	NaN	NaN
914.5031224000004	3.1693	sub-27	1	localizer	blank	interval	NaN	NaN	NaN	NaN	NaN	NaN	NaN	NaN	NaN	NaN	NaN	NaN
917.9735049	0.4995	sub-27	1	localizer	stimulus	Gesicht	NaN	0	2.3348150000000487	NaN	True	NaN	NaN	NaN	NaN	NaN	NaN	NaN
918.4565294000004	2.3348	sub-27	1	localizer	blank	interval	NaN	NaN	NaN	NaN	NaN	NaN	NaN	NaN	NaN	NaN	NaN	NaN
921.0924819000002	0.4995	sub-27	1	localizer	stimulus	Schuh	NaN	0	2.2016380999996272	NaN	True	NaN	NaN	NaN	NaN	NaN	NaN	NaN
921.5754910000004	2.2016	sub-27	1	localizer	blank	interval	NaN	NaN	NaN	NaN	NaN	NaN	NaN	NaN	NaN	NaN	NaN	NaN
924.0782103	0.4996	sub-27	1	localizer	stimulus	Gesicht	NaN	180	2.7853549999998677	0.6576522000004843	True	NaN	NaN	NaN	NaN	NaN	NaN	NaN
924.5613102000008	2.7854	sub-27	1	localizer	blank	interval	NaN	NaN	NaN	NaN	NaN	NaN	NaN	NaN	NaN	NaN	NaN	NaN
927.6477822000006	0.4995	sub-27	1	localizer	stimulus	Gesicht	NaN	0	2.868896100000825	NaN	True	NaN	NaN	NaN	NaN	NaN	NaN	NaN
928.1307539	2.8689	sub-27	1	localizer	blank	interval	NaN	NaN	NaN	NaN	NaN	NaN	NaN	NaN	NaN	NaN	NaN	NaN
931.3007021000004	0.4995	sub-27	1	localizer	stimulus	Katze	NaN	0	2.5686220000008007	NaN	True	NaN	NaN	NaN	NaN	NaN	NaN	NaN
931.7837171	2.5686	sub-27	1	localizer	blank	interval	NaN	NaN	NaN	NaN	NaN	NaN	NaN	NaN	NaN	NaN	NaN	NaN
934.6535013000002	0.4995	sub-27	1	localizer	stimulus	Haus	NaN	0	2.718946599999981	NaN	True	NaN	NaN	NaN	NaN	NaN	NaN	NaN
935.1364434000006	2.7189	sub-27	1	localizer	blank	interval	NaN	NaN	NaN	NaN	NaN	NaN	NaN	NaN	NaN	NaN	NaN	NaN
938.1564776000004	0.4996	sub-27	1	localizer	stimulus	Haus	NaN	0	1.500840899999389	NaN	True	NaN	NaN	NaN	NaN	NaN	NaN	NaN
938.6394647000006	1.5008	sub-27	1	localizer	blank	interval	NaN	NaN	NaN	NaN	NaN	NaN	NaN	NaN	NaN	NaN	NaN	NaN
940.4413924	0.4996	sub-27	1	localizer	stimulus	Stuhl	NaN	0	3.502646499999969	NaN	True	NaN	NaN	NaN	NaN	NaN	NaN	NaN
940.9244728000004	3.5026	sub-27	1	localizer	blank	interval	NaN	NaN	NaN	NaN	NaN	NaN	NaN	NaN	NaN	NaN	NaN	NaN
944.7282679	0.4996	sub-27	1	localizer	stimulus	Haus	NaN	0	2.5851885000001857	NaN	True	NaN	NaN	NaN	NaN	NaN	NaN	NaN
945.2113180000006	2.5852	sub-27	1	localizer	blank	interval	NaN	NaN	NaN	NaN	NaN	NaN	NaN	NaN	NaN	NaN	NaN	NaN
948.0976056	0.4995	sub-27	1	localizer	stimulus	Gesicht	NaN	0	2.4351421999998593	NaN	True	NaN	NaN	NaN	NaN	NaN	NaN	NaN
948.5806141000004	2.4351	sub-27	1	localizer	blank	interval	NaN	NaN	NaN	NaN	NaN	NaN	NaN	NaN	NaN	NaN	NaN	NaN
951.3168800000004	0.4996	sub-27	1	localizer	stimulus	Stuhl	NaN	180	2.0849217000003364	0.7790430999993987	True	NaN	NaN	NaN	NaN	NaN	NaN	NaN
951.7999188000005	2.0849	sub-27	1	localizer	blank	interval	NaN	NaN	NaN	NaN	NaN	NaN	NaN	NaN	NaN	NaN	NaN	NaN
957.3713706000008	1.0005	sub-27	1	sequence	cue	Stuhl	NaN	NaN	NaN	NaN	NaN	NaN	NaN	NaN	NaN	NaN	NaN	NaN
958.3719041000004	2.0017	sub-27	1	sequence	blank	blank	NaN	NaN	NaN	NaN	NaN	NaN	NaN	NaN	NaN	NaN	NaN	NaN
960.3735834	0.3002	sub-27	1	sequence	fixation	dot	NaN	NaN	NaN	NaN	NaN	NaN	NaN	NaN	NaN	NaN	NaN	NaN
960.6912819	0.0992	sub-27	1	sequence	stimulus	Haus	NaN	NaN	512.0	NaN	NaN	2.0	1.0	NaN	NaN	NaN	NaN	NaN
960.7904641000003	0.5173	sub-27	1	sequence	interval	dot	NaN	NaN	NaN	NaN	NaN	NaN	NaN	NaN	NaN	NaN	NaN	NaN
961.3077153000004	0.0998	sub-27	1	sequence	stimulus	Schuh	NaN	NaN	512.0	NaN	NaN	4.0	2.0	NaN	NaN	NaN	NaN	NaN
961.4075266	0.5172	sub-27	1	sequence	interval	dot	NaN	NaN	NaN	NaN	NaN	NaN	NaN	NaN	NaN	NaN	NaN	NaN
961.9247742000008	0.0999	sub-27	1	sequence	stimulus	Gesicht	NaN	NaN	512.0	NaN	NaN	1.0	3.0	NaN	NaN	NaN	NaN	NaN
962.0246616000004	0.5172	sub-27	1	sequence	interval	dot	NaN	NaN	NaN	NaN	NaN	NaN	NaN	NaN	NaN	NaN	NaN	NaN
962.5419116000004	0.0999	sub-27	1	sequence	stimulus	Stuhl	NaN	NaN	512.0	NaN	NaN	5.0	4.0	NaN	NaN	NaN	NaN	NaN
962.6418341000008	0.5173	sub-27	1	sequence	interval	dot	NaN	NaN	NaN	NaN	NaN	NaN	NaN	NaN	NaN	NaN	NaN	NaN
963.1591381000007	0.0999	sub-27	1	sequence	stimulus	Katze	NaN	NaN	512.0	NaN	NaN	3.0	5.0	NaN	NaN	NaN	NaN	NaN
963.2589957	0.5171	sub-27	1	sequence	interval	dot	NaN	NaN	NaN	NaN	NaN	NaN	NaN	NaN	NaN	NaN	NaN	NaN
963.7760919000002	6.1531	sub-27	1	sequence	delay	dot	NaN	NaN	NaN	NaN	NaN	NaN	NaN	NaN	NaN	NaN	NaN	NaN
969.9129771000008	0.7022	sub-27	1	sequence	choice	choice	left	NaN	NaN	0.6706537000000026	True	NaN	NaN	left	True	4.0	2.0	4.0
970.6155321000006	0.4999	sub-27	1	sequence	feedback	NaN	NaN	NaN	NaN	NaN	NaN	NaN	NaN	NaN	NaN	NaN	NaN	NaN
971.1155553000008	1.0006	sub-27	1	sequence	cue	Schuh	NaN	NaN	NaN	NaN	NaN	NaN	NaN	NaN	NaN	NaN	NaN	NaN
972.1161624000006	2.0017	sub-27	1	sequence	blank	blank	NaN	NaN	NaN	NaN	NaN	NaN	NaN	NaN	NaN	NaN	NaN	NaN
974.1178669	0.3002	sub-27	1	sequence	fixation	dot	NaN	NaN	NaN	NaN	NaN	NaN	NaN	NaN	NaN	NaN	NaN	NaN
974.4367494000008	0.1147	sub-27	1	sequence	stimulus	Katze	NaN	NaN	128.0	NaN	NaN	3.0	1.0	NaN	NaN	NaN	NaN	NaN
974.5514606000006	0.1337	sub-27	1	sequence	interval	dot	NaN	NaN	NaN	NaN	NaN	NaN	NaN	NaN	NaN	NaN	NaN	NaN
974.6851194	0.0999	sub-27	1	sequence	stimulus	Haus	NaN	NaN	128.0	NaN	NaN	2.0	2.0	NaN	NaN	NaN	NaN	NaN
974.7849860000006	0.1336	sub-27	1	sequence	interval	dot	NaN	NaN	NaN	NaN	NaN	NaN	NaN	NaN	NaN	NaN	NaN	NaN
974.9186147	0.0999	sub-27	1	sequence	stimulus	Gesicht	NaN	NaN	128.0	NaN	NaN	1.0	3.0	NaN	NaN	NaN	NaN	NaN
975.0184946	0.1336	sub-27	1	sequence	interval	dot	NaN	NaN	NaN	NaN	NaN	NaN	NaN	NaN	NaN	NaN	NaN	NaN
975.1521115000004	0.0999	sub-27	1	sequence	stimulus	Stuhl	NaN	NaN	128.0	NaN	NaN	5.0	4.0	NaN	NaN	NaN	NaN	NaN
975.2520324000006	0.1336	sub-27	1	sequence	interval	dot	NaN	NaN	NaN	NaN	NaN	NaN	NaN	NaN	NaN	NaN	NaN	NaN
975.3856314000004	0.0999	sub-27	1	sequence	stimulus	Schuh	NaN	NaN	128.0	NaN	NaN	4.0	5.0	NaN	NaN	NaN	NaN	NaN
975.4855534000008	0.1335	sub-27	1	sequence	interval	dot	NaN	NaN	NaN	NaN	NaN	NaN	NaN	NaN	NaN	NaN	NaN	NaN
975.6190542000004	8.0714	sub-27	1	sequence	delay	dot	NaN	NaN	NaN	NaN	NaN	NaN	NaN	NaN	NaN	NaN	NaN	NaN
983.6667135000008	0.6095	sub-27	1	sequence	choice	choice	right	NaN	NaN	0.5813781999995626	True	NaN	NaN	right	True	4.0	5.0	5.0
984.2764607	0.5	sub-27	1	sequence	feedback	NaN	NaN	NaN	NaN	NaN	NaN	NaN	NaN	NaN	NaN	NaN	NaN	NaN
984.7766947	1.0007	sub-27	1	sequence	cue	Gesicht	NaN	NaN	NaN	NaN	NaN	NaN	NaN	NaN	NaN	NaN	NaN	NaN
985.7773883	2.0014	sub-27	1	sequence	blank	blank	NaN	NaN	NaN	NaN	NaN	NaN	NaN	NaN	NaN	NaN	NaN	NaN
987.778843	0.3002	sub-27	1	sequence	fixation	dot	NaN	NaN	NaN	NaN	NaN	NaN	NaN	NaN	NaN	NaN	NaN	NaN
988.0973654	0.1151	sub-27	1	sequence	stimulus	Schuh	NaN	NaN	128.0	NaN	NaN	4.0	1.0	NaN	NaN	NaN	NaN	NaN
988.2125113000002	0.1336	sub-27	1	sequence	interval	dot	NaN	NaN	NaN	NaN	NaN	NaN	NaN	NaN	NaN	NaN	NaN	NaN
988.3461283000006	0.0999	sub-27	1	sequence	stimulus	Katze	NaN	NaN	128.0	NaN	NaN	3.0	2.0	NaN	NaN	NaN	NaN	NaN
988.4460329000004	0.1336	sub-27	1	sequence	interval	dot	NaN	NaN	NaN	NaN	NaN	NaN	NaN	NaN	NaN	NaN	NaN	NaN
988.5796562000004	0.0999	sub-27	1	sequence	stimulus	Haus	NaN	NaN	128.0	NaN	NaN	2.0	3.0	NaN	NaN	NaN	NaN	NaN
988.6795612000004	0.1336	sub-27	1	sequence	interval	dot	NaN	NaN	NaN	NaN	NaN	NaN	NaN	NaN	NaN	NaN	NaN	NaN
988.8131879000002	0.0999	sub-27	1	sequence	stimulus	Gesicht	NaN	NaN	128.0	NaN	NaN	1.0	4.0	NaN	NaN	NaN	NaN	NaN
988.9130806000004	0.1336	sub-27	1	sequence	interval	dot	NaN	NaN	NaN	NaN	NaN	NaN	NaN	NaN	NaN	NaN	NaN	NaN
989.0466807000004	0.0999	sub-27	1	sequence	stimulus	Stuhl	NaN	NaN	128.0	NaN	NaN	5.0	5.0	NaN	NaN	NaN	NaN	NaN
989.1465967000004	0.1335	sub-27	1	sequence	interval	dot	NaN	NaN	NaN	NaN	NaN	NaN	NaN	NaN	NaN	NaN	NaN	NaN
989.2800594	8.0548	sub-27	1	sequence	delay	dot	NaN	NaN	NaN	NaN	NaN	NaN	NaN	NaN	NaN	NaN	NaN	NaN
997.3163624000008	0.7209	sub-27	1	sequence	choice	choice	left	NaN	NaN	0.6889975999993112	True	NaN	NaN	left	True	4.0	3.0	4.0
998.0375478000004	0.5001	sub-27	1	sequence	feedback	NaN	NaN	NaN	NaN	NaN	NaN	NaN	NaN	NaN	NaN	NaN	NaN	NaN
998.5378231000004	1.0007	sub-27	1	sequence	cue	Stuhl	NaN	NaN	NaN	NaN	NaN	NaN	NaN	NaN	NaN	NaN	NaN	NaN
999.5385567000004	2.0016	sub-27	1	sequence	blank	blank	NaN	NaN	NaN	NaN	NaN	NaN	NaN	NaN	NaN	NaN	NaN	NaN
1001.5401826000008	0.3003	sub-27	1	sequence	fixation	dot	NaN	NaN	NaN	NaN	NaN	NaN	NaN	NaN	NaN	NaN	NaN	NaN
1001.8579289	0.0993	sub-27	1	sequence	stimulus	Schuh	NaN	NaN	512.0	NaN	NaN	4.0	1.0	NaN	NaN	NaN	NaN	NaN
1001.9572241000004	0.5172	sub-27	1	sequence	interval	dot	NaN	NaN	NaN	NaN	NaN	NaN	NaN	NaN	NaN	NaN	NaN	NaN
1002.4743928000008	0.0999	sub-27	1	sequence	stimulus	Gesicht	NaN	NaN	512.0	NaN	NaN	1.0	2.0	NaN	NaN	NaN	NaN	NaN
1002.5743202000004	0.5171	sub-27	1	sequence	interval	dot	NaN	NaN	NaN	NaN	NaN	NaN	NaN	NaN	NaN	NaN	NaN	NaN
1003.0913915	0.0999	sub-27	1	sequence	stimulus	Haus	NaN	NaN	512.0	NaN	NaN	2.0	3.0	NaN	NaN	NaN	NaN	NaN
1003.1913020000002	0.5173	sub-27	1	sequence	interval	dot	NaN	NaN	NaN	NaN	NaN	NaN	NaN	NaN	NaN	NaN	NaN	NaN
1003.7086162000004	0.0999	sub-27	1	sequence	stimulus	Stuhl	NaN	NaN	512.0	NaN	NaN	5.0	4.0	NaN	NaN	NaN	NaN	NaN
1003.8084991000004	0.5172	sub-27	1	sequence	interval	dot	NaN	NaN	NaN	NaN	NaN	NaN	NaN	NaN	NaN	NaN	NaN	NaN
1004.3256943000006	0.1	sub-27	1	sequence	stimulus	Katze	NaN	NaN	512.0	NaN	NaN	3.0	5.0	NaN	NaN	NaN	NaN	NaN
1004.4256632000006	0.5184	sub-27	1	sequence	interval	dot	NaN	NaN	NaN	NaN	NaN	NaN	NaN	NaN	NaN	NaN	NaN	NaN
1004.944034	6.1518	sub-27	1	sequence	delay	dot	NaN	NaN	NaN	NaN	NaN	NaN	NaN	NaN	NaN	NaN	NaN	NaN
1011.0700429000008	0.7951	sub-27	1	sequence	choice	choice	left	NaN	NaN	0.7679954999994152	True	NaN	NaN	left	True	4.0	5.0	4.0
1011.8654305	0.5	sub-27	1	sequence	feedback	NaN	NaN	NaN	NaN	NaN	NaN	NaN	NaN	NaN	NaN	NaN	NaN	NaN
1012.3655729000002	1.0007	sub-27	1	sequence	cue	Stuhl	NaN	NaN	NaN	NaN	NaN	NaN	NaN	NaN	NaN	NaN	NaN	NaN
1013.3662497000004	2.0016	sub-27	1	sequence	blank	blank	NaN	NaN	NaN	NaN	NaN	NaN	NaN	NaN	NaN	NaN	NaN	NaN
1015.3678147	0.3002	sub-27	1	sequence	fixation	dot	NaN	NaN	NaN	NaN	NaN	NaN	NaN	NaN	NaN	NaN	NaN	NaN
1015.6857499000008	0.0991	sub-27	1	sequence	stimulus	Haus	NaN	NaN	64.0	NaN	NaN	2.0	1.0	NaN	NaN	NaN	NaN	NaN
1015.7848030000004	0.0669	sub-27	1	sequence	interval	dot	NaN	NaN	NaN	NaN	NaN	NaN	NaN	NaN	NaN	NaN	NaN	NaN
1015.8516854	0.0999	sub-27	1	sequence	stimulus	Katze	NaN	NaN	64.0	NaN	NaN	3.0	2.0	NaN	NaN	NaN	NaN	NaN
1015.9516052000008	0.0669	sub-27	1	sequence	interval	dot	NaN	NaN	NaN	NaN	NaN	NaN	NaN	NaN	NaN	NaN	NaN	NaN
1016.0185054000004	0.0999	sub-27	1	sequence	stimulus	Schuh	NaN	NaN	64.0	NaN	NaN	4.0	3.0	NaN	NaN	NaN	NaN	NaN
1016.1184223	0.0669	sub-27	1	sequence	interval	dot	NaN	NaN	NaN	NaN	NaN	NaN	NaN	NaN	NaN	NaN	NaN	NaN
1016.1852727000004	0.0999	sub-27	1	sequence	stimulus	Stuhl	NaN	NaN	64.0	NaN	NaN	5.0	4.0	NaN	NaN	NaN	NaN	NaN
1016.2852010000006	0.0669	sub-27	1	sequence	interval	dot	NaN	NaN	NaN	NaN	NaN	NaN	NaN	NaN	NaN	NaN	NaN	NaN
1016.3520940000008	0.0999	sub-27	1	sequence	stimulus	Gesicht	NaN	NaN	64.0	NaN	NaN	1.0	5.0	NaN	NaN	NaN	NaN	NaN
1016.4519838000006	0.0668	sub-27	1	sequence	interval	dot	NaN	NaN	NaN	NaN	NaN	NaN	NaN	NaN	NaN	NaN	NaN	NaN
1016.5187374000006	8.3717	sub-27	1	sequence	delay	dot	NaN	NaN	NaN	NaN	NaN	NaN	NaN	NaN	NaN	NaN	NaN	NaN
1024.8757571000006	0.834	sub-27	1	sequence	choice	choice	left	NaN	NaN	0.8055363000003126	True	NaN	NaN	left	True	4.0	3.0	4.0
1025.7099955000003	0.5	sub-27	1	sequence	feedback	NaN	NaN	NaN	NaN	NaN	NaN	NaN	NaN	NaN	NaN	NaN	NaN	NaN
1026.2100835	1.0007	sub-27	1	sequence	cue	Gesicht	NaN	NaN	NaN	NaN	NaN	NaN	NaN	NaN	NaN	NaN	NaN	NaN
1027.2107720000004	2.0016	sub-27	1	sequence	blank	blank	NaN	NaN	NaN	NaN	NaN	NaN	NaN	NaN	NaN	NaN	NaN	NaN
1029.2123853000005	0.3003	sub-27	1	sequence	fixation	dot	NaN	NaN	NaN	NaN	NaN	NaN	NaN	NaN	NaN	NaN	NaN	NaN
1029.5309413000004	0.1151	sub-27	1	sequence	stimulus	Katze	NaN	NaN	32.0	NaN	NaN	3.0	1.0	NaN	NaN	NaN	NaN	NaN
1029.6460059	0.0335	sub-27	1	sequence	interval	dot	NaN	NaN	NaN	NaN	NaN	NaN	NaN	NaN	NaN	NaN	NaN	NaN
1029.6795468	0.0999	sub-27	1	sequence	stimulus	Schuh	NaN	NaN	32.0	NaN	NaN	4.0	2.0	NaN	NaN	NaN	NaN	NaN
1029.7794749000004	0.0335	sub-27	1	sequence	interval	dot	NaN	NaN	NaN	NaN	NaN	NaN	NaN	NaN	NaN	NaN	NaN	NaN
1029.8130185	0.0999	sub-27	1	sequence	stimulus	Haus	NaN	NaN	32.0	NaN	NaN	2.0	3.0	NaN	NaN	NaN	NaN	NaN
1029.9128922	0.0335	sub-27	1	sequence	interval	dot	NaN	NaN	NaN	NaN	NaN	NaN	NaN	NaN	NaN	NaN	NaN	NaN
1029.9464095000003	0.0999	sub-27	1	sequence	stimulus	Stuhl	NaN	NaN	32.0	NaN	NaN	5.0	4.0	NaN	NaN	NaN	NaN	NaN
1030.0463442	0.0335	sub-27	1	sequence	interval	dot	NaN	NaN	NaN	NaN	NaN	NaN	NaN	NaN	NaN	NaN	NaN	NaN
1030.0798749000005	0.0999	sub-27	1	sequence	stimulus	Gesicht	NaN	NaN	32.0	NaN	NaN	1.0	5.0	NaN	NaN	NaN	NaN	NaN
1030.1797653000003	0.0334	sub-27	1	sequence	interval	dot	NaN	NaN	NaN	NaN	NaN	NaN	NaN	NaN	NaN	NaN	NaN	NaN
1030.2131365000005	8.5386	sub-27	1	sequence	delay	dot	NaN	NaN	NaN	NaN	NaN	NaN	NaN	NaN	NaN	NaN	NaN	NaN
1038.7334473	0.8041	sub-27	1	sequence	choice	choice	right	NaN	NaN	0.7841126000002987	True	NaN	NaN	right	True	1.0	5.0	5.0
1039.5378229000007	0.5	sub-27	1	sequence	feedback	NaN	NaN	NaN	NaN	NaN	NaN	NaN	NaN	NaN	NaN	NaN	NaN	NaN
1040.0380683000003	1.0007	sub-27	1	sequence	cue	Katze	NaN	NaN	NaN	NaN	NaN	NaN	NaN	NaN	NaN	NaN	NaN	NaN
1041.0387471000004	2.0016	sub-27	1	sequence	blank	blank	NaN	NaN	NaN	NaN	NaN	NaN	NaN	NaN	NaN	NaN	NaN	NaN
1043.0403399000006	0.3004	sub-27	1	sequence	fixation	dot	NaN	NaN	NaN	NaN	NaN	NaN	NaN	NaN	NaN	NaN	NaN	NaN
1043.358134	0.0993	sub-27	1	sequence	stimulus	Stuhl	NaN	NaN	64.0	NaN	NaN	5.0	1.0	NaN	NaN	NaN	NaN	NaN
1043.4574049000005	0.0668	sub-27	1	sequence	interval	dot	NaN	NaN	NaN	NaN	NaN	NaN	NaN	NaN	NaN	NaN	NaN	NaN
1043.5242430000008	0.1001	sub-27	1	sequence	stimulus	Gesicht	NaN	NaN	64.0	NaN	NaN	1.0	2.0	NaN	NaN	NaN	NaN	NaN
1043.6243169	0.0667	sub-27	1	sequence	interval	dot	NaN	NaN	NaN	NaN	NaN	NaN	NaN	NaN	NaN	NaN	NaN	NaN
1043.6910613	0.1	sub-27	1	sequence	stimulus	Schuh	NaN	NaN	64.0	NaN	NaN	4.0	3.0	NaN	NaN	NaN	NaN	NaN
1043.7910554	0.0668	sub-27	1	sequence	interval	dot	NaN	NaN	NaN	NaN	NaN	NaN	NaN	NaN	NaN	NaN	NaN	NaN
1043.8578824000006	0.0999	sub-27	1	sequence	stimulus	Haus	NaN	NaN	64.0	NaN	NaN	2.0	4.0	NaN	NaN	NaN	NaN	NaN
1043.9578288000002	0.0668	sub-27	1	sequence	interval	dot	NaN	NaN	NaN	NaN	NaN	NaN	NaN	NaN	NaN	NaN	NaN	NaN
1044.0246247000005	0.1	sub-27	1	sequence	stimulus	Katze	NaN	NaN	64.0	NaN	NaN	3.0	5.0	NaN	NaN	NaN	NaN	NaN
1044.1246393	0.0667	sub-27	1	sequence	interval	dot	NaN	NaN	NaN	NaN	NaN	NaN	NaN	NaN	NaN	NaN	NaN	NaN
1044.1913288000003	8.3882	sub-27	1	sequence	delay	dot	NaN	NaN	NaN	NaN	NaN	NaN	NaN	NaN	NaN	NaN	NaN	NaN
1052.5651542000005	0.8669	sub-27	1	sequence	choice	choice	right	NaN	NaN	0.8522831999998743	True	NaN	NaN	right	True	2.0	5.0	5.0
1053.4321886000007	0.5001	sub-27	1	sequence	feedback	NaN	NaN	NaN	NaN	NaN	NaN	NaN	NaN	NaN	NaN	NaN	NaN	NaN
1053.9324702000004	1.0007	sub-27	1	sequence	cue	Schuh	NaN	NaN	NaN	NaN	NaN	NaN	NaN	NaN	NaN	NaN	NaN	NaN
1054.9331730000004	2.0016	sub-27	1	sequence	blank	blank	NaN	NaN	NaN	NaN	NaN	NaN	NaN	NaN	NaN	NaN	NaN	NaN
1056.9347951	0.3002	sub-27	1	sequence	fixation	dot	NaN	NaN	NaN	NaN	NaN	NaN	NaN	NaN	NaN	NaN	NaN	NaN
1057.2535043000007	0.1149	sub-27	1	sequence	stimulus	Stuhl	NaN	NaN	32.0	NaN	NaN	5.0	1.0	NaN	NaN	NaN	NaN	NaN
1057.3684293000006	0.0335	sub-27	1	sequence	interval	dot	NaN	NaN	NaN	NaN	NaN	NaN	NaN	NaN	NaN	NaN	NaN	NaN
1057.4019588	0.0999	sub-27	1	sequence	stimulus	Katze	NaN	NaN	32.0	NaN	NaN	3.0	2.0	NaN	NaN	NaN	NaN	NaN
1057.5018795000003	0.0335	sub-27	1	sequence	interval	dot	NaN	NaN	NaN	NaN	NaN	NaN	NaN	NaN	NaN	NaN	NaN	NaN
1057.535385	0.0999	sub-27	1	sequence	stimulus	Schuh	NaN	NaN	32.0	NaN	NaN	4.0	3.0	NaN	NaN	NaN	NaN	NaN
1057.6353263	0.0335	sub-27	1	sequence	interval	dot	NaN	NaN	NaN	NaN	NaN	NaN	NaN	NaN	NaN	NaN	NaN	NaN
1057.6688541000003	0.0999	sub-27	1	sequence	stimulus	Haus	NaN	NaN	32.0	NaN	NaN	2.0	4.0	NaN	NaN	NaN	NaN	NaN
1057.7688023	0.0335	sub-27	1	sequence	interval	dot	NaN	NaN	NaN	NaN	NaN	NaN	NaN	NaN	NaN	NaN	NaN	NaN
1057.8022692000004	0.0999	sub-27	1	sequence	stimulus	Gesicht	NaN	NaN	32.0	NaN	NaN	1.0	5.0	NaN	NaN	NaN	NaN	NaN
1057.9021833000006	0.0334	sub-27	1	sequence	interval	dot	NaN	NaN	NaN	NaN	NaN	NaN	NaN	NaN	NaN	NaN	NaN	NaN
1057.9355402	8.5385	sub-27	1	sequence	delay	dot	NaN	NaN	NaN	NaN	NaN	NaN	NaN	NaN	NaN	NaN	NaN	NaN
1066.4488329000003	0.7445	sub-27	1	sequence	choice	choice	right	NaN	NaN	0.7097781000002215	True	NaN	NaN	right	True	4.0	3.0	3.0
1067.193574100001	0.4999	sub-27	1	sequence	feedback	NaN	NaN	NaN	NaN	NaN	NaN	NaN	NaN	NaN	NaN	NaN	NaN	NaN
1071.5140585	0.4997	sub-27	1	localizer	stimulus	Gesicht	NaN	0	2.752124399999957	NaN	True	NaN	NaN	NaN	NaN	NaN	NaN	NaN
1071.9971045000002	2.7521	sub-27	1	localizer	blank	interval	NaN	NaN	NaN	NaN	NaN	NaN	NaN	NaN	NaN	NaN	NaN	NaN
1075.0502377000005	0.4995	sub-27	1	localizer	stimulus	Gesicht	NaN	0	3.2524818000001687	NaN	True	NaN	NaN	NaN	NaN	NaN	NaN	NaN
1075.5332822	3.2525	sub-27	1	localizer	blank	interval	NaN	NaN	NaN	NaN	NaN	NaN	NaN	NaN	NaN	NaN	NaN	NaN
1079.0868580000006	0.4995	sub-27	1	localizer	stimulus	Schuh	NaN	0	2.601981699999669	NaN	True	NaN	NaN	NaN	NaN	NaN	NaN	NaN
1079.5698440000006	2.602	sub-27	1	localizer	blank	interval	NaN	NaN	NaN	NaN	NaN	NaN	NaN	NaN	NaN	NaN	NaN	NaN
1082.4730185000008	0.4996	sub-27	1	localizer	stimulus	Katze	NaN	0	2.2016802999994525	NaN	True	NaN	NaN	NaN	NaN	NaN	NaN	NaN
1082.9561025000005	2.2017	sub-27	1	localizer	blank	interval	NaN	NaN	NaN	NaN	NaN	NaN	NaN	NaN	NaN	NaN	NaN	NaN
1085.4588696	0.4997	sub-27	1	localizer	stimulus	Gesicht	NaN	180	2.6015965000005963	0.5969282000005478	True	NaN	NaN	NaN	NaN	NaN	NaN	NaN
1085.9420183000002	2.6016	sub-27	1	localizer	blank	interval	NaN	NaN	NaN	NaN	NaN	NaN	NaN	NaN	NaN	NaN	NaN	NaN
1088.8447563	0.4995	sub-27	1	localizer	stimulus	Haus	NaN	0	2.018096000000696	NaN	True	NaN	NaN	NaN	NaN	NaN	NaN	NaN
1089.3278946	2.0181	sub-27	1	localizer	blank	interval	NaN	NaN	NaN	NaN	NaN	NaN	NaN	NaN	NaN	NaN	NaN	NaN
1091.6469854000006	0.4996	sub-27	1	localizer	stimulus	Katze	NaN	0	2.735405399999763	NaN	True	NaN	NaN	NaN	NaN	NaN	NaN	NaN
1092.1299916000007	2.7354	sub-27	1	localizer	blank	interval	NaN	NaN	NaN	NaN	NaN	NaN	NaN	NaN	NaN	NaN	NaN	NaN
1095.1665140000005	0.4999	sub-27	1	localizer	stimulus	Schuh	NaN	180	3.0357707000002847	0.7371432999998433	True	NaN	NaN	NaN	NaN	NaN	NaN	NaN
1095.6495270000005	3.0358	sub-27	1	localizer	blank	interval	NaN	NaN	NaN	NaN	NaN	NaN	NaN	NaN	NaN	NaN	NaN	NaN
1098.9863046	0.4997	sub-27	1	localizer	stimulus	Haus	NaN	0	2.2350852999998096	NaN	True	NaN	NaN	NaN	NaN	NaN	NaN	NaN
1099.4693156000003	2.2351	sub-27	1	localizer	blank	interval	NaN	NaN	NaN	NaN	NaN	NaN	NaN	NaN	NaN	NaN	NaN	NaN
1102.0053630000002	0.4996	sub-27	1	localizer	stimulus	Stuhl	NaN	0	3.019074699999692	NaN	True	NaN	NaN	NaN	NaN	NaN	NaN	NaN
1102.4884509000003	3.0191	sub-27	1	localizer	blank	interval	NaN	NaN	NaN	NaN	NaN	NaN	NaN	NaN	NaN	NaN	NaN	NaN
1105.8085650000005	0.4996	sub-27	1	localizer	stimulus	Katze	NaN	0	2.1180356000004394	NaN	True	NaN	NaN	NaN	NaN	NaN	NaN	NaN
1106.2916679	2.118	sub-27	1	localizer	blank	interval	NaN	NaN	NaN	NaN	NaN	NaN	NaN	NaN	NaN	NaN	NaN	NaN
1108.7108196	0.4995	sub-27	1	localizer	stimulus	Katze	NaN	180	3.4527513000002727	0.6809381999992183	True	NaN	NaN	NaN	NaN	NaN	NaN	NaN
1109.1938565	3.4528	sub-27	1	localizer	blank	interval	NaN	NaN	NaN	NaN	NaN	NaN	NaN	NaN	NaN	NaN	NaN	NaN
1112.9476343000006	0.4995	sub-27	1	localizer	stimulus	Stuhl	NaN	0	3.018997600000148	NaN	True	NaN	NaN	NaN	NaN	NaN	NaN	NaN
1113.4306193000002	3.019	sub-27	1	localizer	blank	interval	NaN	NaN	NaN	NaN	NaN	NaN	NaN	NaN	NaN	NaN	NaN	NaN
1116.7506318000003	0.4996	sub-27	1	localizer	stimulus	Stuhl	NaN	0	2.0014635999996244	NaN	True	NaN	NaN	NaN	NaN	NaN	NaN	NaN
1117.2336521000009	2.0015	sub-27	1	localizer	blank	interval	NaN	NaN	NaN	NaN	NaN	NaN	NaN	NaN	NaN	NaN	NaN	NaN
1119.5362440000008	0.4997	sub-27	1	localizer	stimulus	Haus	NaN	0	3.1690794000007827	NaN	True	NaN	NaN	NaN	NaN	NaN	NaN	NaN
1120.0194123	3.1691	sub-27	1	localizer	blank	interval	NaN	NaN	NaN	NaN	NaN	NaN	NaN	NaN	NaN	NaN	NaN	NaN
