onset	duration	subject	session	condition	trial_type	stim_label	key_down	orientation	interval_time	response_time	accuracy	stim_index	serial_position	key_expected	key_pressed	choice_left	choice_right	choice_correct
1.2606720000003406	1.8442	sub-03	1	instruction	instruction	language_selection	german	NaN	NaN	NaN	NaN	NaN	NaN	NaN	NaN	NaN	NaN	NaN
37.75016730000061	0.4995	sub-03	1	localizer	stimulus	Gesicht	NaN	0	2.9188907999996445	NaN	1.0	NaN	NaN	NaN	NaN	NaN	NaN	NaN
38.23305310000069	2.9189	sub-03	1	localizer	blank	interval	NaN	NaN	NaN	NaN	NaN	NaN	NaN	NaN	NaN	NaN	NaN	NaN
41.45303310000054	0.4995	sub-03	1	localizer	stimulus	Schuh	NaN	180	2.8337814999995317	-9.684531699998844	True	NaN	NaN	NaN	NaN	NaN	NaN	NaN
41.93785900000057	2.8338	sub-03	1	localizer	blank	interval	NaN	NaN	NaN	NaN	NaN	NaN	NaN	NaN	NaN	NaN	NaN	NaN
45.07279070000004	0.4995	sub-03	1	localizer	stimulus	Stuhl	NaN	0	1.5009297000005972	NaN	True	NaN	NaN	NaN	NaN	NaN	NaN	NaN
45.55580009999994	1.5009	sub-03	1	localizer	blank	interval	NaN	NaN	NaN	NaN	NaN	NaN	NaN	NaN	NaN	NaN	NaN	NaN
47.35791599999993	0.4994	sub-03	1	localizer	stimulus	Katze	NaN	0	3.085610899999665	NaN	True	NaN	NaN	NaN	NaN	NaN	NaN	NaN
47.84083220000048	3.0856	sub-03	1	localizer	blank	interval	NaN	NaN	NaN	NaN	NaN	NaN	NaN	NaN	NaN	NaN	NaN	NaN
51.22755420000067	0.4999	sub-03	1	localizer	stimulus	Stuhl	NaN	0	2.2018246999996336	NaN	True	NaN	NaN	NaN	NaN	NaN	NaN	NaN
51.71044400000028	2.2018	sub-03	1	localizer	blank	interval	NaN	NaN	NaN	NaN	NaN	NaN	NaN	NaN	NaN	NaN	NaN	NaN
54.21331970000029	0.4995	sub-03	1	localizer	stimulus	Haus	NaN	0	2.435315400000036	NaN	True	NaN	NaN	NaN	NaN	NaN	NaN	NaN
54.69627130000026	2.4353	sub-03	1	localizer	blank	interval	NaN	NaN	NaN	NaN	NaN	NaN	NaN	NaN	NaN	NaN	NaN	NaN
57.43263810000008	0.4995	sub-03	1	localizer	stimulus	Stuhl	NaN	180	2.5686069000003044	-9.912060699999529	True	NaN	NaN	NaN	NaN	NaN	NaN	NaN
57.91559529999995	2.5686	sub-03	1	localizer	blank	interval	NaN	NaN	NaN	NaN	NaN	NaN	NaN	NaN	NaN	NaN	NaN	NaN
60.78531060000023	0.4996	sub-03	1	localizer	stimulus	Stuhl	NaN	0	2.2685069999997722	NaN	True	NaN	NaN	NaN	NaN	NaN	NaN	NaN
61.268216700000266	2.2685	sub-03	1	localizer	blank	interval	NaN	NaN	NaN	NaN	NaN	NaN	NaN	NaN	NaN	NaN	NaN	NaN
63.837897800000064	0.4995	sub-03	1	localizer	stimulus	Gesicht	NaN	180	1.9014679000001706	-9.860794399999577	True	NaN	NaN	NaN	NaN	NaN	NaN	NaN
64.32089390000056	1.9015	sub-03	1	localizer	blank	interval	NaN	NaN	NaN	NaN	NaN	NaN	NaN	NaN	NaN	NaN	NaN	NaN
66.52347770000051	0.4993	sub-03	1	localizer	stimulus	Gesicht	NaN	0	2.818793700000242	NaN	True	NaN	NaN	NaN	NaN	NaN	NaN	NaN
67.00625990000026	2.8188	sub-03	1	localizer	blank	interval	NaN	NaN	NaN	NaN	NaN	NaN	NaN	NaN	NaN	NaN	NaN	NaN
70.12622910000027	0.4995	sub-03	1	localizer	stimulus	Stuhl	NaN	0	2.168299599999955	NaN	True	NaN	NaN	NaN	NaN	NaN	NaN	NaN
70.60913410000012	2.1683	sub-03	1	localizer	blank	interval	NaN	NaN	NaN	NaN	NaN	NaN	NaN	NaN	NaN	NaN	NaN	NaN
73.07862400000067	0.4995	sub-03	1	localizer	stimulus	Schuh	NaN	0	2.601453600000241	NaN	True	NaN	NaN	NaN	NaN	NaN	NaN	NaN
73.56205150000005	2.6015	sub-03	1	localizer	blank	interval	NaN	NaN	NaN	NaN	NaN	NaN	NaN	NaN	NaN	NaN	NaN	NaN
76.46490850000009	0.4993	sub-03	1	localizer	stimulus	Haus	NaN	0	3.2692900000001828	NaN	True	NaN	NaN	NaN	NaN	NaN	NaN	NaN
76.94771500000024	3.2693	sub-03	1	localizer	blank	interval	NaN	NaN	NaN	NaN	NaN	NaN	NaN	NaN	NaN	NaN	NaN	NaN
80.51805670000067	0.4994	sub-03	1	localizer	stimulus	Haus	NaN	0	1.968096699999478	NaN	True	NaN	NaN	NaN	NaN	NaN	NaN	NaN
81.00095910000073	1.9681	sub-03	1	localizer	blank	interval	NaN	NaN	NaN	NaN	NaN	NaN	NaN	NaN	NaN	NaN	NaN	NaN
83.27036230000067	0.4993	sub-03	1	localizer	stimulus	Katze	NaN	180	2.335232100000212	-9.80502129999968	True	NaN	NaN	NaN	NaN	NaN	NaN	NaN
83.7531813000005	2.3352	sub-03	1	localizer	blank	interval	NaN	NaN	NaN	NaN	NaN	NaN	NaN	NaN	NaN	NaN	NaN	NaN
86.38961250000011	0.4996	sub-03	1	localizer	stimulus	Gesicht	NaN	0	2.401656699999876	NaN	True	NaN	NaN	NaN	NaN	NaN	NaN	NaN
86.87264760000016	2.4017	sub-03	1	localizer	blank	interval	NaN	NaN	NaN	NaN	NaN	NaN	NaN	NaN	NaN	NaN	NaN	NaN
89.57554570000048	0.4992	sub-03	1	localizer	stimulus	Haus	NaN	180	3.0857144999999946	-9.8782171999992	True	NaN	NaN	NaN	NaN	NaN	NaN	NaN
90.05825200000072	3.0857	sub-03	1	localizer	blank	interval	NaN	NaN	NaN	NaN	NaN	NaN	NaN	NaN	NaN	NaN	NaN	NaN
93.44511950000016	0.4994	sub-03	1	localizer	stimulus	Gesicht	NaN	0	2.918974100000028	NaN	True	NaN	NaN	NaN	NaN	NaN	NaN	NaN
93.92806650000055	2.919	sub-03	1	localizer	blank	interval	NaN	NaN	NaN	NaN	NaN	NaN	NaN	NaN	NaN	NaN	NaN	NaN
97.14833520000047	0.4993	sub-03	1	localizer	stimulus	Katze	NaN	0	2.9690836999998425	NaN	True	NaN	NaN	NaN	NaN	NaN	NaN	NaN
97.63121880000016	2.9691	sub-03	1	localizer	blank	interval	NaN	NaN	NaN	NaN	NaN	NaN	NaN	NaN	NaN	NaN	NaN	NaN
100.90140470000006	0.4993	sub-03	1	localizer	stimulus	Katze	NaN	0	2.7353613999994337	NaN	True	NaN	NaN	NaN	NaN	NaN	NaN	NaN
101.3843553000006	2.7354	sub-03	1	localizer	blank	interval	NaN	NaN	NaN	NaN	NaN	NaN	NaN	NaN	NaN	NaN	NaN	NaN
104.42075210000075	0.4996	sub-03	1	localizer	stimulus	Haus	NaN	0	1.7846716000003653	NaN	True	NaN	NaN	NaN	NaN	NaN	NaN	NaN
104.9039257000004	1.7847	sub-03	1	localizer	blank	interval	NaN	NaN	NaN	NaN	NaN	NaN	NaN	NaN	NaN	NaN	NaN	NaN
106.9895959000005	0.4994	sub-03	1	localizer	stimulus	Schuh	NaN	0	3.2192123999994067	NaN	True	NaN	NaN	NaN	NaN	NaN	NaN	NaN
107.47235440000075	3.2192	sub-03	1	localizer	blank	interval	NaN	NaN	NaN	NaN	NaN	NaN	NaN	NaN	NaN	NaN	NaN	NaN
110.9926701000004	0.4996	sub-03	1	localizer	stimulus	Katze	NaN	0	2.635338500000202	NaN	True	NaN	NaN	NaN	NaN	NaN	NaN	NaN
111.47570150000048	2.6353	sub-03	1	localizer	blank	interval	NaN	NaN	NaN	NaN	NaN	NaN	NaN	NaN	NaN	NaN	NaN	NaN
114.41210910000063	0.4994	sub-03	1	localizer	stimulus	Schuh	NaN	0	2.7342797999999675	NaN	True	NaN	NaN	NaN	NaN	NaN	NaN	NaN
114.89628770000036	2.7343	sub-03	1	localizer	blank	interval	NaN	NaN	NaN	NaN	NaN	NaN	NaN	NaN	NaN	NaN	NaN	NaN
117.93180819999998	0.4994	sub-03	1	localizer	stimulus	Schuh	NaN	0	2.5021661000000535	NaN	True	NaN	NaN	NaN	NaN	NaN	NaN	NaN
118.41455600000064	2.5022	sub-03	1	localizer	blank	interval	NaN	NaN	NaN	NaN	NaN	NaN	NaN	NaN	NaN	NaN	NaN	NaN
124.40304820000074	1.0005	sub-03	1	sequence	cue	Katze	NaN	NaN	NaN	NaN	NaN	NaN	NaN	NaN	NaN	NaN	NaN	NaN
125.40355380000074	2.0016	sub-03	1	sequence	blank	blank	NaN	NaN	NaN	NaN	NaN	NaN	NaN	NaN	NaN	NaN	NaN	NaN
127.40519080000011	0.3001	sub-03	1	sequence	fixation	dot	NaN	NaN	NaN	NaN	NaN	NaN	NaN	NaN	NaN	NaN	NaN	NaN
127.77054970000064	0.1016	sub-03	1	sequence	stimulus	Gesicht	NaN	NaN	64.0	NaN	NaN	1.0	1.0	NaN	NaN	NaN	NaN	NaN
127.8721531000001	0.0671	sub-03	1	sequence	interval	dot	NaN	NaN	NaN	NaN	NaN	NaN	NaN	NaN	NaN	NaN	NaN	NaN
127.93929210000078	0.0997	sub-03	1	sequence	stimulus	Schuh	NaN	NaN	64.0	NaN	NaN	4.0	2.0	NaN	NaN	NaN	NaN	NaN
128.03902319999997	0.0669	sub-03	1	sequence	interval	dot	NaN	NaN	NaN	NaN	NaN	NaN	NaN	NaN	NaN	NaN	NaN	NaN
128.10593340000014	0.1	sub-03	1	sequence	stimulus	Stuhl	NaN	NaN	64.0	NaN	NaN	5.0	3.0	NaN	NaN	NaN	NaN	NaN
128.20594980000078	0.0668	sub-03	1	sequence	interval	dot	NaN	NaN	NaN	NaN	NaN	NaN	NaN	NaN	NaN	NaN	NaN	NaN
128.27275640000062	0.0998	sub-03	1	sequence	stimulus	Haus	NaN	NaN	64.0	NaN	NaN	2.0	4.0	NaN	NaN	NaN	NaN	NaN
128.37251950000064	0.0669	sub-03	1	sequence	interval	dot	NaN	NaN	NaN	NaN	NaN	NaN	NaN	NaN	NaN	NaN	NaN	NaN
128.4394140000004	0.1	sub-03	1	sequence	stimulus	Katze	NaN	NaN	64.0	NaN	NaN	3.0	5.0	NaN	NaN	NaN	NaN	NaN
128.53941900000063	0.0668	sub-03	1	sequence	interval	dot	NaN	NaN	NaN	NaN	NaN	NaN	NaN	NaN	NaN	NaN	NaN	NaN
128.60617510000066	8.3716	sub-03	1	sequence	delay	dot	NaN	NaN	NaN	NaN	NaN	NaN	NaN	NaN	NaN	NaN	NaN	NaN
136.95466540000052	1.1765	sub-03	1	sequence	choice	choice	right	NaN	NaN	-9.416479999998955	True	NaN	NaN	right	1.0	4.0	5.0	5.0
138.1315708000002	0.4997	sub-03	1	sequence	feedback	NaN	NaN	NaN	NaN	NaN	NaN	NaN	NaN	NaN	NaN	NaN	NaN	NaN
138.63150750000025	1.0002	sub-03	1	sequence	cue	Stuhl	NaN	NaN	NaN	NaN	NaN	NaN	NaN	NaN	NaN	NaN	NaN	NaN
139.63167770000018	2.0017	sub-03	1	sequence	blank	blank	NaN	NaN	NaN	NaN	NaN	NaN	NaN	NaN	NaN	NaN	NaN	NaN
141.63340120000066	0.3002	sub-03	1	sequence	fixation	dot	NaN	NaN	NaN	NaN	NaN	NaN	NaN	NaN	NaN	NaN	NaN	NaN
141.96633240000028	0.1007	sub-03	1	sequence	stimulus	Haus	NaN	NaN	64.0	NaN	NaN	2.0	1.0	NaN	NaN	NaN	NaN	NaN
142.06707690000076	0.0668	sub-03	1	sequence	interval	dot	NaN	NaN	NaN	NaN	NaN	NaN	NaN	NaN	NaN	NaN	NaN	NaN
142.13386360000004	0.1	sub-03	1	sequence	stimulus	Gesicht	NaN	NaN	64.0	NaN	NaN	1.0	2.0	NaN	NaN	NaN	NaN	NaN
142.23385190000045	0.0669	sub-03	1	sequence	interval	dot	NaN	NaN	NaN	NaN	NaN	NaN	NaN	NaN	NaN	NaN	NaN	NaN
142.30070290000003	0.1001	sub-03	1	sequence	stimulus	Schuh	NaN	NaN	64.0	NaN	NaN	4.0	3.0	NaN	NaN	NaN	NaN	NaN
142.4008162	0.0668	sub-03	1	sequence	interval	dot	NaN	NaN	NaN	NaN	NaN	NaN	NaN	NaN	NaN	NaN	NaN	NaN
142.46759420000035	0.1003	sub-03	1	sequence	stimulus	Stuhl	NaN	NaN	64.0	NaN	NaN	5.0	4.0	NaN	NaN	NaN	NaN	NaN
142.5678514000001	0.0665	sub-03	1	sequence	interval	dot	NaN	NaN	NaN	NaN	NaN	NaN	NaN	NaN	NaN	NaN	NaN	NaN
142.6343751000004	0.1001	sub-03	1	sequence	stimulus	Katze	NaN	NaN	64.0	NaN	NaN	3.0	5.0	NaN	NaN	NaN	NaN	NaN
142.7344675000004	0.0667	sub-03	1	sequence	interval	dot	NaN	NaN	NaN	NaN	NaN	NaN	NaN	NaN	NaN	NaN	NaN	NaN
142.80111900000065	8.3884	sub-03	1	sequence	delay	dot	NaN	NaN	NaN	NaN	NaN	NaN	NaN	NaN	NaN	NaN	NaN	NaN
151.17643320000025	1.1327	sub-03	1	sequence	choice	choice	right	NaN	NaN	-9.436900999999123	True	NaN	NaN	right	True	5.0	4.0	4.0
152.30945860000065	0.4998	sub-03	1	sequence	feedback	NaN	NaN	NaN	NaN	NaN	NaN	NaN	NaN	NaN	NaN	NaN	NaN	NaN
152.8094490000003	1.0005	sub-03	1	sequence	cue	Katze	NaN	NaN	NaN	NaN	NaN	NaN	NaN	NaN	NaN	NaN	NaN	NaN
153.80992870000046	2.0016	sub-03	1	sequence	blank	blank	NaN	NaN	NaN	NaN	NaN	NaN	NaN	NaN	NaN	NaN	NaN	NaN
155.8115510000007	0.3002	sub-03	1	sequence	fixation	dot	NaN	NaN	NaN	NaN	NaN	NaN	NaN	NaN	NaN	NaN	NaN	NaN
156.13019000000077	0.115	sub-03	1	sequence	stimulus	Gesicht	NaN	NaN	32.0	NaN	NaN	1.0	1.0	NaN	NaN	NaN	NaN	NaN
156.2451974000005	0.0335	sub-03	1	sequence	interval	dot	NaN	NaN	NaN	NaN	NaN	NaN	NaN	NaN	NaN	NaN	NaN	NaN
156.27866350000022	0.0998	sub-03	1	sequence	stimulus	Schuh	NaN	NaN	32.0	NaN	NaN	4.0	2.0	NaN	NaN	NaN	NaN	NaN
156.37848870000016	0.0336	sub-03	1	sequence	interval	dot	NaN	NaN	NaN	NaN	NaN	NaN	NaN	NaN	NaN	NaN	NaN	NaN
156.4121154000004	0.1	sub-03	1	sequence	stimulus	Stuhl	NaN	NaN	32.0	NaN	NaN	5.0	3.0	NaN	NaN	NaN	NaN	NaN
156.5120753000001	0.0334	sub-03	1	sequence	interval	dot	NaN	NaN	NaN	NaN	NaN	NaN	NaN	NaN	NaN	NaN	NaN	NaN
156.54547249999996	0.1	sub-03	1	sequence	stimulus	Katze	NaN	NaN	32.0	NaN	NaN	3.0	4.0	NaN	NaN	NaN	NaN	NaN
156.64542750000055	0.0336	sub-03	1	sequence	interval	dot	NaN	NaN	NaN	NaN	NaN	NaN	NaN	NaN	NaN	NaN	NaN	NaN
156.6789988999999	0.1001	sub-03	1	sequence	stimulus	Haus	NaN	NaN	32.0	NaN	NaN	2.0	5.0	NaN	NaN	NaN	NaN	NaN
156.77914190000047	0.0332	sub-03	1	sequence	interval	dot	NaN	NaN	NaN	NaN	NaN	NaN	NaN	NaN	NaN	NaN	NaN	NaN
156.81229940000048	8.5221	sub-03	1	sequence	delay	dot	NaN	NaN	NaN	NaN	NaN	NaN	NaN	NaN	NaN	NaN	NaN	NaN
165.32010030000038	1.5679	sub-03	1	sequence	choice	choice	right	NaN	NaN	-9.013327599999684	True	NaN	NaN	right	True	5.0	4.0	4.0
166.88824850000037	0.4999	sub-03	1	sequence	feedback	NaN	NaN	NaN	NaN	NaN	NaN	NaN	NaN	NaN	NaN	NaN	NaN	NaN
167.3883764000002	1.0	sub-03	1	sequence	cue	Haus	NaN	NaN	NaN	NaN	NaN	NaN	NaN	NaN	NaN	NaN	NaN	NaN
168.3884168000004	2.0017	sub-03	1	sequence	blank	blank	NaN	NaN	NaN	NaN	NaN	NaN	NaN	NaN	NaN	NaN	NaN	NaN
170.39010110000072	0.3002	sub-03	1	sequence	fixation	dot	NaN	NaN	NaN	NaN	NaN	NaN	NaN	NaN	NaN	NaN	NaN	NaN
170.7084687000006	0.1151	sub-03	1	sequence	stimulus	Stuhl	NaN	NaN	512.0	NaN	NaN	5.0	1.0	NaN	NaN	NaN	NaN	NaN
170.8235553000004	0.5174	sub-03	1	sequence	interval	dot	NaN	NaN	NaN	NaN	NaN	NaN	NaN	NaN	NaN	NaN	NaN	NaN
171.34091549999994	0.1	sub-03	1	sequence	stimulus	Schuh	NaN	NaN	512.0	NaN	NaN	4.0	2.0	NaN	NaN	NaN	NaN	NaN
171.44091690000005	0.5172	sub-03	1	sequence	interval	dot	NaN	NaN	NaN	NaN	NaN	NaN	NaN	NaN	NaN	NaN	NaN	NaN
171.9581046000003	0.0998	sub-03	1	sequence	stimulus	Katze	NaN	NaN	512.0	NaN	NaN	3.0	3.0	NaN	NaN	NaN	NaN	NaN
172.05792220000058	0.5172	sub-03	1	sequence	interval	dot	NaN	NaN	NaN	NaN	NaN	NaN	NaN	NaN	NaN	NaN	NaN	NaN
172.57513460000064	0.1017	sub-03	1	sequence	stimulus	Gesicht	NaN	NaN	512.0	NaN	NaN	1.0	4.0	NaN	NaN	NaN	NaN	NaN
172.67687430000024	0.5154	sub-03	1	sequence	interval	dot	NaN	NaN	NaN	NaN	NaN	NaN	NaN	NaN	NaN	NaN	NaN	NaN
173.1923067000007	0.1	sub-03	1	sequence	stimulus	Haus	NaN	NaN	512.0	NaN	NaN	2.0	5.0	NaN	NaN	NaN	NaN	NaN
173.29231600000003	0.5171	sub-03	1	sequence	interval	dot	NaN	NaN	NaN	NaN	NaN	NaN	NaN	NaN	NaN	NaN	NaN	NaN
173.80937640000047	6.1368	sub-03	1	sequence	delay	dot	NaN	NaN	NaN	NaN	NaN	NaN	NaN	NaN	NaN	NaN	NaN	NaN
179.9317590999999	1.5178	sub-03	1	sequence	choice	choice	left	NaN	NaN	-9.057344399999238	True	NaN	NaN	left	True	5.0	4.0	5.0
181.4498555	0.4999	sub-03	1	sequence	feedback	NaN	NaN	NaN	NaN	NaN	NaN	NaN	NaN	NaN	NaN	NaN	NaN	NaN
181.9500226	1.0004	sub-03	1	sequence	cue	Gesicht	NaN	NaN	NaN	NaN	NaN	NaN	NaN	NaN	NaN	NaN	NaN	NaN
182.95039350000025	2.0017	sub-03	1	sequence	blank	blank	NaN	NaN	NaN	NaN	NaN	NaN	NaN	NaN	NaN	NaN	NaN	NaN
184.9520570000004	0.3002	sub-03	1	sequence	fixation	dot	NaN	NaN	NaN	NaN	NaN	NaN	NaN	NaN	NaN	NaN	NaN	NaN
185.28443360000077	0.1012	sub-03	1	sequence	stimulus	Stuhl	NaN	NaN	128.0	NaN	NaN	5.0	1.0	NaN	NaN	NaN	NaN	NaN
185.38564450000013	0.1334	sub-03	1	sequence	interval	dot	NaN	NaN	NaN	NaN	NaN	NaN	NaN	NaN	NaN	NaN	NaN	NaN
185.51904640000063	0.1001	sub-03	1	sequence	stimulus	Schuh	NaN	NaN	128.0	NaN	NaN	4.0	2.0	NaN	NaN	NaN	NaN	NaN
185.6191561000005	0.1336	sub-03	1	sequence	interval	dot	NaN	NaN	NaN	NaN	NaN	NaN	NaN	NaN	NaN	NaN	NaN	NaN
185.7527512000006	0.0998	sub-03	1	sequence	stimulus	Katze	NaN	NaN	128.0	NaN	NaN	3.0	3.0	NaN	NaN	NaN	NaN	NaN
185.8525654000005	0.1335	sub-03	1	sequence	interval	dot	NaN	NaN	NaN	NaN	NaN	NaN	NaN	NaN	NaN	NaN	NaN	NaN
185.9861149000008	0.1	sub-03	1	sequence	stimulus	Haus	NaN	NaN	128.0	NaN	NaN	2.0	4.0	NaN	NaN	NaN	NaN	NaN
186.08608090000047	0.1335	sub-03	1	sequence	interval	dot	NaN	NaN	NaN	NaN	NaN	NaN	NaN	NaN	NaN	NaN	NaN	NaN
186.21961830000052	0.1	sub-03	1	sequence	stimulus	Gesicht	NaN	NaN	128.0	NaN	NaN	1.0	5.0	NaN	NaN	NaN	NaN	NaN
186.31958050000048	0.1335	sub-03	1	sequence	interval	dot	NaN	NaN	NaN	NaN	NaN	NaN	NaN	NaN	NaN	NaN	NaN	NaN
186.4530594000007	8.0549	sub-03	1	sequence	delay	dot	NaN	NaN	NaN	NaN	NaN	NaN	NaN	NaN	NaN	NaN	NaN	NaN
194.49155730000075	1.4197	sub-03	1	sequence	choice	choice	right	NaN	NaN	-9.154759999998532	True	NaN	NaN	right	True	4.0	5.0	5.0
195.9115330000004	0.4998	sub-03	1	sequence	feedback	NaN	NaN	NaN	NaN	NaN	NaN	NaN	NaN	NaN	NaN	NaN	NaN	NaN
196.41158950000045	1.0004	sub-03	1	sequence	cue	Stuhl	NaN	NaN	NaN	NaN	NaN	NaN	NaN	NaN	NaN	NaN	NaN	NaN
197.41197749999992	2.0014	sub-03	1	sequence	blank	blank	NaN	NaN	NaN	NaN	NaN	NaN	NaN	NaN	NaN	NaN	NaN	NaN
199.4134264000004	0.3003	sub-03	1	sequence	fixation	dot	NaN	NaN	NaN	NaN	NaN	NaN	NaN	NaN	NaN	NaN	NaN	NaN
199.7321355000004	0.1151	sub-03	1	sequence	stimulus	Schuh	NaN	NaN	32.0	NaN	NaN	4.0	1.0	NaN	NaN	NaN	NaN	NaN
199.84719500000028	0.0334	sub-03	1	sequence	interval	dot	NaN	NaN	NaN	NaN	NaN	NaN	NaN	NaN	NaN	NaN	NaN	NaN
199.8806239000005	0.0999	sub-03	1	sequence	stimulus	Katze	NaN	NaN	32.0	NaN	NaN	3.0	2.0	NaN	NaN	NaN	NaN	NaN
199.9805619000008	0.0335	sub-03	1	sequence	interval	dot	NaN	NaN	NaN	NaN	NaN	NaN	NaN	NaN	NaN	NaN	NaN	NaN
200.01401480000004	0.1	sub-03	1	sequence	stimulus	Stuhl	NaN	NaN	32.0	NaN	NaN	5.0	3.0	NaN	NaN	NaN	NaN	NaN
200.1140206	0.0336	sub-03	1	sequence	interval	dot	NaN	NaN	NaN	NaN	NaN	NaN	NaN	NaN	NaN	NaN	NaN	NaN
200.14763050000056	0.0999	sub-03	1	sequence	stimulus	Haus	NaN	NaN	32.0	NaN	NaN	2.0	4.0	NaN	NaN	NaN	NaN	NaN
200.24756490000075	0.0335	sub-03	1	sequence	interval	dot	NaN	NaN	NaN	NaN	NaN	NaN	NaN	NaN	NaN	NaN	NaN	NaN
200.28107270000052	0.0997	sub-03	1	sequence	stimulus	Gesicht	NaN	NaN	32.0	NaN	NaN	1.0	5.0	NaN	NaN	NaN	NaN	NaN
200.38081450000027	0.0335	sub-03	1	sequence	interval	dot	NaN	NaN	NaN	NaN	NaN	NaN	NaN	NaN	NaN	NaN	NaN	NaN
200.41432840000016	8.5217	sub-03	1	sequence	delay	dot	NaN	NaN	NaN	NaN	NaN	NaN	NaN	NaN	NaN	NaN	NaN	NaN
208.9212348000001	0.9847	sub-03	1	sequence	choice	choice	left	NaN	NaN	-9.599033399998916	True	NaN	NaN	left	True	3.0	4.0	3.0
209.9061743000002	0.4999	sub-03	1	sequence	feedback	NaN	NaN	NaN	NaN	NaN	NaN	NaN	NaN	NaN	NaN	NaN	NaN	NaN
210.40630150000013	1.0004	sub-03	1	sequence	cue	Gesicht	NaN	NaN	NaN	NaN	NaN	NaN	NaN	NaN	NaN	NaN	NaN	NaN
211.40667790000043	2.0016	sub-03	1	sequence	blank	blank	NaN	NaN	NaN	NaN	NaN	NaN	NaN	NaN	NaN	NaN	NaN	NaN
213.4083176000004	0.3001	sub-03	1	sequence	fixation	dot	NaN	NaN	NaN	NaN	NaN	NaN	NaN	NaN	NaN	NaN	NaN	NaN
213.72683380000035	0.115	sub-03	1	sequence	stimulus	Stuhl	NaN	NaN	512.0	NaN	NaN	5.0	1.0	NaN	NaN	NaN	NaN	NaN
213.84179700000004	0.5173	sub-03	1	sequence	interval	dot	NaN	NaN	NaN	NaN	NaN	NaN	NaN	NaN	NaN	NaN	NaN	NaN
214.35913640000035	0.0999	sub-03	1	sequence	stimulus	Haus	NaN	NaN	512.0	NaN	NaN	2.0	2.0	NaN	NaN	NaN	NaN	NaN
214.45900820000043	0.5171	sub-03	1	sequence	interval	dot	NaN	NaN	NaN	NaN	NaN	NaN	NaN	NaN	NaN	NaN	NaN	NaN
214.97614890000025	0.1	sub-03	1	sequence	stimulus	Schuh	NaN	NaN	512.0	NaN	NaN	4.0	3.0	NaN	NaN	NaN	NaN	NaN
215.07619250000064	0.5173	sub-03	1	sequence	interval	dot	NaN	NaN	NaN	NaN	NaN	NaN	NaN	NaN	NaN	NaN	NaN	NaN
215.5934652000005	0.0999	sub-03	1	sequence	stimulus	Gesicht	NaN	NaN	512.0	NaN	NaN	1.0	4.0	NaN	NaN	NaN	NaN	NaN
215.69335870000032	0.5172	sub-03	1	sequence	interval	dot	NaN	NaN	NaN	NaN	NaN	NaN	NaN	NaN	NaN	NaN	NaN	NaN
216.21056580000004	0.1	sub-03	1	sequence	stimulus	Katze	NaN	NaN	512.0	NaN	NaN	3.0	5.0	NaN	NaN	NaN	NaN	NaN
216.31055540000037	0.5171	sub-03	1	sequence	interval	dot	NaN	NaN	NaN	NaN	NaN	NaN	NaN	NaN	NaN	NaN	NaN	NaN
216.82766150000043	6.1531	sub-03	1	sequence	delay	dot	NaN	NaN	NaN	NaN	NaN	NaN	NaN	NaN	NaN	NaN	NaN	NaN
222.9609485000001	0.9565	sub-03	1	sequence	choice	choice	left	NaN	NaN	-9.619956399998957	True	NaN	NaN	left	True	4.0	2.0	4.0
223.9177195000002	0.4998	sub-03	1	sequence	feedback	NaN	NaN	NaN	NaN	NaN	NaN	NaN	NaN	NaN	NaN	NaN	NaN	NaN
224.4177606000003	1.0003	sub-03	1	sequence	cue	Schuh	NaN	NaN	NaN	NaN	NaN	NaN	NaN	NaN	NaN	NaN	NaN	NaN
225.41810480000004	2.0015	sub-03	1	sequence	blank	blank	NaN	NaN	NaN	NaN	NaN	NaN	NaN	NaN	NaN	NaN	NaN	NaN
227.4195765000004	0.3003	sub-03	1	sequence	fixation	dot	NaN	NaN	NaN	NaN	NaN	NaN	NaN	NaN	NaN	NaN	NaN	NaN
227.73748800000067	0.0991	sub-03	1	sequence	stimulus	Katze	NaN	NaN	128.0	NaN	NaN	3.0	1.0	NaN	NaN	NaN	NaN	NaN
227.8366315000003	0.1335	sub-03	1	sequence	interval	dot	NaN	NaN	NaN	NaN	NaN	NaN	NaN	NaN	NaN	NaN	NaN	NaN
227.9701387000005	0.1001	sub-03	1	sequence	stimulus	Schuh	NaN	NaN	128.0	NaN	NaN	4.0	2.0	NaN	NaN	NaN	NaN	NaN
228.0702282000002	0.1335	sub-03	1	sequence	interval	dot	NaN	NaN	NaN	NaN	NaN	NaN	NaN	NaN	NaN	NaN	NaN	NaN
228.2037202000001	0.1	sub-03	1	sequence	stimulus	Gesicht	NaN	NaN	128.0	NaN	NaN	1.0	3.0	NaN	NaN	NaN	NaN	NaN
228.3037570000006	0.1335	sub-03	1	sequence	interval	dot	NaN	NaN	NaN	NaN	NaN	NaN	NaN	NaN	NaN	NaN	NaN	NaN
228.4372112000001	0.0998	sub-03	1	sequence	stimulus	Haus	NaN	NaN	128.0	NaN	NaN	2.0	4.0	NaN	NaN	NaN	NaN	NaN
228.5370416000005	0.1336	sub-03	1	sequence	interval	dot	NaN	NaN	NaN	NaN	NaN	NaN	NaN	NaN	NaN	NaN	NaN	NaN
228.67065550000007	0.0999	sub-03	1	sequence	stimulus	Stuhl	NaN	NaN	128.0	NaN	NaN	5.0	5.0	NaN	NaN	NaN	NaN	NaN
228.7705566000004	0.1335	sub-03	1	sequence	interval	dot	NaN	NaN	NaN	NaN	NaN	NaN	NaN	NaN	NaN	NaN	NaN	NaN
228.90403650000007	8.055	sub-03	1	sequence	delay	dot	NaN	NaN	NaN	NaN	NaN	NaN	NaN	NaN	NaN	NaN	NaN	NaN
236.9486839000001	0.9133	sub-03	1	sequence	choice	choice	left	NaN	NaN	-9.65374939999947	True	NaN	NaN	left	True	2.0	3.0	2.0
237.8622385000008	0.4998	sub-03	1	sequence	feedback	NaN	NaN	NaN	NaN	NaN	NaN	NaN	NaN	NaN	NaN	NaN	NaN	NaN
242.18232220000027	0.4994	sub-03	1	localizer	stimulus	Schuh	NaN	0	2.652136499999898	NaN	True	NaN	NaN	NaN	NaN	NaN	NaN	NaN
242.66535440000007	2.6521	sub-03	1	localizer	blank	interval	NaN	NaN	NaN	NaN	NaN	NaN	NaN	NaN	NaN	NaN	NaN	NaN
245.61847600000056	0.4998	sub-03	1	localizer	stimulus	Schuh	NaN	180	2.6184893999998167	-9.921384999999646	True	NaN	NaN	NaN	NaN	NaN	NaN	NaN
246.10174330000063	2.6185	sub-03	1	localizer	blank	interval	NaN	NaN	NaN	NaN	NaN	NaN	NaN	NaN	NaN	NaN	NaN	NaN
249.02121160000024	0.4995	sub-03	1	localizer	stimulus	Gesicht	NaN	0	2.8856243999998696	NaN	True	NaN	NaN	NaN	NaN	NaN	NaN	NaN
249.5042065000007	2.8856	sub-03	1	localizer	blank	interval	NaN	NaN	NaN	NaN	NaN	NaN	NaN	NaN	NaN	NaN	NaN	NaN
252.69081630000076	0.4996	sub-03	1	localizer	stimulus	Haus	NaN	0	2.8354803000002278	NaN	True	NaN	NaN	NaN	NaN	NaN	NaN	NaN
253.17385790000023	2.8355	sub-03	1	localizer	blank	interval	NaN	NaN	NaN	NaN	NaN	NaN	NaN	NaN	NaN	NaN	NaN	NaN
256.31034700000055	0.4997	sub-03	1	localizer	stimulus	Stuhl	NaN	0	1.8181065999997372	NaN	True	NaN	NaN	NaN	NaN	NaN	NaN	NaN
256.7933202000004	1.8181	sub-03	1	localizer	blank	interval	NaN	NaN	NaN	NaN	NaN	NaN	NaN	NaN	NaN	NaN	NaN	NaN
258.91249550000066	0.4995	sub-03	1	localizer	stimulus	Katze	NaN	0	2.3852716000001237	NaN	True	NaN	NaN	NaN	NaN	NaN	NaN	NaN
259.3954282000004	2.3853	sub-03	1	localizer	blank	interval	NaN	NaN	NaN	NaN	NaN	NaN	NaN	NaN	NaN	NaN	NaN	NaN
262.08176510000067	0.4995	sub-03	1	localizer	stimulus	Katze	NaN	0	2.6521426999997857	NaN	True	NaN	NaN	NaN	NaN	NaN	NaN	NaN
262.5647547000008	2.6521	sub-03	1	localizer	blank	interval	NaN	NaN	NaN	NaN	NaN	NaN	NaN	NaN	NaN	NaN	NaN	NaN
265.51809440000034	0.4998	sub-03	1	localizer	stimulus	Stuhl	NaN	0	1.9681255999994391	NaN	True	NaN	NaN	NaN	NaN	NaN	NaN	NaN
266.0011318000006	1.9681	sub-03	1	localizer	blank	interval	NaN	NaN	NaN	NaN	NaN	NaN	NaN	NaN	NaN	NaN	NaN	NaN
268.27043520000007	0.4996	sub-03	1	localizer	stimulus	Schuh	NaN	0	3.135381199999813	NaN	True	NaN	NaN	NaN	NaN	NaN	NaN	NaN
268.7534813000002	3.1354	sub-03	1	localizer	blank	interval	NaN	NaN	NaN	NaN	NaN	NaN	NaN	NaN	NaN	NaN	NaN	NaN
272.1899579000001	0.4995	sub-03	1	localizer	stimulus	Katze	NaN	180	2.4683751000002303	-9.876770699999724	True	NaN	NaN	NaN	NaN	NaN	NaN	NaN
272.6730236000003	2.4684	sub-03	1	localizer	blank	interval	NaN	NaN	NaN	NaN	NaN	NaN	NaN	NaN	NaN	NaN	NaN	NaN
275.44255840000005	0.4996	sub-03	1	localizer	stimulus	Schuh	NaN	0	2.701936299999943	NaN	True	NaN	NaN	NaN	NaN	NaN	NaN	NaN
275.92558330000065	2.7019	sub-03	1	localizer	blank	interval	NaN	NaN	NaN	NaN	NaN	NaN	NaN	NaN	NaN	NaN	NaN	NaN
278.9287251000005	0.4995	sub-03	1	localizer	stimulus	Haus	NaN	180	3.352415899999869	-9.823729699998694	True	NaN	NaN	NaN	NaN	NaN	NaN	NaN
279.4118059000002	3.3524	sub-03	1	localizer	blank	interval	NaN	NaN	NaN	NaN	NaN	NaN	NaN	NaN	NaN	NaN	NaN	NaN
283.0653929	0.4994	sub-03	1	localizer	stimulus	Katze	NaN	0	2.5189144999994255	NaN	True	NaN	NaN	NaN	NaN	NaN	NaN	NaN
283.5482807000008	2.5189	sub-03	1	localizer	blank	interval	NaN	NaN	NaN	NaN	NaN	NaN	NaN	NaN	NaN	NaN	NaN	NaN
286.36838400000033	0.4996	sub-03	1	localizer	stimulus	Gesicht	NaN	0	2.1350603000000774	NaN	True	NaN	NaN	NaN	NaN	NaN	NaN	NaN
286.8513556000007	2.1351	sub-03	1	localizer	blank	interval	NaN	NaN	NaN	NaN	NaN	NaN	NaN	NaN	NaN	NaN	NaN	NaN
289.28729790000034	0.4996	sub-03	1	localizer	stimulus	Gesicht	NaN	0	2.418407300000581	NaN	True	NaN	NaN	NaN	NaN	NaN	NaN	NaN
289.7702024	2.4184	sub-03	1	localizer	blank	interval	NaN	NaN	NaN	NaN	NaN	NaN	NaN	NaN	NaN	NaN	NaN	NaN
292.4896593000003	0.4996	sub-03	1	localizer	stimulus	Stuhl	NaN	180	2.6519359000003533	-9.872307999999066	True	NaN	NaN	NaN	NaN	NaN	NaN	NaN
292.9726889000003	2.6519	sub-03	1	localizer	blank	interval	NaN	NaN	NaN	NaN	NaN	NaN	NaN	NaN	NaN	NaN	NaN	NaN
295.9260753000008	0.4994	sub-03	1	localizer	stimulus	Stuhl	NaN	0	1.8511811000007583	NaN	True	NaN	NaN	NaN	NaN	NaN	NaN	NaN
296.4088818	1.8512	sub-03	1	localizer	blank	interval	NaN	NaN	NaN	NaN	NaN	NaN	NaN	NaN	NaN	NaN	NaN	NaN
298.5612278000008	0.4995	sub-03	1	localizer	stimulus	Gesicht	NaN	0	1.9347533000000112	NaN	True	NaN	NaN	NaN	NaN	NaN	NaN	NaN
299.0442407999999	1.9348	sub-03	1	localizer	blank	interval	NaN	NaN	NaN	NaN	NaN	NaN	NaN	NaN	NaN	NaN	NaN	NaN
301.2801341000004	0.4996	sub-03	1	localizer	stimulus	Schuh	NaN	0	2.051741799999945	NaN	True	NaN	NaN	NaN	NaN	NaN	NaN	NaN
301.76302880000003	2.0517	sub-03	1	localizer	blank	interval	NaN	NaN	NaN	NaN	NaN	NaN	NaN	NaN	NaN	NaN	NaN	NaN
304.1157653	0.4996	sub-03	1	localizer	stimulus	Stuhl	NaN	0	2.635602999999776	NaN	True	NaN	NaN	NaN	NaN	NaN	NaN	NaN
304.5987153000005	2.6356	sub-03	1	localizer	blank	interval	NaN	NaN	NaN	NaN	NaN	NaN	NaN	NaN	NaN	NaN	NaN	NaN
307.5353428000008	0.4997	sub-03	1	localizer	stimulus	Haus	NaN	0	2.3348657000006483	NaN	True	NaN	NaN	NaN	NaN	NaN	NaN	NaN
308.0185399000002	2.3349	sub-03	1	localizer	blank	interval	NaN	NaN	NaN	NaN	NaN	NaN	NaN	NaN	NaN	NaN	NaN	NaN
310.6546051000005	0.4993	sub-03	1	localizer	stimulus	Gesicht	NaN	180	3.1524294000000737	-9.86165599999913	True	NaN	NaN	NaN	NaN	NaN	NaN	NaN
311.1373936	3.1524	sub-03	1	localizer	blank	interval	NaN	NaN	NaN	NaN	NaN	NaN	NaN	NaN	NaN	NaN	NaN	NaN
314.59090689999994	0.4995	sub-03	1	localizer	stimulus	Katze	NaN	0	3.102393099999915	NaN	True	NaN	NaN	NaN	NaN	NaN	NaN	NaN
315.0739588000006	3.1024	sub-03	1	localizer	blank	interval	NaN	NaN	NaN	NaN	NaN	NaN	NaN	NaN	NaN	NaN	NaN	NaN
318.4774068000006	0.5	sub-03	1	localizer	stimulus	Haus	NaN	0	3.0021655999998984	NaN	True	NaN	NaN	NaN	NaN	NaN	NaN	NaN
318.9604521000001	3.0022	sub-03	1	localizer	blank	interval	NaN	NaN	NaN	NaN	NaN	NaN	NaN	NaN	NaN	NaN	NaN	NaN
322.2639213000002	0.4994	sub-03	1	localizer	stimulus	Haus	NaN	0	1.6678651000001992	NaN	True	NaN	NaN	NaN	NaN	NaN	NaN	NaN
322.7467381000006	1.6679	sub-03	1	localizer	blank	interval	NaN	NaN	NaN	NaN	NaN	NaN	NaN	NaN	NaN	NaN	NaN	NaN
327.90118860000075	1.001	sub-03	1	sequence	cue	Haus	NaN	NaN	NaN	NaN	NaN	NaN	NaN	NaN	NaN	NaN	NaN	NaN
328.9022035000007	2.0012	sub-03	1	sequence	blank	blank	NaN	NaN	NaN	NaN	NaN	NaN	NaN	NaN	NaN	NaN	NaN	NaN
330.9034516000001	0.3003	sub-03	1	sequence	fixation	dot	NaN	NaN	NaN	NaN	NaN	NaN	NaN	NaN	NaN	NaN	NaN	NaN
331.22136520000004	0.0991	sub-03	1	sequence	stimulus	Gesicht	NaN	NaN	64.0	NaN	NaN	1.0	1.0	NaN	NaN	NaN	NaN	NaN
331.32051070000034	0.0668	sub-03	1	sequence	interval	dot	NaN	NaN	NaN	NaN	NaN	NaN	NaN	NaN	NaN	NaN	NaN	NaN
331.3873244000006	0.1	sub-03	1	sequence	stimulus	Schuh	NaN	NaN	64.0	NaN	NaN	4.0	2.0	NaN	NaN	NaN	NaN	NaN
331.48727510000026	0.0669	sub-03	1	sequence	interval	dot	NaN	NaN	NaN	NaN	NaN	NaN	NaN	NaN	NaN	NaN	NaN	NaN
331.55420140000024	0.0998	sub-03	1	sequence	stimulus	Stuhl	NaN	NaN	64.0	NaN	NaN	5.0	3.0	NaN	NaN	NaN	NaN	NaN
331.65395420000004	0.0669	sub-03	1	sequence	interval	dot	NaN	NaN	NaN	NaN	NaN	NaN	NaN	NaN	NaN	NaN	NaN	NaN
331.7208767000002	0.0998	sub-03	1	sequence	stimulus	Haus	NaN	NaN	64.0	NaN	NaN	2.0	4.0	NaN	NaN	NaN	NaN	NaN
331.82071350000024	0.067	sub-03	1	sequence	interval	dot	NaN	NaN	NaN	NaN	NaN	NaN	NaN	NaN	NaN	NaN	NaN	NaN
331.88771910000014	0.0998	sub-03	1	sequence	stimulus	Katze	NaN	NaN	64.0	NaN	NaN	3.0	5.0	NaN	NaN	NaN	NaN	NaN
331.98747230000026	0.0667	sub-03	1	sequence	interval	dot	NaN	NaN	NaN	NaN	NaN	NaN	NaN	NaN	NaN	NaN	NaN	NaN
332.05419580000034	8.3887	sub-03	1	sequence	delay	dot	NaN	NaN	NaN	NaN	NaN	NaN	NaN	NaN	NaN	NaN	NaN	NaN
340.4267516	0.9356	sub-03	1	sequence	choice	choice	right	NaN	NaN	-9.641217699999288	True	NaN	NaN	right	True	3.0	4.0	4.0
341.3627469000003	0.4997	sub-03	1	sequence	feedback	NaN	NaN	NaN	NaN	NaN	NaN	NaN	NaN	NaN	NaN	NaN	NaN	NaN
341.86272420000023	1.0003	sub-03	1	sequence	cue	Gesicht	NaN	NaN	NaN	NaN	NaN	NaN	NaN	NaN	NaN	NaN	NaN	NaN
342.86303900000075	2.0016	sub-03	1	sequence	blank	blank	NaN	NaN	NaN	NaN	NaN	NaN	NaN	NaN	NaN	NaN	NaN	NaN
344.86463770000046	0.3002	sub-03	1	sequence	fixation	dot	NaN	NaN	NaN	NaN	NaN	NaN	NaN	NaN	NaN	NaN	NaN	NaN
345.18261299999995	0.1157	sub-03	1	sequence	stimulus	Schuh	NaN	NaN	32.0	NaN	NaN	4.0	1.0	NaN	NaN	NaN	NaN	NaN
345.29830330000004	0.0335	sub-03	1	sequence	interval	dot	NaN	NaN	NaN	NaN	NaN	NaN	NaN	NaN	NaN	NaN	NaN	NaN
345.33184620000065	0.1	sub-03	1	sequence	stimulus	Katze	NaN	NaN	32.0	NaN	NaN	3.0	2.0	NaN	NaN	NaN	NaN	NaN
345.4318152000005	0.0335	sub-03	1	sequence	interval	dot	NaN	NaN	NaN	NaN	NaN	NaN	NaN	NaN	NaN	NaN	NaN	NaN
345.46528820000003	0.1	sub-03	1	sequence	stimulus	Stuhl	NaN	NaN	32.0	NaN	NaN	5.0	3.0	NaN	NaN	NaN	NaN	NaN
345.56525950000014	0.0335	sub-03	1	sequence	interval	dot	NaN	NaN	NaN	NaN	NaN	NaN	NaN	NaN	NaN	NaN	NaN	NaN
345.5987588000007	0.0999	sub-03	1	sequence	stimulus	Haus	NaN	NaN	32.0	NaN	NaN	2.0	4.0	NaN	NaN	NaN	NaN	NaN
345.69868490000044	0.0334	sub-03	1	sequence	interval	dot	NaN	NaN	NaN	NaN	NaN	NaN	NaN	NaN	NaN	NaN	NaN	NaN
345.7320586000005	0.1	sub-03	1	sequence	stimulus	Gesicht	NaN	NaN	32.0	NaN	NaN	1.0	5.0	NaN	NaN	NaN	NaN	NaN
345.83210430000054	0.0334	sub-03	1	sequence	interval	dot	NaN	NaN	NaN	NaN	NaN	NaN	NaN	NaN	NaN	NaN	NaN	NaN
345.8654811000006	8.5387	sub-03	1	sequence	delay	dot	NaN	NaN	NaN	NaN	NaN	NaN	NaN	NaN	NaN	NaN	NaN	NaN
354.3884054	0.9187	sub-03	1	sequence	choice	choice	right	NaN	NaN	-9.65137539999887	False	NaN	NaN	left	True	5.0	4.0	5.0
355.3073692000007	0.4997	sub-03	1	sequence	feedback	NaN	NaN	NaN	NaN	NaN	NaN	NaN	NaN	NaN	NaN	NaN	NaN	NaN
355.80733110000074	1.0004	sub-03	1	sequence	cue	Stuhl	NaN	NaN	NaN	NaN	NaN	NaN	NaN	NaN	NaN	NaN	NaN	NaN
356.8077452000007	2.0015	sub-03	1	sequence	blank	blank	NaN	NaN	NaN	NaN	NaN	NaN	NaN	NaN	NaN	NaN	NaN	NaN
358.8092188999999	0.3001	sub-03	1	sequence	fixation	dot	NaN	NaN	NaN	NaN	NaN	NaN	NaN	NaN	NaN	NaN	NaN	NaN
359.12775950000014	0.115	sub-03	1	sequence	stimulus	Katze	NaN	NaN	128.0	NaN	NaN	3.0	1.0	NaN	NaN	NaN	NaN	NaN
359.242792	0.1336	sub-03	1	sequence	interval	dot	NaN	NaN	NaN	NaN	NaN	NaN	NaN	NaN	NaN	NaN	NaN	NaN
359.37634660000003	0.1002	sub-03	1	sequence	stimulus	Schuh	NaN	NaN	128.0	NaN	NaN	4.0	2.0	NaN	NaN	NaN	NaN	NaN
359.47652370000014	0.1334	sub-03	1	sequence	interval	dot	NaN	NaN	NaN	NaN	NaN	NaN	NaN	NaN	NaN	NaN	NaN	NaN
359.6098821000005	0.1001	sub-03	1	sequence	stimulus	Gesicht	NaN	NaN	128.0	NaN	NaN	1.0	3.0	NaN	NaN	NaN	NaN	NaN
359.70994620000056	0.1336	sub-03	1	sequence	interval	dot	NaN	NaN	NaN	NaN	NaN	NaN	NaN	NaN	NaN	NaN	NaN	NaN
359.8435861000007	0.0999	sub-03	1	sequence	stimulus	Haus	NaN	NaN	128.0	NaN	NaN	2.0	4.0	NaN	NaN	NaN	NaN	NaN
359.9434869000006	0.1336	sub-03	1	sequence	interval	dot	NaN	NaN	NaN	NaN	NaN	NaN	NaN	NaN	NaN	NaN	NaN	NaN
360.0771231000008	0.0998	sub-03	1	sequence	stimulus	Stuhl	NaN	NaN	128.0	NaN	NaN	5.0	5.0	NaN	NaN	NaN	NaN	NaN
360.17696980000073	0.1336	sub-03	1	sequence	interval	dot	NaN	NaN	NaN	NaN	NaN	NaN	NaN	NaN	NaN	NaN	NaN	NaN
360.3105558000007	8.0549	sub-03	1	sequence	delay	dot	NaN	NaN	NaN	NaN	NaN	NaN	NaN	NaN	NaN	NaN	NaN	NaN
368.3501326000005	1.3353	sub-03	1	sequence	choice	choice	left	NaN	NaN	-9.244672399999216	True	NaN	NaN	left	True	5.0	3.0	5.0
369.6857399999999	0.4997	sub-03	1	sequence	feedback	NaN	NaN	NaN	NaN	NaN	NaN	NaN	NaN	NaN	NaN	NaN	NaN	NaN
370.18564870000046	1.0006	sub-03	1	sequence	cue	Haus	NaN	NaN	NaN	NaN	NaN	NaN	NaN	NaN	NaN	NaN	NaN	NaN
371.1862748000003	2.0015	sub-03	1	sequence	blank	blank	NaN	NaN	NaN	NaN	NaN	NaN	NaN	NaN	NaN	NaN	NaN	NaN
373.1877706000005	0.3003	sub-03	1	sequence	fixation	dot	NaN	NaN	NaN	NaN	NaN	NaN	NaN	NaN	NaN	NaN	NaN	NaN
373.50552510000034	0.099	sub-03	1	sequence	stimulus	Stuhl	NaN	NaN	512.0	NaN	NaN	5.0	1.0	NaN	NaN	NaN	NaN	NaN
373.6045668000006	0.5172	sub-03	1	sequence	interval	dot	NaN	NaN	NaN	NaN	NaN	NaN	NaN	NaN	NaN	NaN	NaN	NaN
374.12175320000006	0.1001	sub-03	1	sequence	stimulus	Schuh	NaN	NaN	512.0	NaN	NaN	4.0	2.0	NaN	NaN	NaN	NaN	NaN
374.22182470000007	0.5171	sub-03	1	sequence	interval	dot	NaN	NaN	NaN	NaN	NaN	NaN	NaN	NaN	NaN	NaN	NaN	NaN
374.7389468000001	0.0999	sub-03	1	sequence	stimulus	Katze	NaN	NaN	512.0	NaN	NaN	3.0	3.0	NaN	NaN	NaN	NaN	NaN
374.8388729000008	0.5172	sub-03	1	sequence	interval	dot	NaN	NaN	NaN	NaN	NaN	NaN	NaN	NaN	NaN	NaN	NaN	NaN
375.3560304000002	0.1	sub-03	1	sequence	stimulus	Gesicht	NaN	NaN	512.0	NaN	NaN	1.0	4.0	NaN	NaN	NaN	NaN	NaN
375.45601630000056	0.5172	sub-03	1	sequence	interval	dot	NaN	NaN	NaN	NaN	NaN	NaN	NaN	NaN	NaN	NaN	NaN	NaN
375.9732445	0.1	sub-03	1	sequence	stimulus	Haus	NaN	NaN	512.0	NaN	NaN	2.0	5.0	NaN	NaN	NaN	NaN	NaN
376.07324060000064	0.517	sub-03	1	sequence	interval	dot	NaN	NaN	NaN	NaN	NaN	NaN	NaN	NaN	NaN	NaN	NaN	NaN
376.5902415999999	6.1535	sub-03	1	sequence	delay	dot	NaN	NaN	NaN	NaN	NaN	NaN	NaN	NaN	NaN	NaN	NaN	NaN
382.72789960000046	0.9188	sub-03	1	sequence	choice	choice	left	NaN	NaN	-9.66225089999898	True	NaN	NaN	left	True	5.0	4.0	5.0
383.6469818000005	0.4997	sub-03	1	sequence	feedback	NaN	NaN	NaN	NaN	NaN	NaN	NaN	NaN	NaN	NaN	NaN	NaN	NaN
384.14690340000016	1.0003	sub-03	1	sequence	cue	Haus	NaN	NaN	NaN	NaN	NaN	NaN	NaN	NaN	NaN	NaN	NaN	NaN
385.1472437000002	2.0019	sub-03	1	sequence	blank	blank	NaN	NaN	NaN	NaN	NaN	NaN	NaN	NaN	NaN	NaN	NaN	NaN
387.14910839999993	0.3002	sub-03	1	sequence	fixation	dot	NaN	NaN	NaN	NaN	NaN	NaN	NaN	NaN	NaN	NaN	NaN	NaN
387.46670930000073	0.0994	sub-03	1	sequence	stimulus	Gesicht	NaN	NaN	32.0	NaN	NaN	1.0	1.0	NaN	NaN	NaN	NaN	NaN
387.56610610000007	0.0335	sub-03	1	sequence	interval	dot	NaN	NaN	NaN	NaN	NaN	NaN	NaN	NaN	NaN	NaN	NaN	NaN
387.5996066000007	0.0998	sub-03	1	sequence	stimulus	Schuh	NaN	NaN	32.0	NaN	NaN	4.0	2.0	NaN	NaN	NaN	NaN	NaN
387.6994322000001	0.0335	sub-03	1	sequence	interval	dot	NaN	NaN	NaN	NaN	NaN	NaN	NaN	NaN	NaN	NaN	NaN	NaN
387.73291000000063	0.1	sub-03	1	sequence	stimulus	Stuhl	NaN	NaN	32.0	NaN	NaN	5.0	3.0	NaN	NaN	NaN	NaN	NaN
387.83287800000016	0.0335	sub-03	1	sequence	interval	dot	NaN	NaN	NaN	NaN	NaN	NaN	NaN	NaN	NaN	NaN	NaN	NaN
387.8663841000007	0.1	sub-03	1	sequence	stimulus	Katze	NaN	NaN	32.0	NaN	NaN	3.0	4.0	NaN	NaN	NaN	NaN	NaN
387.9663735000004	0.0333	sub-03	1	sequence	interval	dot	NaN	NaN	NaN	NaN	NaN	NaN	NaN	NaN	NaN	NaN	NaN	NaN
387.9996648000006	0.0999	sub-03	1	sequence	stimulus	Haus	NaN	NaN	32.0	NaN	NaN	2.0	5.0	NaN	NaN	NaN	NaN	NaN
388.0996023000007	0.0335	sub-03	1	sequence	interval	dot	NaN	NaN	NaN	NaN	NaN	NaN	NaN	NaN	NaN	NaN	NaN	NaN
388.1330764000004	8.5219	sub-03	1	sequence	delay	dot	NaN	NaN	NaN	NaN	NaN	NaN	NaN	NaN	NaN	NaN	NaN	NaN
396.6375903000008	0.8869	sub-03	1	sequence	choice	choice	right	NaN	NaN	-9.68531239999902	True	NaN	NaN	right	True	2.0	5.0	5.0
397.5247431000007	0.4998	sub-03	1	sequence	feedback	NaN	NaN	NaN	NaN	NaN	NaN	NaN	NaN	NaN	NaN	NaN	NaN	NaN
398.0247937000004	1.0004	sub-03	1	sequence	cue	Katze	NaN	NaN	NaN	NaN	NaN	NaN	NaN	NaN	NaN	NaN	NaN	NaN
399.02515440000025	2.0016	sub-03	1	sequence	blank	blank	NaN	NaN	NaN	NaN	NaN	NaN	NaN	NaN	NaN	NaN	NaN	NaN
401.0267713000003	0.3002	sub-03	1	sequence	fixation	dot	NaN	NaN	NaN	NaN	NaN	NaN	NaN	NaN	NaN	NaN	NaN	NaN
401.3454230000007	0.1149	sub-03	1	sequence	stimulus	Stuhl	NaN	NaN	128.0	NaN	NaN	5.0	1.0	NaN	NaN	NaN	NaN	NaN
401.4603581000001	0.1336	sub-03	1	sequence	interval	dot	NaN	NaN	NaN	NaN	NaN	NaN	NaN	NaN	NaN	NaN	NaN	NaN
401.5939696000005	0.1	sub-03	1	sequence	stimulus	Schuh	NaN	NaN	128.0	NaN	NaN	4.0	2.0	NaN	NaN	NaN	NaN	NaN
401.69392160000007	0.1337	sub-03	1	sequence	interval	dot	NaN	NaN	NaN	NaN	NaN	NaN	NaN	NaN	NaN	NaN	NaN	NaN
401.8276601000007	0.0998	sub-03	1	sequence	stimulus	Katze	NaN	NaN	128.0	NaN	NaN	3.0	3.0	NaN	NaN	NaN	NaN	NaN
401.9274501	0.1337	sub-03	1	sequence	interval	dot	NaN	NaN	NaN	NaN	NaN	NaN	NaN	NaN	NaN	NaN	NaN	NaN
402.0611589	0.0999	sub-03	1	sequence	stimulus	Haus	NaN	NaN	128.0	NaN	NaN	2.0	4.0	NaN	NaN	NaN	NaN	NaN
402.1610528000001	0.1335	sub-03	1	sequence	interval	dot	NaN	NaN	NaN	NaN	NaN	NaN	NaN	NaN	NaN	NaN	NaN	NaN
402.2945451000005	0.1	sub-03	1	sequence	stimulus	Gesicht	NaN	NaN	128.0	NaN	NaN	1.0	5.0	NaN	NaN	NaN	NaN	NaN
402.3945033	0.1334	sub-03	1	sequence	interval	dot	NaN	NaN	NaN	NaN	NaN	NaN	NaN	NaN	NaN	NaN	NaN	NaN
402.52794040000026	8.0717	sub-03	1	sequence	delay	dot	NaN	NaN	NaN	NaN	NaN	NaN	NaN	NaN	NaN	NaN	NaN	NaN
410.5733041000003	0.8125	sub-03	1	sequence	choice	choice	left	NaN	NaN	-9.781978199999685	True	NaN	NaN	left	True	3.0	4.0	3.0
411.3860303000001	0.4999	sub-03	1	sequence	feedback	NaN	NaN	NaN	NaN	NaN	NaN	NaN	NaN	NaN	NaN	NaN	NaN	NaN
411.8861207	1.0004	sub-03	1	sequence	cue	Schuh	NaN	NaN	NaN	NaN	NaN	NaN	NaN	NaN	NaN	NaN	NaN	NaN
412.88655650000055	2.0017	sub-03	1	sequence	blank	blank	NaN	NaN	NaN	NaN	NaN	NaN	NaN	NaN	NaN	NaN	NaN	NaN
414.8882368000004	0.3003	sub-03	1	sequence	fixation	dot	NaN	NaN	NaN	NaN	NaN	NaN	NaN	NaN	NaN	NaN	NaN	NaN
415.20595180000055	0.0992	sub-03	1	sequence	stimulus	Stuhl	NaN	NaN	512.0	NaN	NaN	5.0	1.0	NaN	NaN	NaN	NaN	NaN
415.3051038000003	0.5171	sub-03	1	sequence	interval	dot	NaN	NaN	NaN	NaN	NaN	NaN	NaN	NaN	NaN	NaN	NaN	NaN
415.8222248000002	0.0999	sub-03	1	sequence	stimulus	Haus	NaN	NaN	512.0	NaN	NaN	2.0	2.0	NaN	NaN	NaN	NaN	NaN
415.9221438000004	0.5172	sub-03	1	sequence	interval	dot	NaN	NaN	NaN	NaN	NaN	NaN	NaN	NaN	NaN	NaN	NaN	NaN
416.4393841000001	0.1	sub-03	1	sequence	stimulus	Schuh	NaN	NaN	512.0	NaN	NaN	4.0	3.0	NaN	NaN	NaN	NaN	NaN
416.5393451	0.5173	sub-03	1	sequence	interval	dot	NaN	NaN	NaN	NaN	NaN	NaN	NaN	NaN	NaN	NaN	NaN	NaN
417.0566371000005	0.0998	sub-03	1	sequence	stimulus	Gesicht	NaN	NaN	512.0	NaN	NaN	1.0	4.0	NaN	NaN	NaN	NaN	NaN
417.1564799000007	0.5172	sub-03	1	sequence	interval	dot	NaN	NaN	NaN	NaN	NaN	NaN	NaN	NaN	NaN	NaN	NaN	NaN
417.6737017000005	0.1	sub-03	1	sequence	stimulus	Katze	NaN	NaN	512.0	NaN	NaN	3.0	5.0	NaN	NaN	NaN	NaN	NaN
417.7736583000005	0.517	sub-03	1	sequence	interval	dot	NaN	NaN	NaN	NaN	NaN	NaN	NaN	NaN	NaN	NaN	NaN	NaN
418.2906642000007	6.1369	sub-03	1	sequence	delay	dot	NaN	NaN	NaN	NaN	NaN	NaN	NaN	NaN	NaN	NaN	NaN	NaN
424.4050610000004	1.3423	sub-03	1	sequence	choice	choice	right	NaN	NaN	-9.234317399999782	True	NaN	NaN	right	True	4.0	3.0	3.0
425.74767390000034	0.5003	sub-03	1	sequence	feedback	NaN	NaN	NaN	NaN	NaN	NaN	NaN	NaN	NaN	NaN	NaN	NaN	NaN
426.2482289	1.0004	sub-03	1	sequence	cue	Schuh	NaN	NaN	NaN	NaN	NaN	NaN	NaN	NaN	NaN	NaN	NaN	NaN
427.24863820000064	2.0013	sub-03	1	sequence	blank	blank	NaN	NaN	NaN	NaN	NaN	NaN	NaN	NaN	NaN	NaN	NaN	NaN
429.24991350000073	0.3002	sub-03	1	sequence	fixation	dot	NaN	NaN	NaN	NaN	NaN	NaN	NaN	NaN	NaN	NaN	NaN	NaN
429.5685841000004	0.1149	sub-03	1	sequence	stimulus	Haus	NaN	NaN	64.0	NaN	NaN	2.0	1.0	NaN	NaN	NaN	NaN	NaN
429.6835159000002	0.0669	sub-03	1	sequence	interval	dot	NaN	NaN	NaN	NaN	NaN	NaN	NaN	NaN	NaN	NaN	NaN	NaN
429.7504025000008	0.0999	sub-03	1	sequence	stimulus	Gesicht	NaN	NaN	64.0	NaN	NaN	1.0	2.0	NaN	NaN	NaN	NaN	NaN
429.850297	0.0669	sub-03	1	sequence	interval	dot	NaN	NaN	NaN	NaN	NaN	NaN	NaN	NaN	NaN	NaN	NaN	NaN
429.9171877000008	0.0999	sub-03	1	sequence	stimulus	Schuh	NaN	NaN	64.0	NaN	NaN	4.0	3.0	NaN	NaN	NaN	NaN	NaN
430.0170579000005	0.0669	sub-03	1	sequence	interval	dot	NaN	NaN	NaN	NaN	NaN	NaN	NaN	NaN	NaN	NaN	NaN	NaN
430.0840000000008	0.0998	sub-03	1	sequence	stimulus	Stuhl	NaN	NaN	64.0	NaN	NaN	5.0	4.0	NaN	NaN	NaN	NaN	NaN
430.18382310000015	0.0668	sub-03	1	sequence	interval	dot	NaN	NaN	NaN	NaN	NaN	NaN	NaN	NaN	NaN	NaN	NaN	NaN
430.2506520000006	0.1001	sub-03	1	sequence	stimulus	Katze	NaN	NaN	64.0	NaN	NaN	3.0	5.0	NaN	NaN	NaN	NaN	NaN
430.3507628000007	0.0665	sub-03	1	sequence	interval	dot	NaN	NaN	NaN	NaN	NaN	NaN	NaN	NaN	NaN	NaN	NaN	NaN
430.4172707000007	8.3886	sub-03	1	sequence	delay	dot	NaN	NaN	NaN	NaN	NaN	NaN	NaN	NaN	NaN	NaN	NaN	NaN
438.7826971000004	1.3262	sub-03	1	sequence	choice	choice	right	NaN	NaN	-9.260389599999144	True	NaN	NaN	right	True	5.0	3.0	3.0
440.1092013000007	0.4999	sub-03	1	sequence	feedback	NaN	NaN	NaN	NaN	NaN	NaN	NaN	NaN	NaN	NaN	NaN	NaN	NaN
440.6094311000006	8.8572	sub-03	1	other	break	break	NaN	NaN	NaN	NaN	NaN	NaN	NaN	NaN	NaN	NaN	NaN	NaN
453.2870321	0.4992	sub-03	1	localizer	stimulus	Haus	NaN	0	2.752302100000634	NaN	True	NaN	NaN	NaN	NaN	NaN	NaN	NaN
453.78623830000015	2.7523	sub-03	1	localizer	blank	interval	NaN	NaN	NaN	NaN	NaN	NaN	NaN	NaN	NaN	NaN	NaN	NaN
456.83977630000027	0.4994	sub-03	1	localizer	stimulus	Haus	NaN	0	3.0854100999994785	NaN	True	NaN	NaN	NaN	NaN	NaN	NaN	NaN
457.3227866000007	3.0854	sub-03	1	localizer	blank	interval	NaN	NaN	NaN	NaN	NaN	NaN	NaN	NaN	NaN	NaN	NaN	NaN
460.7093512000001	0.4995	sub-03	1	localizer	stimulus	Katze	NaN	180	1.817894499999909	-9.88435649999974	True	NaN	NaN	NaN	NaN	NaN	NaN	NaN
461.1924107000005	1.8179	sub-03	1	localizer	blank	interval	NaN	NaN	NaN	NaN	NaN	NaN	NaN	NaN	NaN	NaN	NaN	NaN
463.3114952000005	0.4994	sub-03	1	localizer	stimulus	Haus	NaN	0	2.451777399999571	NaN	True	NaN	NaN	NaN	NaN	NaN	NaN	NaN
463.7944493000005	2.4518	sub-03	1	localizer	blank	interval	NaN	NaN	NaN	NaN	NaN	NaN	NaN	NaN	NaN	NaN	NaN	NaN
466.5476000000008	0.4993	sub-03	1	localizer	stimulus	Stuhl	NaN	0	2.285124799999778	NaN	True	NaN	NaN	NaN	NaN	NaN	NaN	NaN
467.03037230000064	2.2851	sub-03	1	localizer	blank	interval	NaN	NaN	NaN	NaN	NaN	NaN	NaN	NaN	NaN	NaN	NaN	NaN
469.6166247000001	0.4996	sub-03	1	localizer	stimulus	Schuh	NaN	0	2.401543400000321	NaN	True	NaN	NaN	NaN	NaN	NaN	NaN	NaN
470.0998165000001	2.4015	sub-03	1	localizer	blank	interval	NaN	NaN	NaN	NaN	NaN	NaN	NaN	NaN	NaN	NaN	NaN	NaN
472.8025146	0.5001	sub-03	1	localizer	stimulus	Katze	NaN	0	1.9849692000007053	NaN	True	NaN	NaN	NaN	NaN	NaN	NaN	NaN
473.2855344	1.985	sub-03	1	localizer	blank	interval	NaN	NaN	NaN	NaN	NaN	NaN	NaN	NaN	NaN	NaN	NaN	NaN
475.5714581000002	0.4995	sub-03	1	localizer	stimulus	Schuh	NaN	0	2.71862200000038	NaN	True	NaN	NaN	NaN	NaN	NaN	NaN	NaN
476.054521	2.7186	sub-03	1	localizer	blank	interval	NaN	NaN	NaN	NaN	NaN	NaN	NaN	NaN	NaN	NaN	NaN	NaN
479.0742388000008	0.4994	sub-03	1	localizer	stimulus	Schuh	NaN	180	2.3852338000006625	-9.937191599999096	True	NaN	NaN	NaN	NaN	NaN	NaN	NaN
479.557127	2.3852	sub-03	1	localizer	blank	interval	NaN	NaN	NaN	NaN	NaN	NaN	NaN	NaN	NaN	NaN	NaN	NaN
482.2434057	0.4996	sub-03	1	localizer	stimulus	Stuhl	NaN	0	1.868080099999986	NaN	True	NaN	NaN	NaN	NaN	NaN	NaN	NaN
482.7264482000001	1.8681	sub-03	1	localizer	blank	interval	NaN	NaN	NaN	NaN	NaN	NaN	NaN	NaN	NaN	NaN	NaN	NaN
484.8955902000007	0.4994	sub-03	1	localizer	stimulus	Stuhl	NaN	180	2.885753699999384	-9.917839599998842	True	NaN	NaN	NaN	NaN	NaN	NaN	NaN
485.3784773000007	2.8858	sub-03	1	localizer	blank	interval	NaN	NaN	NaN	NaN	NaN	NaN	NaN	NaN	NaN	NaN	NaN	NaN
488.5652358000007	0.4996	sub-03	1	localizer	stimulus	Katze	NaN	0	3.0023228999998537	NaN	True	NaN	NaN	NaN	NaN	NaN	NaN	NaN
489.0482082000008	3.0023	sub-03	1	localizer	blank	interval	NaN	NaN	NaN	NaN	NaN	NaN	NaN	NaN	NaN	NaN	NaN	NaN
492.3516669999999	0.4995	sub-03	1	localizer	stimulus	Gesicht	NaN	180	1.684610999999677	-9.901996699999472	True	NaN	NaN	NaN	NaN	NaN	NaN	NaN
492.83452000000034	1.6846	sub-03	1	localizer	blank	interval	NaN	NaN	NaN	NaN	NaN	NaN	NaN	NaN	NaN	NaN	NaN	NaN
494.82045199999993	0.4994	sub-03	1	localizer	stimulus	Katze	NaN	0	3.252721400000155	NaN	True	NaN	NaN	NaN	NaN	NaN	NaN	NaN
495.3031896000002	3.2527	sub-03	1	localizer	blank	interval	NaN	NaN	NaN	NaN	NaN	NaN	NaN	NaN	NaN	NaN	NaN	NaN
498.8570514000003	0.4998	sub-03	1	localizer	stimulus	Katze	NaN	0	2.8185741999996026	NaN	True	NaN	NaN	NaN	NaN	NaN	NaN	NaN
499.34013230000073	2.8186	sub-03	1	localizer	blank	interval	NaN	NaN	NaN	NaN	NaN	NaN	NaN	NaN	NaN	NaN	NaN	NaN
502.4598047	0.4994	sub-03	1	localizer	stimulus	Stuhl	NaN	0	1.7680122000001006	NaN	True	NaN	NaN	NaN	NaN	NaN	NaN	NaN
502.9427560000004	1.768	sub-03	1	localizer	blank	interval	NaN	NaN	NaN	NaN	NaN	NaN	NaN	NaN	NaN	NaN	NaN	NaN
505.01186680000046	0.4995	sub-03	1	localizer	stimulus	Haus	NaN	180	2.2518002000006163	-9.842212699998528	True	NaN	NaN	NaN	NaN	NaN	NaN	NaN
505.4948488	2.2518	sub-03	1	localizer	blank	interval	NaN	NaN	NaN	NaN	NaN	NaN	NaN	NaN	NaN	NaN	NaN	NaN
508.0477724000002	0.4995	sub-03	1	localizer	stimulus	Schuh	NaN	0	2.1016014999995036	NaN	True	NaN	NaN	NaN	NaN	NaN	NaN	NaN
508.5307550000007	2.1016	sub-03	1	localizer	blank	interval	NaN	NaN	NaN	NaN	NaN	NaN	NaN	NaN	NaN	NaN	NaN	NaN
510.9334974000003	0.4994	sub-03	1	localizer	stimulus	Gesicht	NaN	0	3.085633400000006	NaN	True	NaN	NaN	NaN	NaN	NaN	NaN	NaN
511.4162999	3.0856	sub-03	1	localizer	blank	interval	NaN	NaN	NaN	NaN	NaN	NaN	NaN	NaN	NaN	NaN	NaN	NaN
514.8031710000005	0.4996	sub-03	1	localizer	stimulus	Haus	NaN	0	2.8857332000006863	NaN	True	NaN	NaN	NaN	NaN	NaN	NaN	NaN
515.2860572	2.8857	sub-03	1	localizer	blank	interval	NaN	NaN	NaN	NaN	NaN	NaN	NaN	NaN	NaN	NaN	NaN	NaN
518.4729251000008	0.4995	sub-03	1	localizer	stimulus	Gesicht	NaN	0	1.6511491999999635	NaN	True	NaN	NaN	NaN	NaN	NaN	NaN	NaN
518.9557841000005	1.6511	sub-03	1	localizer	blank	interval	NaN	NaN	NaN	NaN	NaN	NaN	NaN	NaN	NaN	NaN	NaN	NaN
520.9081237	0.4994	sub-03	1	localizer	stimulus	Gesicht	NaN	0	2.051615100000163	NaN	True	NaN	NaN	NaN	NaN	NaN	NaN	NaN
521.3910114	2.0516	sub-03	1	localizer	blank	interval	NaN	NaN	NaN	NaN	NaN	NaN	NaN	NaN	NaN	NaN	NaN	NaN
523.7437090000003	0.4994	sub-03	1	localizer	stimulus	Stuhl	NaN	0	3.652854599999955	NaN	True	NaN	NaN	NaN	NaN	NaN	NaN	NaN
524.2265555000004	3.6529	sub-03	1	localizer	blank	interval	NaN	NaN	NaN	NaN	NaN	NaN	NaN	NaN	NaN	NaN	NaN	NaN
528.1806960000004	0.4995	sub-03	1	localizer	stimulus	Gesicht	NaN	0	1.8012755999998262	NaN	True	NaN	NaN	NaN	NaN	NaN	NaN	NaN
528.6636928000007	1.8013	sub-03	1	localizer	blank	interval	NaN	NaN	NaN	NaN	NaN	NaN	NaN	NaN	NaN	NaN	NaN	NaN
530.7661910000006	0.4995	sub-03	1	localizer	stimulus	Schuh	NaN	0	2.5183195999998134	NaN	True	NaN	NaN	NaN	NaN	NaN	NaN	NaN
531.2491365000005	2.5183	sub-03	1	localizer	blank	interval	NaN	NaN	NaN	NaN	NaN	NaN	NaN	NaN	NaN	NaN	NaN	NaN
537.2539270000007	1.0007	sub-03	1	sequence	cue	Stuhl	NaN	NaN	NaN	NaN	NaN	NaN	NaN	NaN	NaN	NaN	NaN	NaN
538.2545992000005	2.0017	sub-03	1	sequence	blank	blank	NaN	NaN	NaN	NaN	NaN	NaN	NaN	NaN	NaN	NaN	NaN	NaN
540.2562878000008	0.3003	sub-03	1	sequence	fixation	dot	NaN	NaN	NaN	NaN	NaN	NaN	NaN	NaN	NaN	NaN	NaN	NaN
540.5751491000001	0.1151	sub-03	1	sequence	stimulus	Katze	NaN	NaN	128.0	NaN	NaN	3.0	1.0	NaN	NaN	NaN	NaN	NaN
540.6902286000004	0.1335	sub-03	1	sequence	interval	dot	NaN	NaN	NaN	NaN	NaN	NaN	NaN	NaN	NaN	NaN	NaN	NaN
540.8236821	0.0999	sub-03	1	sequence	stimulus	Schuh	NaN	NaN	128.0	NaN	NaN	4.0	2.0	NaN	NaN	NaN	NaN	NaN
540.9235887000004	0.1336	sub-03	1	sequence	interval	dot	NaN	NaN	NaN	NaN	NaN	NaN	NaN	NaN	NaN	NaN	NaN	NaN
541.0572055000002	0.101	sub-03	1	sequence	stimulus	Gesicht	NaN	NaN	128.0	NaN	NaN	1.0	3.0	NaN	NaN	NaN	NaN	NaN
541.1581561000003	0.1326	sub-03	1	sequence	interval	dot	NaN	NaN	NaN	NaN	NaN	NaN	NaN	NaN	NaN	NaN	NaN	NaN
541.2907380000006	0.0998	sub-03	1	sequence	stimulus	Haus	NaN	NaN	128.0	NaN	NaN	2.0	4.0	NaN	NaN	NaN	NaN	NaN
541.3905652000003	0.1335	sub-03	1	sequence	interval	dot	NaN	NaN	NaN	NaN	NaN	NaN	NaN	NaN	NaN	NaN	NaN	NaN
541.5241055000006	0.0999	sub-03	1	sequence	stimulus	Stuhl	NaN	NaN	128.0	NaN	NaN	5.0	5.0	NaN	NaN	NaN	NaN	NaN
541.6239602000005	0.1335	sub-03	1	sequence	interval	dot	NaN	NaN	NaN	NaN	NaN	NaN	NaN	NaN	NaN	NaN	NaN	NaN
541.7574431000003	8.0552	sub-03	1	sequence	delay	dot	NaN	NaN	NaN	NaN	NaN	NaN	NaN	NaN	NaN	NaN	NaN	NaN
549.8006284000003	1.0983	sub-03	1	sequence	choice	choice	right	NaN	NaN	-9.474760699999024	True	NaN	NaN	right	True	2.0	5.0	5.0
550.8992619999999	0.4997	sub-03	1	sequence	feedback	NaN	NaN	NaN	NaN	NaN	NaN	NaN	NaN	NaN	NaN	NaN	NaN	NaN
551.3991357000004	1.0001	sub-03	1	sequence	cue	Gesicht	NaN	NaN	NaN	NaN	NaN	NaN	NaN	NaN	NaN	NaN	NaN	NaN
552.3992877999999	2.0016	sub-03	1	sequence	blank	blank	NaN	NaN	NaN	NaN	NaN	NaN	NaN	NaN	NaN	NaN	NaN	NaN
554.4009152000008	0.3003	sub-03	1	sequence	fixation	dot	NaN	NaN	NaN	NaN	NaN	NaN	NaN	NaN	NaN	NaN	NaN	NaN
554.7196256000007	0.115	sub-03	1	sequence	stimulus	Stuhl	NaN	NaN	512.0	NaN	NaN	5.0	1.0	NaN	NaN	NaN	NaN	NaN
554.8346300000003	0.5173	sub-03	1	sequence	interval	dot	NaN	NaN	NaN	NaN	NaN	NaN	NaN	NaN	NaN	NaN	NaN	NaN
555.3519630999999	0.0999	sub-03	1	sequence	stimulus	Haus	NaN	NaN	512.0	NaN	NaN	2.0	2.0	NaN	NaN	NaN	NaN	NaN
555.4518792000008	0.5172	sub-03	1	sequence	interval	dot	NaN	NaN	NaN	NaN	NaN	NaN	NaN	NaN	NaN	NaN	NaN	NaN
555.9691286000007	0.1	sub-03	1	sequence	stimulus	Schuh	NaN	NaN	512.0	NaN	NaN	4.0	3.0	NaN	NaN	NaN	NaN	NaN
556.0690940000004	0.5172	sub-03	1	sequence	interval	dot	NaN	NaN	NaN	NaN	NaN	NaN	NaN	NaN	NaN	NaN	NaN	NaN
556.5862938	0.0998	sub-03	1	sequence	stimulus	Gesicht	NaN	NaN	512.0	NaN	NaN	1.0	4.0	NaN	NaN	NaN	NaN	NaN
556.6861346000005	0.5172	sub-03	1	sequence	interval	dot	NaN	NaN	NaN	NaN	NaN	NaN	NaN	NaN	NaN	NaN	NaN	NaN
557.2033563000005	0.1001	sub-03	1	sequence	stimulus	Katze	NaN	NaN	512.0	NaN	NaN	3.0	5.0	NaN	NaN	NaN	NaN	NaN
557.3034889	0.517	sub-03	1	sequence	interval	dot	NaN	NaN	NaN	NaN	NaN	NaN	NaN	NaN	NaN	NaN	NaN	NaN
557.8205170000001	6.1368	sub-03	1	sequence	delay	dot	NaN	NaN	NaN	NaN	NaN	NaN	NaN	NaN	NaN	NaN	NaN	NaN
563.9442945000001	0.9658	sub-03	1	sequence	choice	choice	left	NaN	NaN	-9.611616799998956	True	NaN	NaN	left	True	4.0	3.0	4.0
564.9103853000006	0.4998	sub-03	1	sequence	feedback	NaN	NaN	NaN	NaN	NaN	NaN	NaN	NaN	NaN	NaN	NaN	NaN	NaN
565.4104271000006	1.0004	sub-03	1	sequence	cue	Gesicht	NaN	NaN	NaN	NaN	NaN	NaN	NaN	NaN	NaN	NaN	NaN	NaN
566.4108270000006	2.0015	sub-03	1	sequence	blank	blank	NaN	NaN	NaN	NaN	NaN	NaN	NaN	NaN	NaN	NaN	NaN	NaN
568.4123255000004	0.3004	sub-03	1	sequence	fixation	dot	NaN	NaN	NaN	NaN	NaN	NaN	NaN	NaN	NaN	NaN	NaN	NaN
568.7302250000002	0.0993	sub-03	1	sequence	stimulus	Stuhl	NaN	NaN	128.0	NaN	NaN	5.0	1.0	NaN	NaN	NaN	NaN	NaN
568.8295481000005	0.1333	sub-03	1	sequence	interval	dot	NaN	NaN	NaN	NaN	NaN	NaN	NaN	NaN	NaN	NaN	NaN	NaN
568.9628687000004	0.1001	sub-03	1	sequence	stimulus	Schuh	NaN	NaN	128.0	NaN	NaN	4.0	2.0	NaN	NaN	NaN	NaN	NaN
569.0629552	0.1338	sub-03	1	sequence	interval	dot	NaN	NaN	NaN	NaN	NaN	NaN	NaN	NaN	NaN	NaN	NaN	NaN
569.1967350000004	0.0999	sub-03	1	sequence	stimulus	Katze	NaN	NaN	128.0	NaN	NaN	3.0	3.0	NaN	NaN	NaN	NaN	NaN
569.2966399000006	0.1335	sub-03	1	sequence	interval	dot	NaN	NaN	NaN	NaN	NaN	NaN	NaN	NaN	NaN	NaN	NaN	NaN
569.4301635000002	0.1	sub-03	1	sequence	stimulus	Haus	NaN	NaN	128.0	NaN	NaN	2.0	4.0	NaN	NaN	NaN	NaN	NaN
569.5301554000007	0.1334	sub-03	1	sequence	interval	dot	NaN	NaN	NaN	NaN	NaN	NaN	NaN	NaN	NaN	NaN	NaN	NaN
569.6635441000008	0.1	sub-03	1	sequence	stimulus	Gesicht	NaN	NaN	128.0	NaN	NaN	1.0	5.0	NaN	NaN	NaN	NaN	NaN
569.7635242000006	0.1335	sub-03	1	sequence	interval	dot	NaN	NaN	NaN	NaN	NaN	NaN	NaN	NaN	NaN	NaN	NaN	NaN
569.8970408000005	8.0717	sub-03	1	sequence	delay	dot	NaN	NaN	NaN	NaN	NaN	NaN	NaN	NaN	NaN	NaN	NaN	NaN
577.9580039000002	0.9467	sub-03	1	sequence	choice	choice	right	NaN	NaN	-9.630841999999577	True	NaN	NaN	right	True	3.0	5.0	5.0
578.9049594000007	0.4999	sub-03	1	sequence	feedback	NaN	NaN	NaN	NaN	NaN	NaN	NaN	NaN	NaN	NaN	NaN	NaN	NaN
579.4050628000005	1.0004	sub-03	1	sequence	cue	Haus	NaN	NaN	NaN	NaN	NaN	NaN	NaN	NaN	NaN	NaN	NaN	NaN
580.4055100000005	2.0017	sub-03	1	sequence	blank	blank	NaN	NaN	NaN	NaN	NaN	NaN	NaN	NaN	NaN	NaN	NaN	NaN
582.4072018000006	0.3003	sub-03	1	sequence	fixation	dot	NaN	NaN	NaN	NaN	NaN	NaN	NaN	NaN	NaN	NaN	NaN	NaN
582.7259258000004	0.1149	sub-03	1	sequence	stimulus	Gesicht	NaN	NaN	64.0	NaN	NaN	1.0	1.0	NaN	NaN	NaN	NaN	NaN
582.8408261000004	0.0669	sub-03	1	sequence	interval	dot	NaN	NaN	NaN	NaN	NaN	NaN	NaN	NaN	NaN	NaN	NaN	NaN
582.9076914000007	0.1	sub-03	1	sequence	stimulus	Schuh	NaN	NaN	64.0	NaN	NaN	4.0	2.0	NaN	NaN	NaN	NaN	NaN
583.0076809000002	0.0668	sub-03	1	sequence	interval	dot	NaN	NaN	NaN	NaN	NaN	NaN	NaN	NaN	NaN	NaN	NaN	NaN
583.0745244	0.0999	sub-03	1	sequence	stimulus	Stuhl	NaN	NaN	64.0	NaN	NaN	5.0	3.0	NaN	NaN	NaN	NaN	NaN
583.1744584000007	0.0668	sub-03	1	sequence	interval	dot	NaN	NaN	NaN	NaN	NaN	NaN	NaN	NaN	NaN	NaN	NaN	NaN
583.2412438000001	0.0999	sub-03	1	sequence	stimulus	Haus	NaN	NaN	64.0	NaN	NaN	2.0	4.0	NaN	NaN	NaN	NaN	NaN
583.3411257000007	0.0669	sub-03	1	sequence	interval	dot	NaN	NaN	NaN	NaN	NaN	NaN	NaN	NaN	NaN	NaN	NaN	NaN
583.4079870000005	0.0999	sub-03	1	sequence	stimulus	Katze	NaN	NaN	64.0	NaN	NaN	3.0	5.0	NaN	NaN	NaN	NaN	NaN
583.5078864000006	0.0668	sub-03	1	sequence	interval	dot	NaN	NaN	NaN	NaN	NaN	NaN	NaN	NaN	NaN	NaN	NaN	NaN
583.5746404000001	8.3886	sub-03	1	sequence	delay	dot	NaN	NaN	NaN	NaN	NaN	NaN	NaN	NaN	NaN	NaN	NaN	NaN
591.9456349000002	0.9709	sub-03	1	sequence	choice	choice	right	NaN	NaN	-9.617898199999216	True	NaN	NaN	right	True	2.0	4.0	4.0
592.9167675000008	0.4994	sub-03	1	sequence	feedback	NaN	NaN	NaN	NaN	NaN	NaN	NaN	NaN	NaN	NaN	NaN	NaN	NaN
593.4164446000004	1.0005	sub-03	1	sequence	cue	Schuh	NaN	NaN	NaN	NaN	NaN	NaN	NaN	NaN	NaN	NaN	NaN	NaN
594.4169263000003	2.0015	sub-03	1	sequence	blank	blank	NaN	NaN	NaN	NaN	NaN	NaN	NaN	NaN	NaN	NaN	NaN	NaN
596.4184500000001	0.3002	sub-03	1	sequence	fixation	dot	NaN	NaN	NaN	NaN	NaN	NaN	NaN	NaN	NaN	NaN	NaN	NaN
596.7370154	0.1149	sub-03	1	sequence	stimulus	Haus	NaN	NaN	64.0	NaN	NaN	2.0	1.0	NaN	NaN	NaN	NaN	NaN
596.8519565000006	0.067	sub-03	1	sequence	interval	dot	NaN	NaN	NaN	NaN	NaN	NaN	NaN	NaN	NaN	NaN	NaN	NaN
596.9189463000002	0.0999	sub-03	1	sequence	stimulus	Gesicht	NaN	NaN	64.0	NaN	NaN	1.0	2.0	NaN	NaN	NaN	NaN	NaN
597.0188703000003	0.0669	sub-03	1	sequence	interval	dot	NaN	NaN	NaN	NaN	NaN	NaN	NaN	NaN	NaN	NaN	NaN	NaN
597.0857324000008	0.1	sub-03	1	sequence	stimulus	Schuh	NaN	NaN	64.0	NaN	NaN	4.0	3.0	NaN	NaN	NaN	NaN	NaN
597.1857075000007	0.0668	sub-03	1	sequence	interval	dot	NaN	NaN	NaN	NaN	NaN	NaN	NaN	NaN	NaN	NaN	NaN	NaN
597.2525482000001	0.1	sub-03	1	sequence	stimulus	Stuhl	NaN	NaN	64.0	NaN	NaN	5.0	4.0	NaN	NaN	NaN	NaN	NaN
597.3525413000007	0.0668	sub-03	1	sequence	interval	dot	NaN	NaN	NaN	NaN	NaN	NaN	NaN	NaN	NaN	NaN	NaN	NaN
597.4193391000008	0.0999	sub-03	1	sequence	stimulus	Katze	NaN	NaN	64.0	NaN	NaN	3.0	5.0	NaN	NaN	NaN	NaN	NaN
597.5192811000006	0.0667	sub-03	1	sequence	interval	dot	NaN	NaN	NaN	NaN	NaN	NaN	NaN	NaN	NaN	NaN	NaN	NaN
597.5860170000005	8.3719	sub-03	1	sequence	delay	dot	NaN	NaN	NaN	NaN	NaN	NaN	NaN	NaN	NaN	NaN	NaN	NaN
605.9333591000004	0.9607	sub-03	1	sequence	choice	choice	right	NaN	NaN	-9.62853989999894	True	NaN	NaN	right	True	5.0	3.0	3.0
606.8943457000005	0.4999	sub-03	1	sequence	feedback	NaN	NaN	NaN	NaN	NaN	NaN	NaN	NaN	NaN	NaN	NaN	NaN	NaN
607.3944774000001	1.0003	sub-03	1	sequence	cue	Haus	NaN	NaN	NaN	NaN	NaN	NaN	NaN	NaN	NaN	NaN	NaN	NaN
608.3947665000005	2.0018	sub-03	1	sequence	blank	blank	NaN	NaN	NaN	NaN	NaN	NaN	NaN	NaN	NaN	NaN	NaN	NaN
610.3965493000005	0.3001	sub-03	1	sequence	fixation	dot	NaN	NaN	NaN	NaN	NaN	NaN	NaN	NaN	NaN	NaN	NaN	NaN
610.7142688000004	0.0992	sub-03	1	sequence	stimulus	Schuh	NaN	NaN	32.0	NaN	NaN	4.0	1.0	NaN	NaN	NaN	NaN	NaN
610.8134731	0.0335	sub-03	1	sequence	interval	dot	NaN	NaN	NaN	NaN	NaN	NaN	NaN	NaN	NaN	NaN	NaN	NaN
610.8469288000006	0.1	sub-03	1	sequence	stimulus	Katze	NaN	NaN	32.0	NaN	NaN	3.0	2.0	NaN	NaN	NaN	NaN	NaN
610.9468985000003	0.0336	sub-03	1	sequence	interval	dot	NaN	NaN	NaN	NaN	NaN	NaN	NaN	NaN	NaN	NaN	NaN	NaN
610.9805037000006	0.0998	sub-03	1	sequence	stimulus	Stuhl	NaN	NaN	32.0	NaN	NaN	5.0	3.0	NaN	NaN	NaN	NaN	NaN
611.0803507	0.0335	sub-03	1	sequence	interval	dot	NaN	NaN	NaN	NaN	NaN	NaN	NaN	NaN	NaN	NaN	NaN	NaN
611.1138456000008	0.1	sub-03	1	sequence	stimulus	Haus	NaN	NaN	32.0	NaN	NaN	2.0	4.0	NaN	NaN	NaN	NaN	NaN
611.2138488	0.0335	sub-03	1	sequence	interval	dot	NaN	NaN	NaN	NaN	NaN	NaN	NaN	NaN	NaN	NaN	NaN	NaN
611.2473504	0.1	sub-03	1	sequence	stimulus	Gesicht	NaN	NaN	32.0	NaN	NaN	1.0	5.0	NaN	NaN	NaN	NaN	NaN
611.3473155000001	0.0334	sub-03	1	sequence	interval	dot	NaN	NaN	NaN	NaN	NaN	NaN	NaN	NaN	NaN	NaN	NaN	NaN
611.3806826	8.5386	sub-03	1	sequence	delay	dot	NaN	NaN	NaN	NaN	NaN	NaN	NaN	NaN	NaN	NaN	NaN	NaN
619.8951634000005	0.9769	sub-03	1	sequence	choice	choice	left	NaN	NaN	-9.605648299999302	True	NaN	NaN	left	True	4.0	5.0	4.0
620.8723146000002	0.4999	sub-03	1	sequence	feedback	NaN	NaN	NaN	NaN	NaN	NaN	NaN	NaN	NaN	NaN	NaN	NaN	NaN
621.3724388999999	1.0004	sub-03	1	sequence	cue	Haus	NaN	NaN	NaN	NaN	NaN	NaN	NaN	NaN	NaN	NaN	NaN	NaN
622.3728266000007	2.0017	sub-03	1	sequence	blank	blank	NaN	NaN	NaN	NaN	NaN	NaN	NaN	NaN	NaN	NaN	NaN	NaN
624.3744970000007	0.3004	sub-03	1	sequence	fixation	dot	NaN	NaN	NaN	NaN	NaN	NaN	NaN	NaN	NaN	NaN	NaN	NaN
624.6925574000006	0.099	sub-03	1	sequence	stimulus	Stuhl	NaN	NaN	512.0	NaN	NaN	5.0	1.0	NaN	NaN	NaN	NaN	NaN
624.7915865000004	0.5171	sub-03	1	sequence	interval	dot	NaN	NaN	NaN	NaN	NaN	NaN	NaN	NaN	NaN	NaN	NaN	NaN
625.3086578000002	0.0999	sub-03	1	sequence	stimulus	Schuh	NaN	NaN	512.0	NaN	NaN	4.0	2.0	NaN	NaN	NaN	NaN	NaN
625.4086009000002	0.5171	sub-03	1	sequence	interval	dot	NaN	NaN	NaN	NaN	NaN	NaN	NaN	NaN	NaN	NaN	NaN	NaN
625.9257428999999	0.1	sub-03	1	sequence	stimulus	Katze	NaN	NaN	512.0	NaN	NaN	3.0	3.0	NaN	NaN	NaN	NaN	NaN
626.0257158000004	0.5173	sub-03	1	sequence	interval	dot	NaN	NaN	NaN	NaN	NaN	NaN	NaN	NaN	NaN	NaN	NaN	NaN
626.5430031000005	0.0999	sub-03	1	sequence	stimulus	Gesicht	NaN	NaN	512.0	NaN	NaN	1.0	4.0	NaN	NaN	NaN	NaN	NaN
626.6428822000007	0.5172	sub-03	1	sequence	interval	dot	NaN	NaN	NaN	NaN	NaN	NaN	NaN	NaN	NaN	NaN	NaN	NaN
627.1600769000006	0.1	sub-03	1	sequence	stimulus	Haus	NaN	NaN	512.0	NaN	NaN	2.0	5.0	NaN	NaN	NaN	NaN	NaN
627.2600509000004	0.5171	sub-03	1	sequence	interval	dot	NaN	NaN	NaN	NaN	NaN	NaN	NaN	NaN	NaN	NaN	NaN	NaN
627.7771673000007	6.1532	sub-03	1	sequence	delay	dot	NaN	NaN	NaN	NaN	NaN	NaN	NaN	NaN	NaN	NaN	NaN	NaN
633.9089327000002	1.0578	sub-03	1	sequence	choice	choice	left	NaN	NaN	-9.520909999999276	True	NaN	NaN	left	True	5.0	4.0	5.0
634.9670062000005	0.4999	sub-03	1	sequence	feedback	NaN	NaN	NaN	NaN	NaN	NaN	NaN	NaN	NaN	NaN	NaN	NaN	NaN
635.4671058000004	1.0004	sub-03	1	sequence	cue	Katze	NaN	NaN	NaN	NaN	NaN	NaN	NaN	NaN	NaN	NaN	NaN	NaN
636.4674921000005	2.0017	sub-03	1	sequence	blank	blank	NaN	NaN	NaN	NaN	NaN	NaN	NaN	NaN	NaN	NaN	NaN	NaN
638.4692262000008	0.3002	sub-03	1	sequence	fixation	dot	NaN	NaN	NaN	NaN	NaN	NaN	NaN	NaN	NaN	NaN	NaN	NaN
638.7877552	0.1149	sub-03	1	sequence	stimulus	Gesicht	NaN	NaN	32.0	NaN	NaN	1.0	1.0	NaN	NaN	NaN	NaN	NaN
638.9027014000003	0.0336	sub-03	1	sequence	interval	dot	NaN	NaN	NaN	NaN	NaN	NaN	NaN	NaN	NaN	NaN	NaN	NaN
638.9362633000001	0.1	sub-03	1	sequence	stimulus	Schuh	NaN	NaN	32.0	NaN	NaN	4.0	2.0	NaN	NaN	NaN	NaN	NaN
639.0362300000006	0.0336	sub-03	1	sequence	interval	dot	NaN	NaN	NaN	NaN	NaN	NaN	NaN	NaN	NaN	NaN	NaN	NaN
639.0698205000008	0.0998	sub-03	1	sequence	stimulus	Stuhl	NaN	NaN	32.0	NaN	NaN	5.0	3.0	NaN	NaN	NaN	NaN	NaN
639.1696305000005	0.0335	sub-03	1	sequence	interval	dot	NaN	NaN	NaN	NaN	NaN	NaN	NaN	NaN	NaN	NaN	NaN	NaN
639.2031784000001	0.1001	sub-03	1	sequence	stimulus	Katze	NaN	NaN	32.0	NaN	NaN	3.0	4.0	NaN	NaN	NaN	NaN	NaN
639.3032458000007	0.0334	sub-03	1	sequence	interval	dot	NaN	NaN	NaN	NaN	NaN	NaN	NaN	NaN	NaN	NaN	NaN	NaN
639.3366606	0.0999	sub-03	1	sequence	stimulus	Haus	NaN	NaN	32.0	NaN	NaN	2.0	5.0	NaN	NaN	NaN	NaN	NaN
639.4365792000008	0.0333	sub-03	1	sequence	interval	dot	NaN	NaN	NaN	NaN	NaN	NaN	NaN	NaN	NaN	NaN	NaN	NaN
639.4699097000002	8.5221	sub-03	1	sequence	delay	dot	NaN	NaN	NaN	NaN	NaN	NaN	NaN	NaN	NaN	NaN	NaN	NaN
647.9746396999999	0.9868	sub-03	1	sequence	choice	choice	left	NaN	NaN	-9.590483799999674	True	NaN	NaN	left	True	4.0	5.0	4.0
648.9617059000002	0.4999	sub-03	1	sequence	feedback	NaN	NaN	NaN	NaN	NaN	NaN	NaN	NaN	NaN	NaN	NaN	NaN	NaN
653.2819820000004	0.4996	sub-03	1	localizer	stimulus	Haus	NaN	0	3.2357913000005283	NaN	True	NaN	NaN	NaN	NaN	NaN	NaN	NaN
653.764905	3.2358	sub-03	1	localizer	blank	interval	NaN	NaN	NaN	NaN	NaN	NaN	NaN	NaN	NaN	NaN	NaN	NaN
657.3018687000003	0.4995	sub-03	1	localizer	stimulus	Gesicht	NaN	180	3.2859448999997767	-9.948472899999617	True	NaN	NaN	NaN	NaN	NaN	NaN	NaN
657.7847543000007	3.2859	sub-03	1	localizer	blank	interval	NaN	NaN	NaN	NaN	NaN	NaN	NaN	NaN	NaN	NaN	NaN	NaN
661.3718455000007	0.4994	sub-03	1	localizer	stimulus	Gesicht	NaN	0	2.585403199999746	NaN	True	NaN	NaN	NaN	NaN	NaN	NaN	NaN
661.8547660000004	2.5854	sub-03	1	localizer	blank	interval	NaN	NaN	NaN	NaN	NaN	NaN	NaN	NaN	NaN	NaN	NaN	NaN
664.7412385000007	0.4995	sub-03	1	localizer	stimulus	Schuh	NaN	0	2.6686192000006486	NaN	True	NaN	NaN	NaN	NaN	NaN	NaN	NaN
665.2242139	2.6686	sub-03	1	localizer	blank	interval	NaN	NaN	NaN	NaN	NaN	NaN	NaN	NaN	NaN	NaN	NaN	NaN
668.1943384000006	0.4992	sub-03	1	localizer	stimulus	Haus	NaN	180	2.551994899999954	-9.865124399998422	True	NaN	NaN	NaN	NaN	NaN	NaN	NaN
668.6769981000007	2.552	sub-03	1	localizer	blank	interval	NaN	NaN	NaN	NaN	NaN	NaN	NaN	NaN	NaN	NaN	NaN	NaN
671.5302030000003	0.4996	sub-03	1	localizer	stimulus	Stuhl	NaN	0	2.9353623000006337	NaN	True	NaN	NaN	NaN	NaN	NaN	NaN	NaN
672.0131823000002	2.9354	sub-03	1	localizer	blank	interval	NaN	NaN	NaN	NaN	NaN	NaN	NaN	NaN	NaN	NaN	NaN	NaN
675.2497700000004	0.4995	sub-03	1	localizer	stimulus	Haus	NaN	0	2.1016414999994595	NaN	True	NaN	NaN	NaN	NaN	NaN	NaN	NaN
675.7326869000008	2.1016	sub-03	1	localizer	blank	interval	NaN	NaN	NaN	NaN	NaN	NaN	NaN	NaN	NaN	NaN	NaN	NaN
678.1353782000006	0.4995	sub-03	1	localizer	stimulus	Katze	NaN	0	1.8013492000000042	NaN	True	NaN	NaN	NaN	NaN	NaN	NaN	NaN
678.6183305000004	1.8013	sub-03	1	localizer	blank	interval	NaN	NaN	NaN	NaN	NaN	NaN	NaN	NaN	NaN	NaN	NaN	NaN
680.7208549000006	0.4995	sub-03	1	localizer	stimulus	Gesicht	NaN	0	2.301749199999904	NaN	True	NaN	NaN	NaN	NaN	NaN	NaN	NaN
681.2037657000001	2.3017	sub-03	1	localizer	blank	interval	NaN	NaN	NaN	NaN	NaN	NaN	NaN	NaN	NaN	NaN	NaN	NaN
683.8069089999999	0.4993	sub-03	1	localizer	stimulus	Stuhl	NaN	0	3.402712000000065	NaN	True	NaN	NaN	NaN	NaN	NaN	NaN	NaN
684.2896996	3.4027	sub-03	1	localizer	blank	interval	NaN	NaN	NaN	NaN	NaN	NaN	NaN	NaN	NaN	NaN	NaN	NaN
687.9935063000003	0.4994	sub-03	1	localizer	stimulus	Schuh	NaN	0	1.734759899999517	NaN	True	NaN	NaN	NaN	NaN	NaN	NaN	NaN
688.4763740000008	1.7348	sub-03	1	localizer	blank	interval	NaN	NaN	NaN	NaN	NaN	NaN	NaN	NaN	NaN	NaN	NaN	NaN
690.5121111000008	0.4996	sub-03	1	localizer	stimulus	Stuhl	NaN	0	2.685301700000309	NaN	True	NaN	NaN	NaN	NaN	NaN	NaN	NaN
690.9952080000003	2.6853	sub-03	1	localizer	blank	interval	NaN	NaN	NaN	NaN	NaN	NaN	NaN	NaN	NaN	NaN	NaN	NaN
693.9816488000006	0.4995	sub-03	1	localizer	stimulus	Stuhl	NaN	180	3.2358745000001363	-9.843671799999356	True	NaN	NaN	NaN	NaN	NaN	NaN	NaN
694.4645559999999	3.2359	sub-03	1	localizer	blank	interval	NaN	NaN	NaN	NaN	NaN	NaN	NaN	NaN	NaN	NaN	NaN	NaN
698.0015672	0.4994	sub-03	1	localizer	stimulus	Gesicht	NaN	0	2.5686249000000316	NaN	True	NaN	NaN	NaN	NaN	NaN	NaN	NaN
698.4845156000001	2.5686	sub-03	1	localizer	blank	interval	NaN	NaN	NaN	NaN	NaN	NaN	NaN	NaN	NaN	NaN	NaN	NaN
701.3543542000007	0.4994	sub-03	1	localizer	stimulus	Haus	NaN	0	3.018989799999872	NaN	True	NaN	NaN	NaN	NaN	NaN	NaN	NaN
701.8372433000004	3.019	sub-03	1	localizer	blank	interval	NaN	NaN	NaN	NaN	NaN	NaN	NaN	NaN	NaN	NaN	NaN	NaN
705.157537	0.4994	sub-03	1	localizer	stimulus	Haus	NaN	0	2.685384100000192	NaN	True	NaN	NaN	NaN	NaN	NaN	NaN	NaN
705.6404744000001	2.6854	sub-03	1	localizer	blank	interval	NaN	NaN	NaN	NaN	NaN	NaN	NaN	NaN	NaN	NaN	NaN	NaN
708.6272373000002	0.4991	sub-03	1	localizer	stimulus	Schuh	NaN	0	3.152575400000387	NaN	True	NaN	NaN	NaN	NaN	NaN	NaN	NaN
709.1097563000003	3.1526	sub-03	1	localizer	blank	interval	NaN	NaN	NaN	NaN	NaN	NaN	NaN	NaN	NaN	NaN	NaN	NaN
712.5635973000008	0.4993	sub-03	1	localizer	stimulus	Katze	NaN	0	1.834558300000026	NaN	True	NaN	NaN	NaN	NaN	NaN	NaN	NaN
713.0463992000005	1.8346	sub-03	1	localizer	blank	interval	NaN	NaN	NaN	NaN	NaN	NaN	NaN	NaN	NaN	NaN	NaN	NaN
715.1820876000002	0.4996	sub-03	1	localizer	stimulus	Stuhl	NaN	0	1.3343095999998695	NaN	True	NaN	NaN	NaN	NaN	NaN	NaN	NaN
715.6650563000003	1.3343	sub-03	1	localizer	blank	interval	NaN	NaN	NaN	NaN	NaN	NaN	NaN	NaN	NaN	NaN	NaN	NaN
717.3004994000003	0.4995	sub-03	1	localizer	stimulus	Katze	NaN	180	2.1849842000001445	-9.899293999999829	True	NaN	NaN	NaN	NaN	NaN	NaN	NaN
717.7834467000002	2.185	sub-03	1	localizer	blank	interval	NaN	NaN	NaN	NaN	NaN	NaN	NaN	NaN	NaN	NaN	NaN	NaN
720.2696259000004	0.4994	sub-03	1	localizer	stimulus	Katze	NaN	0	2.70198579999942	NaN	True	NaN	NaN	NaN	NaN	NaN	NaN	NaN
720.7525945000007	2.702	sub-03	1	localizer	blank	interval	NaN	NaN	NaN	NaN	NaN	NaN	NaN	NaN	NaN	NaN	NaN	NaN
723.7556942000001	0.4995	sub-03	1	localizer	stimulus	Schuh	NaN	0	1.984727699999894	NaN	True	NaN	NaN	NaN	NaN	NaN	NaN	NaN
724.2387991000005	1.9847	sub-03	1	localizer	blank	interval	NaN	NaN	NaN	NaN	NaN	NaN	NaN	NaN	NaN	NaN	NaN	NaN
726.5247266000006	0.4995	sub-03	1	localizer	stimulus	Schuh	NaN	180	2.652049899999838	-9.8748803999988	True	NaN	NaN	NaN	NaN	NaN	NaN	NaN
727.0078164000006	2.652	sub-03	1	localizer	blank	interval	NaN	NaN	NaN	NaN	NaN	NaN	NaN	NaN	NaN	NaN	NaN	NaN
729.9609890000002	0.4994	sub-03	1	localizer	stimulus	Gesicht	NaN	0	2.151565699999992	NaN	True	NaN	NaN	NaN	NaN	NaN	NaN	NaN
730.4439441000004	2.1516	sub-03	1	localizer	blank	interval	NaN	NaN	NaN	NaN	NaN	NaN	NaN	NaN	NaN	NaN	NaN	NaN
732.8966492	0.4994	sub-03	1	localizer	stimulus	Katze	NaN	0	3.335700999999972	NaN	True	NaN	NaN	NaN	NaN	NaN	NaN	NaN
733.3796259000001	3.3357	sub-03	1	localizer	blank	interval	NaN	NaN	NaN	NaN	NaN	NaN	NaN	NaN	NaN	NaN	NaN	NaN
740.2017591000003	1.0006	sub-03	1	sequence	cue	Schuh	NaN	NaN	NaN	NaN	NaN	NaN	NaN	NaN	NaN	NaN	NaN	NaN
741.2023593000004	2.0015	sub-03	1	sequence	blank	blank	NaN	NaN	NaN	NaN	NaN	NaN	NaN	NaN	NaN	NaN	NaN	NaN
743.2039144	0.3003	sub-03	1	sequence	fixation	dot	NaN	NaN	NaN	NaN	NaN	NaN	NaN	NaN	NaN	NaN	NaN	NaN
743.5225552000002	0.1153	sub-03	1	sequence	stimulus	Gesicht	NaN	NaN	64.0	NaN	NaN	1.0	1.0	NaN	NaN	NaN	NaN	NaN
743.6378301000004	0.0666	sub-03	1	sequence	interval	dot	NaN	NaN	NaN	NaN	NaN	NaN	NaN	NaN	NaN	NaN	NaN	NaN
743.7044526	0.1	sub-03	1	sequence	stimulus	Schuh	NaN	NaN	64.0	NaN	NaN	4.0	2.0	NaN	NaN	NaN	NaN	NaN
743.8044951000002	0.0668	sub-03	1	sequence	interval	dot	NaN	NaN	NaN	NaN	NaN	NaN	NaN	NaN	NaN	NaN	NaN	NaN
743.8712889000008	0.0999	sub-03	1	sequence	stimulus	Stuhl	NaN	NaN	64.0	NaN	NaN	5.0	3.0	NaN	NaN	NaN	NaN	NaN
743.9711862000004	0.0669	sub-03	1	sequence	interval	dot	NaN	NaN	NaN	NaN	NaN	NaN	NaN	NaN	NaN	NaN	NaN	NaN
744.0380656000007	0.0999	sub-03	1	sequence	stimulus	Haus	NaN	NaN	64.0	NaN	NaN	2.0	4.0	NaN	NaN	NaN	NaN	NaN
744.1379346000003	0.067	sub-03	1	sequence	interval	dot	NaN	NaN	NaN	NaN	NaN	NaN	NaN	NaN	NaN	NaN	NaN	NaN
744.2049230000002	0.1	sub-03	1	sequence	stimulus	Katze	NaN	NaN	64.0	NaN	NaN	3.0	5.0	NaN	NaN	NaN	NaN	NaN
744.3048795000004	0.0667	sub-03	1	sequence	interval	dot	NaN	NaN	NaN	NaN	NaN	NaN	NaN	NaN	NaN	NaN	NaN	NaN
744.3715716000006	8.372	sub-03	1	sequence	delay	dot	NaN	NaN	NaN	NaN	NaN	NaN	NaN	NaN	NaN	NaN	NaN	NaN
752.7266434000003	1.37	sub-03	1	sequence	choice	choice	right	NaN	NaN	-9.205998499999623	False	NaN	NaN	left	True	2.0	3.0	2.0
754.0970210000005	0.4997	sub-03	1	sequence	feedback	NaN	NaN	NaN	NaN	NaN	NaN	NaN	NaN	NaN	NaN	NaN	NaN	NaN
754.5969626000006	1.0004	sub-03	1	sequence	cue	Katze	NaN	NaN	NaN	NaN	NaN	NaN	NaN	NaN	NaN	NaN	NaN	NaN
755.5973721	2.0015	sub-03	1	sequence	blank	blank	NaN	NaN	NaN	NaN	NaN	NaN	NaN	NaN	NaN	NaN	NaN	NaN
757.5989288999999	0.3003	sub-03	1	sequence	fixation	dot	NaN	NaN	NaN	NaN	NaN	NaN	NaN	NaN	NaN	NaN	NaN	NaN
757.9317140000003	0.101	sub-03	1	sequence	stimulus	Haus	NaN	NaN	64.0	NaN	NaN	2.0	1.0	NaN	NaN	NaN	NaN	NaN
758.0327373	0.0667	sub-03	1	sequence	interval	dot	NaN	NaN	NaN	NaN	NaN	NaN	NaN	NaN	NaN	NaN	NaN	NaN
758.0994770000007	0.1	sub-03	1	sequence	stimulus	Gesicht	NaN	NaN	64.0	NaN	NaN	1.0	2.0	NaN	NaN	NaN	NaN	NaN
758.1994341	0.0669	sub-03	1	sequence	interval	dot	NaN	NaN	NaN	NaN	NaN	NaN	NaN	NaN	NaN	NaN	NaN	NaN
758.2663130000001	0.0999	sub-03	1	sequence	stimulus	Schuh	NaN	NaN	64.0	NaN	NaN	4.0	3.0	NaN	NaN	NaN	NaN	NaN
758.3661729000005	0.0669	sub-03	1	sequence	interval	dot	NaN	NaN	NaN	NaN	NaN	NaN	NaN	NaN	NaN	NaN	NaN	NaN
758.4330330000003	0.1	sub-03	1	sequence	stimulus	Stuhl	NaN	NaN	64.0	NaN	NaN	5.0	4.0	NaN	NaN	NaN	NaN	NaN
758.5330676000003	0.0668	sub-03	1	sequence	interval	dot	NaN	NaN	NaN	NaN	NaN	NaN	NaN	NaN	NaN	NaN	NaN	NaN
758.5998467	0.1	sub-03	1	sequence	stimulus	Katze	NaN	NaN	64.0	NaN	NaN	3.0	5.0	NaN	NaN	NaN	NaN	NaN
758.6998512	0.0667	sub-03	1	sequence	interval	dot	NaN	NaN	NaN	NaN	NaN	NaN	NaN	NaN	NaN	NaN	NaN	NaN
758.7665861000005	8.3886	sub-03	1	sequence	delay	dot	NaN	NaN	NaN	NaN	NaN	NaN	NaN	NaN	NaN	NaN	NaN	NaN
767.1303048	1.6117	sub-03	1	sequence	choice	choice	right	NaN	NaN	-8.977699999999459	True	NaN	NaN	right	True	4.0	5.0	5.0
768.7422356000006	0.4998	sub-03	1	sequence	feedback	NaN	NaN	NaN	NaN	NaN	NaN	NaN	NaN	NaN	NaN	NaN	NaN	NaN
769.2422702000003	1.0003	sub-03	1	sequence	cue	Haus	NaN	NaN	NaN	NaN	NaN	NaN	NaN	NaN	NaN	NaN	NaN	NaN
770.2425759000007	2.0018	sub-03	1	sequence	blank	blank	NaN	NaN	NaN	NaN	NaN	NaN	NaN	NaN	NaN	NaN	NaN	NaN
772.2443462000001	0.3	sub-03	1	sequence	fixation	dot	NaN	NaN	NaN	NaN	NaN	NaN	NaN	NaN	NaN	NaN	NaN	NaN
772.5629080000008	0.1149	sub-03	1	sequence	stimulus	Stuhl	NaN	NaN	128.0	NaN	NaN	5.0	1.0	NaN	NaN	NaN	NaN	NaN
772.6778309000001	0.1336	sub-03	1	sequence	interval	dot	NaN	NaN	NaN	NaN	NaN	NaN	NaN	NaN	NaN	NaN	NaN	NaN
772.81142	0.1003	sub-03	1	sequence	stimulus	Schuh	NaN	NaN	128.0	NaN	NaN	4.0	2.0	NaN	NaN	NaN	NaN	NaN
772.911674	0.1334	sub-03	1	sequence	interval	dot	NaN	NaN	NaN	NaN	NaN	NaN	NaN	NaN	NaN	NaN	NaN	NaN
773.0451194000007	0.1	sub-03	1	sequence	stimulus	Katze	NaN	NaN	128.0	NaN	NaN	3.0	3.0	NaN	NaN	NaN	NaN	NaN
773.1451472000008	0.1335	sub-03	1	sequence	interval	dot	NaN	NaN	NaN	NaN	NaN	NaN	NaN	NaN	NaN	NaN	NaN	NaN
773.2786486000005	0.1	sub-03	1	sequence	stimulus	Haus	NaN	NaN	128.0	NaN	NaN	2.0	4.0	NaN	NaN	NaN	NaN	NaN
773.3786706000001	0.1334	sub-03	1	sequence	interval	dot	NaN	NaN	NaN	NaN	NaN	NaN	NaN	NaN	NaN	NaN	NaN	NaN
773.5120931000001	0.1	sub-03	1	sequence	stimulus	Gesicht	NaN	NaN	128.0	NaN	NaN	1.0	5.0	NaN	NaN	NaN	NaN	NaN
773.6121000000003	0.1334	sub-03	1	sequence	interval	dot	NaN	NaN	NaN	NaN	NaN	NaN	NaN	NaN	NaN	NaN	NaN	NaN
773.7454910000006	8.0715	sub-03	1	sequence	delay	dot	NaN	NaN	NaN	NaN	NaN	NaN	NaN	NaN	NaN	NaN	NaN	NaN
781.7940660000004	0.959	sub-03	1	sequence	choice	choice	right	NaN	NaN	-9.622963899999377	True	NaN	NaN	right	True	5.0	4.0	4.0
782.7533453000005	0.4999	sub-03	1	sequence	feedback	NaN	NaN	NaN	NaN	NaN	NaN	NaN	NaN	NaN	NaN	NaN	NaN	NaN
783.2533960999999	1.0004	sub-03	1	sequence	cue	Gesicht	NaN	NaN	NaN	NaN	NaN	NaN	NaN	NaN	NaN	NaN	NaN	NaN
784.2538425000002	2.0016	sub-03	1	sequence	blank	blank	NaN	NaN	NaN	NaN	NaN	NaN	NaN	NaN	NaN	NaN	NaN	NaN
786.2554801000006	0.3002	sub-03	1	sequence	fixation	dot	NaN	NaN	NaN	NaN	NaN	NaN	NaN	NaN	NaN	NaN	NaN	NaN
786.5740985000002	0.115	sub-03	1	sequence	stimulus	Schuh	NaN	NaN	32.0	NaN	NaN	4.0	1.0	NaN	NaN	NaN	NaN	NaN
786.6890632000004	0.0335	sub-03	1	sequence	interval	dot	NaN	NaN	NaN	NaN	NaN	NaN	NaN	NaN	NaN	NaN	NaN	NaN
786.7226097000002	0.0999	sub-03	1	sequence	stimulus	Katze	NaN	NaN	32.0	NaN	NaN	3.0	2.0	NaN	NaN	NaN	NaN	NaN
786.8225447000004	0.0335	sub-03	1	sequence	interval	dot	NaN	NaN	NaN	NaN	NaN	NaN	NaN	NaN	NaN	NaN	NaN	NaN
786.8560693	0.0999	sub-03	1	sequence	stimulus	Stuhl	NaN	NaN	32.0	NaN	NaN	5.0	3.0	NaN	NaN	NaN	NaN	NaN
786.9559614	0.0335	sub-03	1	sequence	interval	dot	NaN	NaN	NaN	NaN	NaN	NaN	NaN	NaN	NaN	NaN	NaN	NaN
786.9894985999999	0.0999	sub-03	1	sequence	stimulus	Haus	NaN	NaN	32.0	NaN	NaN	2.0	4.0	NaN	NaN	NaN	NaN	NaN
787.0894441	0.0335	sub-03	1	sequence	interval	dot	NaN	NaN	NaN	NaN	NaN	NaN	NaN	NaN	NaN	NaN	NaN	NaN
787.1229047000006	0.1003	sub-03	1	sequence	stimulus	Gesicht	NaN	NaN	32.0	NaN	NaN	1.0	5.0	NaN	NaN	NaN	NaN	NaN
787.2232462000002	0.0332	sub-03	1	sequence	interval	dot	NaN	NaN	NaN	NaN	NaN	NaN	NaN	NaN	NaN	NaN	NaN	NaN
787.2564236000007	8.5219	sub-03	1	sequence	delay	dot	NaN	NaN	NaN	NaN	NaN	NaN	NaN	NaN	NaN	NaN	NaN	NaN
795.7557343000008	0.8588	sub-03	1	sequence	choice	choice	left	NaN	NaN	-9.72828429999936	False	NaN	NaN	right	True	4.0	5.0	5.0
796.6147571000001	0.4999	sub-03	1	sequence	feedback	NaN	NaN	NaN	NaN	NaN	NaN	NaN	NaN	NaN	NaN	NaN	NaN	NaN
797.1147835000002	1.0004	sub-03	1	sequence	cue	Stuhl	NaN	NaN	NaN	NaN	NaN	NaN	NaN	NaN	NaN	NaN	NaN	NaN
798.1151878999999	2.0015	sub-03	1	sequence	blank	blank	NaN	NaN	NaN	NaN	NaN	NaN	NaN	NaN	NaN	NaN	NaN	NaN
800.1166711000005	0.3003	sub-03	1	sequence	fixation	dot	NaN	NaN	NaN	NaN	NaN	NaN	NaN	NaN	NaN	NaN	NaN	NaN
800.4345414	0.0991	sub-03	1	sequence	stimulus	Gesicht	NaN	NaN	32.0	NaN	NaN	1.0	1.0	NaN	NaN	NaN	NaN	NaN
800.5336234000006	0.0335	sub-03	1	sequence	interval	dot	NaN	NaN	NaN	NaN	NaN	NaN	NaN	NaN	NaN	NaN	NaN	NaN
800.5671371000008	0.1001	sub-03	1	sequence	stimulus	Schuh	NaN	NaN	32.0	NaN	NaN	4.0	2.0	NaN	NaN	NaN	NaN	NaN
800.6672295000008	0.0334	sub-03	1	sequence	interval	dot	NaN	NaN	NaN	NaN	NaN	NaN	NaN	NaN	NaN	NaN	NaN	NaN
800.7006719999999	0.0999	sub-03	1	sequence	stimulus	Stuhl	NaN	NaN	32.0	NaN	NaN	5.0	3.0	NaN	NaN	NaN	NaN	NaN
800.8005462000001	0.0335	sub-03	1	sequence	interval	dot	NaN	NaN	NaN	NaN	NaN	NaN	NaN	NaN	NaN	NaN	NaN	NaN
800.8340332000007	0.1	sub-03	1	sequence	stimulus	Katze	NaN	NaN	32.0	NaN	NaN	3.0	4.0	NaN	NaN	NaN	NaN	NaN
800.9340753000006	0.0334	sub-03	1	sequence	interval	dot	NaN	NaN	NaN	NaN	NaN	NaN	NaN	NaN	NaN	NaN	NaN	NaN
800.9675225999999	0.1	sub-03	1	sequence	stimulus	Haus	NaN	NaN	32.0	NaN	NaN	2.0	5.0	NaN	NaN	NaN	NaN	NaN
801.0675119000007	0.0334	sub-03	1	sequence	interval	dot	NaN	NaN	NaN	NaN	NaN	NaN	NaN	NaN	NaN	NaN	NaN	NaN
801.1008781999999	8.5388	sub-03	1	sequence	delay	dot	NaN	NaN	NaN	NaN	NaN	NaN	NaN	NaN	NaN	NaN	NaN	NaN
809.6135746	0.8453	sub-03	1	sequence	choice	choice	left	NaN	NaN	-9.742208499998924	True	NaN	NaN	left	True	3.0	2.0	3.0
810.4591863000005	0.5002	sub-03	1	sequence	feedback	NaN	NaN	NaN	NaN	NaN	NaN	NaN	NaN	NaN	NaN	NaN	NaN	NaN
810.9596618000005	1.0003	sub-03	1	sequence	cue	Haus	NaN	NaN	NaN	NaN	NaN	NaN	NaN	NaN	NaN	NaN	NaN	NaN
811.9599725000007	2.0014	sub-03	1	sequence	blank	blank	NaN	NaN	NaN	NaN	NaN	NaN	NaN	NaN	NaN	NaN	NaN	NaN
813.9613921	0.3004	sub-03	1	sequence	fixation	dot	NaN	NaN	NaN	NaN	NaN	NaN	NaN	NaN	NaN	NaN	NaN	NaN
814.2799788000002	0.115	sub-03	1	sequence	stimulus	Katze	NaN	NaN	128.0	NaN	NaN	3.0	1.0	NaN	NaN	NaN	NaN	NaN
814.3949857000007	0.1335	sub-03	1	sequence	interval	dot	NaN	NaN	NaN	NaN	NaN	NaN	NaN	NaN	NaN	NaN	NaN	NaN
814.5284967000007	0.1	sub-03	1	sequence	stimulus	Schuh	NaN	NaN	128.0	NaN	NaN	4.0	2.0	NaN	NaN	NaN	NaN	NaN
814.6285012000008	0.1336	sub-03	1	sequence	interval	dot	NaN	NaN	NaN	NaN	NaN	NaN	NaN	NaN	NaN	NaN	NaN	NaN
814.7621182000003	0.0999	sub-03	1	sequence	stimulus	Gesicht	NaN	NaN	128.0	NaN	NaN	1.0	3.0	NaN	NaN	NaN	NaN	NaN
814.8619721000005	0.1338	sub-03	1	sequence	interval	dot	NaN	NaN	NaN	NaN	NaN	NaN	NaN	NaN	NaN	NaN	NaN	NaN
814.9957462000002	0.0997	sub-03	1	sequence	stimulus	Haus	NaN	NaN	128.0	NaN	NaN	2.0	4.0	NaN	NaN	NaN	NaN	NaN
815.0954811000001	0.1337	sub-03	1	sequence	interval	dot	NaN	NaN	NaN	NaN	NaN	NaN	NaN	NaN	NaN	NaN	NaN	NaN
815.2291646000003	0.0999	sub-03	1	sequence	stimulus	Stuhl	NaN	NaN	128.0	NaN	NaN	5.0	5.0	NaN	NaN	NaN	NaN	NaN
815.3290374000007	0.1335	sub-03	1	sequence	interval	dot	NaN	NaN	NaN	NaN	NaN	NaN	NaN	NaN	NaN	NaN	NaN	NaN
815.4625544	8.0549	sub-03	1	sequence	delay	dot	NaN	NaN	NaN	NaN	NaN	NaN	NaN	NaN	NaN	NaN	NaN	NaN
823.4972741000001	0.8396	sub-03	1	sequence	choice	choice	right	NaN	NaN	-9.739862199999152	True	NaN	NaN	right	True	3.0	4.0	4.0
824.3371864999999	0.4999	sub-03	1	sequence	feedback	NaN	NaN	NaN	NaN	NaN	NaN	NaN	NaN	NaN	NaN	NaN	NaN	NaN
824.8372932000002	1.0004	sub-03	1	sequence	cue	Katze	NaN	NaN	NaN	NaN	NaN	NaN	NaN	NaN	NaN	NaN	NaN	NaN
825.8376533999999	2.0016	sub-03	1	sequence	blank	blank	NaN	NaN	NaN	NaN	NaN	NaN	NaN	NaN	NaN	NaN	NaN	NaN
827.8393031000005	0.3002	sub-03	1	sequence	fixation	dot	NaN	NaN	NaN	NaN	NaN	NaN	NaN	NaN	NaN	NaN	NaN	NaN
828.1593346	0.1134	sub-03	1	sequence	stimulus	Stuhl	NaN	NaN	512.0	NaN	NaN	5.0	1.0	NaN	NaN	NaN	NaN	NaN
828.2727676000004	0.5174	sub-03	1	sequence	interval	dot	NaN	NaN	NaN	NaN	NaN	NaN	NaN	NaN	NaN	NaN	NaN	NaN
828.7901462	0.0999	sub-03	1	sequence	stimulus	Schuh	NaN	NaN	512.0	NaN	NaN	4.0	2.0	NaN	NaN	NaN	NaN	NaN
828.8900222000002	0.5172	sub-03	1	sequence	interval	dot	NaN	NaN	NaN	NaN	NaN	NaN	NaN	NaN	NaN	NaN	NaN	NaN
829.4072087000004	0.1	sub-03	1	sequence	stimulus	Katze	NaN	NaN	512.0	NaN	NaN	3.0	3.0	NaN	NaN	NaN	NaN	NaN
829.5072337000001	0.5171	sub-03	1	sequence	interval	dot	NaN	NaN	NaN	NaN	NaN	NaN	NaN	NaN	NaN	NaN	NaN	NaN
830.0243430999999	0.1001	sub-03	1	sequence	stimulus	Gesicht	NaN	NaN	512.0	NaN	NaN	1.0	4.0	NaN	NaN	NaN	NaN	NaN
830.1244034000001	0.5172	sub-03	1	sequence	interval	dot	NaN	NaN	NaN	NaN	NaN	NaN	NaN	NaN	NaN	NaN	NaN	NaN
830.6416513000004	0.0999	sub-03	1	sequence	stimulus	Haus	NaN	NaN	512.0	NaN	NaN	2.0	5.0	NaN	NaN	NaN	NaN	NaN
830.7415132000006	0.5174	sub-03	1	sequence	interval	dot	NaN	NaN	NaN	NaN	NaN	NaN	NaN	NaN	NaN	NaN	NaN	NaN
831.2589576	6.1364	sub-03	1	sequence	delay	dot	NaN	NaN	NaN	NaN	NaN	NaN	NaN	NaN	NaN	NaN	NaN	NaN
837.3809536000008	0.7172	sub-03	1	sequence	choice	choice	left	NaN	NaN	-9.8655590999997	True	NaN	NaN	left	True	3.0	4.0	3.0
838.0983801000002	0.4996	sub-03	1	sequence	feedback	NaN	NaN	NaN	NaN	NaN	NaN	NaN	NaN	NaN	NaN	NaN	NaN	NaN
838.5981669000003	1.0007	sub-03	1	sequence	cue	Gesicht	NaN	NaN	NaN	NaN	NaN	NaN	NaN	NaN	NaN	NaN	NaN	NaN
839.5988274000001	2.0014	sub-03	1	sequence	blank	blank	NaN	NaN	NaN	NaN	NaN	NaN	NaN	NaN	NaN	NaN	NaN	NaN
841.6001853000007	0.3005	sub-03	1	sequence	fixation	dot	NaN	NaN	NaN	NaN	NaN	NaN	NaN	NaN	NaN	NaN	NaN	NaN
841.9180163000001	0.0992	sub-03	1	sequence	stimulus	Stuhl	NaN	NaN	512.0	NaN	NaN	5.0	1.0	NaN	NaN	NaN	NaN	NaN
842.0172078000005	0.5173	sub-03	1	sequence	interval	dot	NaN	NaN	NaN	NaN	NaN	NaN	NaN	NaN	NaN	NaN	NaN	NaN
842.5345032000005	0.1	sub-03	1	sequence	stimulus	Haus	NaN	NaN	512.0	NaN	NaN	2.0	2.0	NaN	NaN	NaN	NaN	NaN
842.6345214000003	0.5172	sub-03	1	sequence	interval	dot	NaN	NaN	NaN	NaN	NaN	NaN	NaN	NaN	NaN	NaN	NaN	NaN
843.1517219000007	0.1	sub-03	1	sequence	stimulus	Schuh	NaN	NaN	512.0	NaN	NaN	4.0	3.0	NaN	NaN	NaN	NaN	NaN
843.2516822000007	0.5172	sub-03	1	sequence	interval	dot	NaN	NaN	NaN	NaN	NaN	NaN	NaN	NaN	NaN	NaN	NaN	NaN
843.7688887000004	0.0999	sub-03	1	sequence	stimulus	Gesicht	NaN	NaN	512.0	NaN	NaN	1.0	4.0	NaN	NaN	NaN	NaN	NaN
843.8687438000006	0.5172	sub-03	1	sequence	interval	dot	NaN	NaN	NaN	NaN	NaN	NaN	NaN	NaN	NaN	NaN	NaN	NaN
844.3859917	0.1	sub-03	1	sequence	stimulus	Katze	NaN	NaN	512.0	NaN	NaN	3.0	5.0	NaN	NaN	NaN	NaN	NaN
844.4860214	0.517	sub-03	1	sequence	interval	dot	NaN	NaN	NaN	NaN	NaN	NaN	NaN	NaN	NaN	NaN	NaN	NaN
845.0030153000007	6.1534	sub-03	1	sequence	delay	dot	NaN	NaN	NaN	NaN	NaN	NaN	NaN	NaN	NaN	NaN	NaN	NaN
851.1347098000006	0.8416	sub-03	1	sequence	choice	choice	left	NaN	NaN	-9.738303299998734	True	NaN	NaN	left	True	4.0	5.0	4.0
851.9765714000005	0.4998	sub-03	1	sequence	feedback	NaN	NaN	NaN	NaN	NaN	NaN	NaN	NaN	NaN	NaN	NaN	NaN	NaN
852.4767865000003	4.6869	sub-03	1	other	break	break	NaN	NaN	NaN	NaN	NaN	NaN	NaN	NaN	NaN	NaN	NaN	NaN
860.9836153000006	0.4994	sub-03	1	localizer	stimulus	Gesicht	NaN	0	2.802332899999783	NaN	True	NaN	NaN	NaN	NaN	NaN	NaN	NaN
861.4830331000003	2.8023	sub-03	1	localizer	blank	interval	NaN	NaN	NaN	NaN	NaN	NaN	NaN	NaN	NaN	NaN	NaN	NaN
864.5865019000003	0.4996	sub-03	1	localizer	stimulus	Gesicht	NaN	0	1.9013141000004907	NaN	True	NaN	NaN	NaN	NaN	NaN	NaN	NaN
865.0696121000001	1.9013	sub-03	1	localizer	blank	interval	NaN	NaN	NaN	NaN	NaN	NaN	NaN	NaN	NaN	NaN	NaN	NaN
867.2720383000005	0.4994	sub-03	1	localizer	stimulus	Haus	NaN	0	2.4016731000001528	NaN	True	NaN	NaN	NaN	NaN	NaN	NaN	NaN
867.7550540000002	2.4017	sub-03	1	localizer	blank	interval	NaN	NaN	NaN	NaN	NaN	NaN	NaN	NaN	NaN	NaN	NaN	NaN
870.4580841000006	0.4994	sub-03	1	localizer	stimulus	Katze	NaN	0	2.2854354999999487	NaN	True	NaN	NaN	NaN	NaN	NaN	NaN	NaN
870.9408593000007	2.2854	sub-03	1	localizer	blank	interval	NaN	NaN	NaN	NaN	NaN	NaN	NaN	NaN	NaN	NaN	NaN	NaN
873.5270975000003	0.4998	sub-03	1	localizer	stimulus	Stuhl	NaN	0	2.385071599999719	NaN	True	NaN	NaN	NaN	NaN	NaN	NaN	NaN
874.0102841000007	2.3851	sub-03	1	localizer	blank	interval	NaN	NaN	NaN	NaN	NaN	NaN	NaN	NaN	NaN	NaN	NaN	NaN
876.6963705000007	0.4995	sub-03	1	localizer	stimulus	Gesicht	NaN	180	2.8687941999996838	-9.886652799998956	True	NaN	NaN	NaN	NaN	NaN	NaN	NaN
877.1793389000004	2.8688	sub-03	1	localizer	blank	interval	NaN	NaN	NaN	NaN	NaN	NaN	NaN	NaN	NaN	NaN	NaN	NaN
880.3493135000008	0.4994	sub-03	1	localizer	stimulus	Stuhl	NaN	0	1.7346170000000711	NaN	True	NaN	NaN	NaN	NaN	NaN	NaN	NaN
880.8321666000002	1.7346	sub-03	1	localizer	blank	interval	NaN	NaN	NaN	NaN	NaN	NaN	NaN	NaN	NaN	NaN	NaN	NaN
882.8679836000001	0.4994	sub-03	1	localizer	stimulus	Stuhl	NaN	0	2.201583999999457	NaN	True	NaN	NaN	NaN	NaN	NaN	NaN	NaN
883.3509452000008	2.2016	sub-03	1	localizer	blank	interval	NaN	NaN	NaN	NaN	NaN	NaN	NaN	NaN	NaN	NaN	NaN	NaN
885.8537325000007	0.4995	sub-03	1	localizer	stimulus	Katze	NaN	0	3.0690496999995958	NaN	True	NaN	NaN	NaN	NaN	NaN	NaN	NaN
886.3366614000006	3.069	sub-03	1	localizer	blank	interval	NaN	NaN	NaN	NaN	NaN	NaN	NaN	NaN	NaN	NaN	NaN	NaN
889.7069598000007	0.4994	sub-03	1	localizer	stimulus	Katze	NaN	0	2.8189668999993955	NaN	True	NaN	NaN	NaN	NaN	NaN	NaN	NaN
890.1897899000005	2.819	sub-03	1	localizer	blank	interval	NaN	NaN	NaN	NaN	NaN	NaN	NaN	NaN	NaN	NaN	NaN	NaN
893.3099536	0.4995	sub-03	1	localizer	stimulus	Haus	NaN	180	2.3348916000004465	-9.884326999998848	True	NaN	NaN	NaN	NaN	NaN	NaN	NaN
893.7930457000002	2.3349	sub-03	1	localizer	blank	interval	NaN	NaN	NaN	NaN	NaN	NaN	NaN	NaN	NaN	NaN	NaN	NaN
896.4291534000004	0.4996	sub-03	1	localizer	stimulus	Schuh	NaN	0	2.56843359999948	NaN	True	NaN	NaN	NaN	NaN	NaN	NaN	NaN
896.9121817000005	2.5684	sub-03	1	localizer	blank	interval	NaN	NaN	NaN	NaN	NaN	NaN	NaN	NaN	NaN	NaN	NaN	NaN
899.7816611000007	0.4999	sub-03	1	localizer	stimulus	Schuh	NaN	180	2.368303299999752	-9.908410199999707	True	NaN	NaN	NaN	NaN	NaN	NaN	NaN
900.2647456000004	2.3683	sub-03	1	localizer	blank	interval	NaN	NaN	NaN	NaN	NaN	NaN	NaN	NaN	NaN	NaN	NaN	NaN
902.9342141000006	0.4994	sub-03	1	localizer	stimulus	Gesicht	NaN	0	2.5187631999996256	NaN	True	NaN	NaN	NaN	NaN	NaN	NaN	NaN
903.4171153000008	2.5188	sub-03	1	localizer	blank	interval	NaN	NaN	NaN	NaN	NaN	NaN	NaN	NaN	NaN	NaN	NaN	NaN
906.2368628000004	0.4995	sub-03	1	localizer	stimulus	Katze	NaN	180	3.1690088000003698	-9.891277299999274	True	NaN	NaN	NaN	NaN	NaN	NaN	NaN
906.7199781	3.169	sub-03	1	localizer	blank	interval	NaN	NaN	NaN	NaN	NaN	NaN	NaN	NaN	NaN	NaN	NaN	NaN
910.1901331	0.4995	sub-03	1	localizer	stimulus	Schuh	NaN	0	2.7687589000005346	NaN	True	NaN	NaN	NaN	NaN	NaN	NaN	NaN
910.6731584	2.7688	sub-03	1	localizer	blank	interval	NaN	NaN	NaN	NaN	NaN	NaN	NaN	NaN	NaN	NaN	NaN	NaN
913.7432608	0.4995	sub-03	1	localizer	stimulus	Stuhl	NaN	0	3.052387000000408	NaN	True	NaN	NaN	NaN	NaN	NaN	NaN	NaN
914.226127	3.0524	sub-03	1	localizer	blank	interval	NaN	NaN	NaN	NaN	NaN	NaN	NaN	NaN	NaN	NaN	NaN	NaN
917.5796977	0.4994	sub-03	1	localizer	stimulus	Haus	NaN	0	2.9687181999997847	NaN	True	NaN	NaN	NaN	NaN	NaN	NaN	NaN
918.0626169000006	2.9687	sub-03	1	localizer	blank	interval	NaN	NaN	NaN	NaN	NaN	NaN	NaN	NaN	NaN	NaN	NaN	NaN
921.3324374000003	0.4995	sub-03	1	localizer	stimulus	Stuhl	NaN	180	2.585189299999797	-9.83507809999992	True	NaN	NaN	NaN	NaN	NaN	NaN	NaN
921.8154705000006	2.5852	sub-03	1	localizer	blank	interval	NaN	NaN	NaN	NaN	NaN	NaN	NaN	NaN	NaN	NaN	NaN	NaN
924.7018565000008	0.4995	sub-03	1	localizer	stimulus	Schuh	NaN	0	2.6854506999998193	NaN	True	NaN	NaN	NaN	NaN	NaN	NaN	NaN
925.1847351000006	2.6855	sub-03	1	localizer	blank	interval	NaN	NaN	NaN	NaN	NaN	NaN	NaN	NaN	NaN	NaN	NaN	NaN
928.1713466	0.4995	sub-03	1	localizer	stimulus	Katze	NaN	0	3.536132700000053	NaN	True	NaN	NaN	NaN	NaN	NaN	NaN	NaN
928.6542952	3.5361	sub-03	1	localizer	blank	interval	NaN	NaN	NaN	NaN	NaN	NaN	NaN	NaN	NaN	NaN	NaN	NaN
932.4915299000004	0.4995	sub-03	1	localizer	stimulus	Gesicht	NaN	0	1.7345475000004171	NaN	True	NaN	NaN	NaN	NaN	NaN	NaN	NaN
932.9745963000004	1.7345	sub-03	1	localizer	blank	interval	NaN	NaN	NaN	NaN	NaN	NaN	NaN	NaN	NaN	NaN	NaN	NaN
935.0105342000006	0.4992	sub-03	1	localizer	stimulus	Schuh	NaN	0	2.418411900000251	NaN	True	NaN	NaN	NaN	NaN	NaN	NaN	NaN
935.4932705	2.4184	sub-03	1	localizer	blank	interval	NaN	NaN	NaN	NaN	NaN	NaN	NaN	NaN	NaN	NaN	NaN	NaN
938.2129676000004	0.4995	sub-03	1	localizer	stimulus	Haus	NaN	0	2.368122999999173	NaN	True	NaN	NaN	NaN	NaN	NaN	NaN	NaN
938.6960431000008	2.3681	sub-03	1	localizer	blank	interval	NaN	NaN	NaN	NaN	NaN	NaN	NaN	NaN	NaN	NaN	NaN	NaN
941.3653311000008	0.4995	sub-03	1	localizer	stimulus	Haus	NaN	0	2.952304799999979	NaN	True	NaN	NaN	NaN	NaN	NaN	NaN	NaN
941.8482734	2.9523	sub-03	1	localizer	blank	interval	NaN	NaN	NaN	NaN	NaN	NaN	NaN	NaN	NaN	NaN	NaN	NaN
948.2870920000004	1.0004	sub-03	1	sequence	cue	Gesicht	NaN	NaN	NaN	NaN	NaN	NaN	NaN	NaN	NaN	NaN	NaN	NaN
949.2874793	2.0017	sub-03	1	sequence	blank	blank	NaN	NaN	NaN	NaN	NaN	NaN	NaN	NaN	NaN	NaN	NaN	NaN
951.2891643000004	0.3002	sub-03	1	sequence	fixation	dot	NaN	NaN	NaN	NaN	NaN	NaN	NaN	NaN	NaN	NaN	NaN	NaN
951.6071288000004	0.1156	sub-03	1	sequence	stimulus	Katze	NaN	NaN	128.0	NaN	NaN	3.0	1.0	NaN	NaN	NaN	NaN	NaN
951.7227011000004	0.1337	sub-03	1	sequence	interval	dot	NaN	NaN	NaN	NaN	NaN	NaN	NaN	NaN	NaN	NaN	NaN	NaN
951.8564164	0.1028	sub-03	1	sequence	stimulus	Schuh	NaN	NaN	128.0	NaN	NaN	4.0	2.0	NaN	NaN	NaN	NaN	NaN
951.9591960000008	0.1308	sub-03	1	sequence	interval	dot	NaN	NaN	NaN	NaN	NaN	NaN	NaN	NaN	NaN	NaN	NaN	NaN
952.0900004000003	0.1	sub-03	1	sequence	stimulus	Gesicht	NaN	NaN	128.0	NaN	NaN	1.0	3.0	NaN	NaN	NaN	NaN	NaN
952.1899705000004	0.1336	sub-03	1	sequence	interval	dot	NaN	NaN	NaN	NaN	NaN	NaN	NaN	NaN	NaN	NaN	NaN	NaN
952.3235348000007	0.1	sub-03	1	sequence	stimulus	Haus	NaN	NaN	128.0	NaN	NaN	2.0	4.0	NaN	NaN	NaN	NaN	NaN
952.4235043000008	0.1337	sub-03	1	sequence	interval	dot	NaN	NaN	NaN	NaN	NaN	NaN	NaN	NaN	NaN	NaN	NaN	NaN
952.5571573000008	0.0999	sub-03	1	sequence	stimulus	Stuhl	NaN	NaN	128.0	NaN	NaN	5.0	5.0	NaN	NaN	NaN	NaN	NaN
952.6570464000006	0.1335	sub-03	1	sequence	interval	dot	NaN	NaN	NaN	NaN	NaN	NaN	NaN	NaN	NaN	NaN	NaN	NaN
952.7905059000004	8.0549	sub-03	1	sequence	delay	dot	NaN	NaN	NaN	NaN	NaN	NaN	NaN	NaN	NaN	NaN	NaN	NaN
960.8265245000002	1.0217	sub-03	1	sequence	choice	choice	left	NaN	NaN	-9.555320199999189	True	NaN	NaN	left	True	3.0	5.0	3.0
961.8486253	0.4997	sub-03	1	sequence	feedback	NaN	NaN	NaN	NaN	NaN	NaN	NaN	NaN	NaN	NaN	NaN	NaN	NaN
962.3485812	1.0003	sub-03	1	sequence	cue	Gesicht	NaN	NaN	NaN	NaN	NaN	NaN	NaN	NaN	NaN	NaN	NaN	NaN
963.3488931000002	2.0016	sub-03	1	sequence	blank	blank	NaN	NaN	NaN	NaN	NaN	NaN	NaN	NaN	NaN	NaN	NaN	NaN
965.3504618000006	0.3004	sub-03	1	sequence	fixation	dot	NaN	NaN	NaN	NaN	NaN	NaN	NaN	NaN	NaN	NaN	NaN	NaN
965.6692071000008	0.1149	sub-03	1	sequence	stimulus	Stuhl	NaN	NaN	512.0	NaN	NaN	5.0	1.0	NaN	NaN	NaN	NaN	NaN
965.7841508	0.5173	sub-03	1	sequence	interval	dot	NaN	NaN	NaN	NaN	NaN	NaN	NaN	NaN	NaN	NaN	NaN	NaN
966.3014905	0.0999	sub-03	1	sequence	stimulus	Haus	NaN	NaN	512.0	NaN	NaN	2.0	2.0	NaN	NaN	NaN	NaN	NaN
966.4014313000008	0.5172	sub-03	1	sequence	interval	dot	NaN	NaN	NaN	NaN	NaN	NaN	NaN	NaN	NaN	NaN	NaN	NaN
966.9185919	0.1	sub-03	1	sequence	stimulus	Schuh	NaN	NaN	512.0	NaN	NaN	4.0	3.0	NaN	NaN	NaN	NaN	NaN
967.0186084000006	0.5172	sub-03	1	sequence	interval	dot	NaN	NaN	NaN	NaN	NaN	NaN	NaN	NaN	NaN	NaN	NaN	NaN
967.535761	0.1	sub-03	1	sequence	stimulus	Gesicht	NaN	NaN	512.0	NaN	NaN	1.0	4.0	NaN	NaN	NaN	NaN	NaN
967.6357316000004	0.5173	sub-03	1	sequence	interval	dot	NaN	NaN	NaN	NaN	NaN	NaN	NaN	NaN	NaN	NaN	NaN	NaN
968.1529922	0.0999	sub-03	1	sequence	stimulus	Katze	NaN	NaN	512.0	NaN	NaN	3.0	5.0	NaN	NaN	NaN	NaN	NaN
968.2528746000008	0.5171	sub-03	1	sequence	interval	dot	NaN	NaN	NaN	NaN	NaN	NaN	NaN	NaN	NaN	NaN	NaN	NaN
968.7699931000006	6.1369	sub-03	1	sequence	delay	dot	NaN	NaN	NaN	NaN	NaN	NaN	NaN	NaN	NaN	NaN	NaN	NaN
974.8922941	0.984	sub-03	1	sequence	choice	choice	right	NaN	NaN	-9.584844299998622	True	NaN	NaN	right	True	2.0	4.0	4.0
975.8765733	0.4998	sub-03	1	sequence	feedback	NaN	NaN	NaN	NaN	NaN	NaN	NaN	NaN	NaN	NaN	NaN	NaN	NaN
976.376617	1.0003	sub-03	1	sequence	cue	Haus	NaN	NaN	NaN	NaN	NaN	NaN	NaN	NaN	NaN	NaN	NaN	NaN
977.3769565000002	2.0017	sub-03	1	sequence	blank	blank	NaN	NaN	NaN	NaN	NaN	NaN	NaN	NaN	NaN	NaN	NaN	NaN
979.3786220000002	0.3003	sub-03	1	sequence	fixation	dot	NaN	NaN	NaN	NaN	NaN	NaN	NaN	NaN	NaN	NaN	NaN	NaN
979.6973310000004	0.1149	sub-03	1	sequence	stimulus	Gesicht	NaN	NaN	32.0	NaN	NaN	1.0	1.0	NaN	NaN	NaN	NaN	NaN
979.8122365	0.0336	sub-03	1	sequence	interval	dot	NaN	NaN	NaN	NaN	NaN	NaN	NaN	NaN	NaN	NaN	NaN	NaN
979.8458044	0.0999	sub-03	1	sequence	stimulus	Schuh	NaN	NaN	32.0	NaN	NaN	4.0	2.0	NaN	NaN	NaN	NaN	NaN
979.9457164000004	0.0335	sub-03	1	sequence	interval	dot	NaN	NaN	NaN	NaN	NaN	NaN	NaN	NaN	NaN	NaN	NaN	NaN
979.9792199000004	0.1001	sub-03	1	sequence	stimulus	Stuhl	NaN	NaN	32.0	NaN	NaN	5.0	3.0	NaN	NaN	NaN	NaN	NaN
980.0792902000004	0.0334	sub-03	1	sequence	interval	dot	NaN	NaN	NaN	NaN	NaN	NaN	NaN	NaN	NaN	NaN	NaN	NaN
980.1126685	0.0999	sub-03	1	sequence	stimulus	Katze	NaN	NaN	32.0	NaN	NaN	3.0	4.0	NaN	NaN	NaN	NaN	NaN
980.2126078	0.0336	sub-03	1	sequence	interval	dot	NaN	NaN	NaN	NaN	NaN	NaN	NaN	NaN	NaN	NaN	NaN	NaN
980.2461878000004	0.0999	sub-03	1	sequence	stimulus	Haus	NaN	NaN	32.0	NaN	NaN	2.0	5.0	NaN	NaN	NaN	NaN	NaN
980.3461173000004	0.0334	sub-03	1	sequence	interval	dot	NaN	NaN	NaN	NaN	NaN	NaN	NaN	NaN	NaN	NaN	NaN	NaN
980.3794720000004	8.5386	sub-03	1	sequence	delay	dot	NaN	NaN	NaN	NaN	NaN	NaN	NaN	NaN	NaN	NaN	NaN	NaN
988.9060210000008	1.1483	sub-03	1	sequence	choice	choice	left	NaN	NaN	-9.42699889999858	True	NaN	NaN	left	True	5.0	3.0	5.0
990.0545813000008	0.5001	sub-03	1	sequence	feedback	NaN	NaN	NaN	NaN	NaN	NaN	NaN	NaN	NaN	NaN	NaN	NaN	NaN
990.5548613	1.0002	sub-03	1	sequence	cue	Haus	NaN	NaN	NaN	NaN	NaN	NaN	NaN	NaN	NaN	NaN	NaN	NaN
991.5550578000002	2.0019	sub-03	1	sequence	blank	blank	NaN	NaN	NaN	NaN	NaN	NaN	NaN	NaN	NaN	NaN	NaN	NaN
993.5569370000004	0.3002	sub-03	1	sequence	fixation	dot	NaN	NaN	NaN	NaN	NaN	NaN	NaN	NaN	NaN	NaN	NaN	NaN
993.8745132000004	0.0994	sub-03	1	sequence	stimulus	Gesicht	NaN	NaN	64.0	NaN	NaN	1.0	1.0	NaN	NaN	NaN	NaN	NaN
993.9739339000008	0.0683	sub-03	1	sequence	interval	dot	NaN	NaN	NaN	NaN	NaN	NaN	NaN	NaN	NaN	NaN	NaN	NaN
994.0422228000008	0.1151	sub-03	1	sequence	stimulus	Schuh	NaN	NaN	64.0	NaN	NaN	4.0	2.0	NaN	NaN	NaN	NaN	NaN
994.1573598000004	0.0668	sub-03	1	sequence	interval	dot	NaN	NaN	NaN	NaN	NaN	NaN	NaN	NaN	NaN	NaN	NaN	NaN
994.224166	0.0999	sub-03	1	sequence	stimulus	Stuhl	NaN	NaN	64.0	NaN	NaN	5.0	3.0	NaN	NaN	NaN	NaN	NaN
994.3240995000006	0.0668	sub-03	1	sequence	interval	dot	NaN	NaN	NaN	NaN	NaN	NaN	NaN	NaN	NaN	NaN	NaN	NaN
994.3908751	0.1	sub-03	1	sequence	stimulus	Haus	NaN	NaN	64.0	NaN	NaN	2.0	4.0	NaN	NaN	NaN	NaN	NaN
994.4908428000008	0.0669	sub-03	1	sequence	interval	dot	NaN	NaN	NaN	NaN	NaN	NaN	NaN	NaN	NaN	NaN	NaN	NaN
994.5577804000004	0.0999	sub-03	1	sequence	stimulus	Katze	NaN	NaN	64.0	NaN	NaN	3.0	5.0	NaN	NaN	NaN	NaN	NaN
994.6576803000008	0.0667	sub-03	1	sequence	interval	dot	NaN	NaN	NaN	NaN	NaN	NaN	NaN	NaN	NaN	NaN	NaN	NaN
994.7244235000009	8.3718	sub-03	1	sequence	delay	dot	NaN	NaN	NaN	NaN	NaN	NaN	NaN	NaN	NaN	NaN	NaN	NaN
1003.0756810000004	1.0401	sub-03	1	sequence	choice	choice	right	NaN	NaN	-9.55046929999935	True	NaN	NaN	right	True	3.0	4.0	4.0
1004.1159980000002	0.5002	sub-03	1	sequence	feedback	NaN	NaN	NaN	NaN	NaN	NaN	NaN	NaN	NaN	NaN	NaN	NaN	NaN
1004.6163582	1.0001	sub-03	1	sequence	cue	Katze	NaN	NaN	NaN	NaN	NaN	NaN	NaN	NaN	NaN	NaN	NaN	NaN
1005.6164273000004	2.0018	sub-03	1	sequence	blank	blank	NaN	NaN	NaN	NaN	NaN	NaN	NaN	NaN	NaN	NaN	NaN	NaN
1007.6181953000004	0.3	sub-03	1	sequence	fixation	dot	NaN	NaN	NaN	NaN	NaN	NaN	NaN	NaN	NaN	NaN	NaN	NaN
1007.9366899000006	0.1152	sub-03	1	sequence	stimulus	Stuhl	NaN	NaN	128.0	NaN	NaN	5.0	1.0	NaN	NaN	NaN	NaN	NaN
1008.0518603	0.1336	sub-03	1	sequence	interval	dot	NaN	NaN	NaN	NaN	NaN	NaN	NaN	NaN	NaN	NaN	NaN	NaN
1008.1854563000006	0.0999	sub-03	1	sequence	stimulus	Schuh	NaN	NaN	128.0	NaN	NaN	4.0	2.0	NaN	NaN	NaN	NaN	NaN
1008.2853730000006	0.1335	sub-03	1	sequence	interval	dot	NaN	NaN	NaN	NaN	NaN	NaN	NaN	NaN	NaN	NaN	NaN	NaN
1008.4188442000004	0.1	sub-03	1	sequence	stimulus	Katze	NaN	NaN	128.0	NaN	NaN	3.0	3.0	NaN	NaN	NaN	NaN	NaN
1008.5188196	0.1336	sub-03	1	sequence	interval	dot	NaN	NaN	NaN	NaN	NaN	NaN	NaN	NaN	NaN	NaN	NaN	NaN
1008.6524330000002	0.0999	sub-03	1	sequence	stimulus	Haus	NaN	NaN	128.0	NaN	NaN	2.0	4.0	NaN	NaN	NaN	NaN	NaN
1008.7523255000006	0.1335	sub-03	1	sequence	interval	dot	NaN	NaN	NaN	NaN	NaN	NaN	NaN	NaN	NaN	NaN	NaN	NaN
1008.8858503	0.1001	sub-03	1	sequence	stimulus	Gesicht	NaN	NaN	128.0	NaN	NaN	1.0	5.0	NaN	NaN	NaN	NaN	NaN
1008.9859359000002	0.1333	sub-03	1	sequence	interval	dot	NaN	NaN	NaN	NaN	NaN	NaN	NaN	NaN	NaN	NaN	NaN	NaN
1009.1192036000002	8.0729	sub-03	1	sequence	delay	dot	NaN	NaN	NaN	NaN	NaN	NaN	NaN	NaN	NaN	NaN	NaN	NaN
1017.1674339	1.0432	sub-03	1	sequence	choice	choice	right	NaN	NaN	-9.540778099999445	True	NaN	NaN	right	True	5.0	3.0	3.0
1018.2109018	0.4998	sub-03	1	sequence	feedback	NaN	NaN	NaN	NaN	NaN	NaN	NaN	NaN	NaN	NaN	NaN	NaN	NaN
1018.7109398000002	1.0003	sub-03	1	sequence	cue	Schuh	NaN	NaN	NaN	NaN	NaN	NaN	NaN	NaN	NaN	NaN	NaN	NaN
1019.7112922000006	2.0018	sub-03	1	sequence	blank	blank	NaN	NaN	NaN	NaN	NaN	NaN	NaN	NaN	NaN	NaN	NaN	NaN
1021.7130801000004	0.3002	sub-03	1	sequence	fixation	dot	NaN	NaN	NaN	NaN	NaN	NaN	NaN	NaN	NaN	NaN	NaN	NaN
1022.0316315	0.115	sub-03	1	sequence	stimulus	Haus	NaN	NaN	64.0	NaN	NaN	2.0	1.0	NaN	NaN	NaN	NaN	NaN
1022.1466555000006	0.067	sub-03	1	sequence	interval	dot	NaN	NaN	NaN	NaN	NaN	NaN	NaN	NaN	NaN	NaN	NaN	NaN
1022.2136611000004	0.0999	sub-03	1	sequence	stimulus	Gesicht	NaN	NaN	64.0	NaN	NaN	1.0	2.0	NaN	NaN	NaN	NaN	NaN
1022.3135777000008	0.0669	sub-03	1	sequence	interval	dot	NaN	NaN	NaN	NaN	NaN	NaN	NaN	NaN	NaN	NaN	NaN	NaN
1022.3804684000006	0.1	sub-03	1	sequence	stimulus	Schuh	NaN	NaN	64.0	NaN	NaN	4.0	3.0	NaN	NaN	NaN	NaN	NaN
1022.4804348000008	0.0669	sub-03	1	sequence	interval	dot	NaN	NaN	NaN	NaN	NaN	NaN	NaN	NaN	NaN	NaN	NaN	NaN
1022.5472966000008	0.0998	sub-03	1	sequence	stimulus	Stuhl	NaN	NaN	64.0	NaN	NaN	5.0	4.0	NaN	NaN	NaN	NaN	NaN
1022.6470588000002	0.0669	sub-03	1	sequence	interval	dot	NaN	NaN	NaN	NaN	NaN	NaN	NaN	NaN	NaN	NaN	NaN	NaN
1022.7139521	0.1	sub-03	1	sequence	stimulus	Katze	NaN	NaN	64.0	NaN	NaN	3.0	5.0	NaN	NaN	NaN	NaN	NaN
1022.8139879	0.0666	sub-03	1	sequence	interval	dot	NaN	NaN	NaN	NaN	NaN	NaN	NaN	NaN	NaN	NaN	NaN	NaN
1022.8805776	8.3717	sub-03	1	sequence	delay	dot	NaN	NaN	NaN	NaN	NaN	NaN	NaN	NaN	NaN	NaN	NaN	NaN
1031.2331477000007	1.0054	sub-03	1	sequence	choice	choice	right	NaN	NaN	-9.570903499999076	True	NaN	NaN	right	True	5.0	3.0	3.0
1032.2387897000008	0.5	sub-03	1	sequence	feedback	NaN	NaN	NaN	NaN	NaN	NaN	NaN	NaN	NaN	NaN	NaN	NaN	NaN
1032.7389542	1.0005	sub-03	1	sequence	cue	Stuhl	NaN	NaN	NaN	NaN	NaN	NaN	NaN	NaN	NaN	NaN	NaN	NaN
1033.7394414	2.0018	sub-03	1	sequence	blank	blank	NaN	NaN	NaN	NaN	NaN	NaN	NaN	NaN	NaN	NaN	NaN	NaN
1035.7412083	0.3002	sub-03	1	sequence	fixation	dot	NaN	NaN	NaN	NaN	NaN	NaN	NaN	NaN	NaN	NaN	NaN	NaN
1036.0588877	0.0992	sub-03	1	sequence	stimulus	Schuh	NaN	NaN	32.0	NaN	NaN	4.0	1.0	NaN	NaN	NaN	NaN	NaN
1036.1581167000004	0.0335	sub-03	1	sequence	interval	dot	NaN	NaN	NaN	NaN	NaN	NaN	NaN	NaN	NaN	NaN	NaN	NaN
1036.1916265	0.0998	sub-03	1	sequence	stimulus	Katze	NaN	NaN	32.0	NaN	NaN	3.0	2.0	NaN	NaN	NaN	NaN	NaN
1036.2914716000005	0.0334	sub-03	1	sequence	interval	dot	NaN	NaN	NaN	NaN	NaN	NaN	NaN	NaN	NaN	NaN	NaN	NaN
1036.3248790000007	0.1001	sub-03	1	sequence	stimulus	Stuhl	NaN	NaN	32.0	NaN	NaN	5.0	3.0	NaN	NaN	NaN	NaN	NaN
1036.4249502000002	0.0334	sub-03	1	sequence	interval	dot	NaN	NaN	NaN	NaN	NaN	NaN	NaN	NaN	NaN	NaN	NaN	NaN
1036.4583514000003	0.0999	sub-03	1	sequence	stimulus	Haus	NaN	NaN	32.0	NaN	NaN	2.0	4.0	NaN	NaN	NaN	NaN	NaN
1036.5582840000006	0.0335	sub-03	1	sequence	interval	dot	NaN	NaN	NaN	NaN	NaN	NaN	NaN	NaN	NaN	NaN	NaN	NaN
1036.5917986000004	0.0999	sub-03	1	sequence	stimulus	Gesicht	NaN	NaN	32.0	NaN	NaN	1.0	5.0	NaN	NaN	NaN	NaN	NaN
1036.6917476000008	0.0332	sub-03	1	sequence	interval	dot	NaN	NaN	NaN	NaN	NaN	NaN	NaN	NaN	NaN	NaN	NaN	NaN
1036.7249059000003	8.5388	sub-03	1	sequence	delay	dot	NaN	NaN	NaN	NaN	NaN	NaN	NaN	NaN	NaN	NaN	NaN	NaN
1045.2469369	0.9363	sub-03	1	sequence	choice	choice	left	NaN	NaN	-9.637968699998964	True	NaN	NaN	left	True	3.0	5.0	3.0
1046.1835044	0.4998	sub-03	1	sequence	feedback	NaN	NaN	NaN	NaN	NaN	NaN	NaN	NaN	NaN	NaN	NaN	NaN	NaN
1046.683409300001	1.0006	sub-03	1	sequence	cue	Katze	NaN	NaN	NaN	NaN	NaN	NaN	NaN	NaN	NaN	NaN	NaN	NaN
1047.6839838000003	2.0016	sub-03	1	sequence	blank	blank	NaN	NaN	NaN	NaN	NaN	NaN	NaN	NaN	NaN	NaN	NaN	NaN
1049.6856204000003	0.3001	sub-03	1	sequence	fixation	dot	NaN	NaN	NaN	NaN	NaN	NaN	NaN	NaN	NaN	NaN	NaN	NaN
1050.0041895000004	0.1149	sub-03	1	sequence	stimulus	Stuhl	NaN	NaN	512.0	NaN	NaN	5.0	1.0	NaN	NaN	NaN	NaN	NaN
1050.1190869000002	0.5173	sub-03	1	sequence	interval	dot	NaN	NaN	NaN	NaN	NaN	NaN	NaN	NaN	NaN	NaN	NaN	NaN
1050.6364108000007	0.1	sub-03	1	sequence	stimulus	Schuh	NaN	NaN	512.0	NaN	NaN	4.0	2.0	NaN	NaN	NaN	NaN	NaN
1050.7364093000006	0.5171	sub-03	1	sequence	interval	dot	NaN	NaN	NaN	NaN	NaN	NaN	NaN	NaN	NaN	NaN	NaN	NaN
1051.2535202	0.1	sub-03	1	sequence	stimulus	Katze	NaN	NaN	512.0	NaN	NaN	3.0	3.0	NaN	NaN	NaN	NaN	NaN
1051.3535192	0.5172	sub-03	1	sequence	interval	dot	NaN	NaN	NaN	NaN	NaN	NaN	NaN	NaN	NaN	NaN	NaN	NaN
1051.8707341	0.0999	sub-03	1	sequence	stimulus	Gesicht	NaN	NaN	512.0	NaN	NaN	1.0	4.0	NaN	NaN	NaN	NaN	NaN
1051.9706596000003	0.5172	sub-03	1	sequence	interval	dot	NaN	NaN	NaN	NaN	NaN	NaN	NaN	NaN	NaN	NaN	NaN	NaN
1052.4879026000008	0.0999	sub-03	1	sequence	stimulus	Haus	NaN	NaN	512.0	NaN	NaN	2.0	5.0	NaN	NaN	NaN	NaN	NaN
1052.5878064000008	0.5172	sub-03	1	sequence	interval	dot	NaN	NaN	NaN	NaN	NaN	NaN	NaN	NaN	NaN	NaN	NaN	NaN
1053.1050282000006	6.1533	sub-03	1	sequence	delay	dot	NaN	NaN	NaN	NaN	NaN	NaN	NaN	NaN	NaN	NaN	NaN	NaN
1059.2346402000005	0.8432	sub-03	1	sequence	choice	choice	left	NaN	NaN	-9.73664639999879	True	NaN	NaN	left	True	3.0	4.0	3.0
1060.0781431000005	0.5013	sub-03	1	sequence	feedback	NaN	NaN	NaN	NaN	NaN	NaN	NaN	NaN	NaN	NaN	NaN	NaN	NaN
1064.3985429000004	0.4994	sub-03	1	localizer	stimulus	Katze	NaN	0	2.5517569000003277	NaN	True	NaN	NaN	NaN	NaN	NaN	NaN	NaN
1064.8813848	2.5518	sub-03	1	localizer	blank	interval	NaN	NaN	NaN	NaN	NaN	NaN	NaN	NaN	NaN	NaN	NaN	NaN
1067.7343327000008	0.4995	sub-03	1	localizer	stimulus	Gesicht	NaN	0	2.4851552999998603	NaN	True	NaN	NaN	NaN	NaN	NaN	NaN	NaN
1068.2173038	2.4852	sub-03	1	localizer	blank	interval	NaN	NaN	NaN	NaN	NaN	NaN	NaN	NaN	NaN	NaN	NaN	NaN
1071.0036410000002	0.4995	sub-03	1	localizer	stimulus	Gesicht	NaN	180	2.468762599999536	-9.95381549999911	True	NaN	NaN	NaN	NaN	NaN	NaN	NaN
1071.4865961000005	2.4688	sub-03	1	localizer	blank	interval	NaN	NaN	NaN	NaN	NaN	NaN	NaN	NaN	NaN	NaN	NaN	NaN
1074.2564315	0.4976	sub-03	1	localizer	stimulus	Haus	NaN	0	2.2684231000005184	NaN	True	NaN	NaN	NaN	NaN	NaN	NaN	NaN
1074.7392902	2.2684	sub-03	1	localizer	blank	interval	NaN	NaN	NaN	NaN	NaN	NaN	NaN	NaN	NaN	NaN	NaN	NaN
1077.3087157	0.4995	sub-03	1	localizer	stimulus	Katze	NaN	180	2.351792100000239	-9.891066299999691	True	NaN	NaN	NaN	NaN	NaN	NaN	NaN
1077.7916940000005	2.3518	sub-03	1	localizer	blank	interval	NaN	NaN	NaN	NaN	NaN	NaN	NaN	NaN	NaN	NaN	NaN	NaN
1080.4447661000004	0.4994	sub-03	1	localizer	stimulus	Stuhl	NaN	0	1.901642400000128	NaN	True	NaN	NaN	NaN	NaN	NaN	NaN	NaN
1080.9274616000002	1.9016	sub-03	1	localizer	blank	interval	NaN	NaN	NaN	NaN	NaN	NaN	NaN	NaN	NaN	NaN	NaN	NaN
1083.1301736000005	0.4996	sub-03	1	localizer	stimulus	Katze	NaN	0	2.7352698999993663	NaN	True	NaN	NaN	NaN	NaN	NaN	NaN	NaN
1083.6132245000008	2.7353	sub-03	1	localizer	blank	interval	NaN	NaN	NaN	NaN	NaN	NaN	NaN	NaN	NaN	NaN	NaN	NaN
1086.6497052000004	0.4994	sub-03	1	localizer	stimulus	Katze	NaN	0	2.0516543999999612	NaN	True	NaN	NaN	NaN	NaN	NaN	NaN	NaN
1087.1325567000004	2.0517	sub-03	1	localizer	blank	interval	NaN	NaN	NaN	NaN	NaN	NaN	NaN	NaN	NaN	NaN	NaN	NaN
1089.4853597	0.4995	sub-03	1	localizer	stimulus	Haus	NaN	0	1.717954299999974	NaN	True	NaN	NaN	NaN	NaN	NaN	NaN	NaN
1089.9682893	1.718	sub-03	1	localizer	blank	interval	NaN	NaN	NaN	NaN	NaN	NaN	NaN	NaN	NaN	NaN	NaN	NaN
1091.9872567000002	0.4995	sub-03	1	localizer	stimulus	Haus	NaN	0	1.5513269000002765	NaN	True	NaN	NaN	NaN	NaN	NaN	NaN	NaN
1092.4703006	1.5513	sub-03	1	localizer	blank	interval	NaN	NaN	NaN	NaN	NaN	NaN	NaN	NaN	NaN	NaN	NaN	NaN
1094.3226448000005	0.4996	sub-03	1	localizer	stimulus	Gesicht	NaN	0	2.7518670999997994	NaN	True	NaN	NaN	NaN	NaN	NaN	NaN	NaN
1094.8057247000006	2.7519	sub-03	1	localizer	blank	interval	NaN	NaN	NaN	NaN	NaN	NaN	NaN	NaN	NaN	NaN	NaN	NaN
1097.8587695000006	0.4995	sub-03	1	localizer	stimulus	Katze	NaN	0	3.2190362999999707	NaN	True	NaN	NaN	NaN	NaN	NaN	NaN	NaN
1098.3417166	3.219	sub-03	1	localizer	blank	interval	NaN	NaN	NaN	NaN	NaN	NaN	NaN	NaN	NaN	NaN	NaN	NaN
1101.8620370000008	0.4995	sub-03	1	localizer	stimulus	Schuh	NaN	180	2.718915399999787	-9.891686599999048	True	NaN	NaN	NaN	NaN	NaN	NaN	NaN
1102.3448746000004	2.7189	sub-03	1	localizer	blank	interval	NaN	NaN	NaN	NaN	NaN	NaN	NaN	NaN	NaN	NaN	NaN	NaN
1105.3655086000008	0.5158	sub-03	1	localizer	stimulus	Schuh	NaN	0	3.1357977999996365	NaN	True	NaN	NaN	NaN	NaN	NaN	NaN	NaN
1105.8478344000005	3.1358	sub-03	1	localizer	blank	interval	NaN	NaN	NaN	NaN	NaN	NaN	NaN	NaN	NaN	NaN	NaN	NaN
1109.2848044000002	0.4994	sub-03	1	localizer	stimulus	Gesicht	NaN	0	1.7340230999996038	NaN	True	NaN	NaN	NaN	NaN	NaN	NaN	NaN
1109.7682179000003	1.734	sub-03	1	localizer	blank	interval	NaN	NaN	NaN	NaN	NaN	NaN	NaN	NaN	NaN	NaN	NaN	NaN
