onset	duration	subject	session	condition	trial_type	stim_label	key_down	orientation	interval_time	response_time	accuracy	stim_index	serial_position	key_expected	key_pressed	choice_left	choice_right	choice_correct
1.25105480000002	1.1618	sub-23	1	instruction	instruction	language_selection	german	NaN	NaN	NaN	NaN	NaN	NaN	NaN	NaN	NaN	NaN	NaN
41.56169779999982	0.4995	sub-23	1	localizer	stimulus	Haus	NaN	0	2.7187109000005947	NaN	1.0	NaN	NaN	NaN	NaN	NaN	NaN	NaN
42.04473059999964	2.7187	sub-23	1	localizer	blank	interval	NaN	NaN	NaN	NaN	NaN	NaN	NaN	NaN	NaN	NaN	NaN	NaN
45.06447320000007	0.4994	sub-23	1	localizer	stimulus	Haus	NaN	0	2.8354864000002635	NaN	True	NaN	NaN	NaN	NaN	NaN	NaN	NaN
45.547378399999616	2.8355	sub-23	1	localizer	blank	interval	NaN	NaN	NaN	NaN	NaN	NaN	NaN	NaN	NaN	NaN	NaN	NaN
48.683946999999534	0.4996	sub-23	1	localizer	stimulus	Gesicht	NaN	0	2.5519447999995464	NaN	True	NaN	NaN	NaN	NaN	NaN	NaN	NaN
49.16695400000026	2.5519	sub-23	1	localizer	blank	interval	NaN	NaN	NaN	NaN	NaN	NaN	NaN	NaN	NaN	NaN	NaN	NaN
52.0201788000004	0.4994	sub-23	1	localizer	stimulus	Stuhl	NaN	0	3.2191796000006434	NaN	True	NaN	NaN	NaN	NaN	NaN	NaN	NaN
52.50296879999951	3.2192	sub-23	1	localizer	blank	interval	NaN	NaN	NaN	NaN	NaN	NaN	NaN	NaN	NaN	NaN	NaN	NaN
56.02326939999966	0.4996	sub-23	1	localizer	stimulus	Stuhl	NaN	180	2.5686610000002474	0.5683822000000873	True	NaN	NaN	NaN	NaN	NaN	NaN	NaN
56.50620669999989	2.5687	sub-23	1	localizer	blank	interval	NaN	NaN	NaN	NaN	NaN	NaN	NaN	NaN	NaN	NaN	NaN	NaN
59.37596140000005	0.4995	sub-23	1	localizer	stimulus	Haus	NaN	0	1.851377500000126	NaN	True	NaN	NaN	NaN	NaN	NaN	NaN	NaN
59.85897860000023	1.8514	sub-23	1	localizer	blank	interval	NaN	NaN	NaN	NaN	NaN	NaN	NaN	NaN	NaN	NaN	NaN	NaN
62.01153090000025	0.4996	sub-23	1	localizer	stimulus	Schuh	NaN	0	2.518628300000273	NaN	True	NaN	NaN	NaN	NaN	NaN	NaN	NaN
62.494505699999536	2.5186	sub-23	1	localizer	blank	interval	NaN	NaN	NaN	NaN	NaN	NaN	NaN	NaN	NaN	NaN	NaN	NaN
65.31426120000015	0.4995	sub-23	1	localizer	stimulus	Schuh	NaN	0	2.234864099999868	NaN	True	NaN	NaN	NaN	NaN	NaN	NaN	NaN
65.7971792999997	2.2349	sub-23	1	localizer	blank	interval	NaN	NaN	NaN	NaN	NaN	NaN	NaN	NaN	NaN	NaN	NaN	NaN
68.3331460999998	0.4995	sub-23	1	localizer	stimulus	Katze	NaN	0	2.0015144999997574	NaN	True	NaN	NaN	NaN	NaN	NaN	NaN	NaN
68.81620699999985	2.0015	sub-23	1	localizer	blank	interval	NaN	NaN	NaN	NaN	NaN	NaN	NaN	NaN	NaN	NaN	NaN	NaN
71.11876049999955	0.4995	sub-23	1	localizer	stimulus	Gesicht	NaN	0	2.068285399999695	NaN	True	NaN	NaN	NaN	NaN	NaN	NaN	NaN
71.60169709999991	2.0683	sub-23	1	localizer	blank	interval	NaN	NaN	NaN	NaN	NaN	NaN	NaN	NaN	NaN	NaN	NaN	NaN
73.97104909999962	0.4997	sub-23	1	localizer	stimulus	Gesicht	NaN	180	2.0015748999994685	0.5406804999993255	True	NaN	NaN	NaN	NaN	NaN	NaN	NaN
74.45401740000034	2.0016	sub-23	1	localizer	blank	interval	NaN	NaN	NaN	NaN	NaN	NaN	NaN	NaN	NaN	NaN	NaN	NaN
76.75665509999999	0.4995	sub-23	1	localizer	stimulus	Schuh	NaN	0	3.3691994000000705	NaN	True	NaN	NaN	NaN	NaN	NaN	NaN	NaN
77.2395735	3.3692	sub-23	1	localizer	blank	interval	NaN	NaN	NaN	NaN	NaN	NaN	NaN	NaN	NaN	NaN	NaN	NaN
80.91000350000013	0.4996	sub-23	1	localizer	stimulus	Haus	NaN	0	2.1182912000003853	NaN	True	NaN	NaN	NaN	NaN	NaN	NaN	NaN
81.39305779999995	2.1183	sub-23	1	localizer	blank	interval	NaN	NaN	NaN	NaN	NaN	NaN	NaN	NaN	NaN	NaN	NaN	NaN
83.8137372000001	0.5128	sub-23	1	localizer	stimulus	Katze	NaN	0	2.151828000000023	NaN	True	NaN	NaN	NaN	NaN	NaN	NaN	NaN
84.2953792999997	2.1518	sub-23	1	localizer	blank	interval	NaN	NaN	NaN	NaN	NaN	NaN	NaN	NaN	NaN	NaN	NaN	NaN
86.74822909999966	0.4994	sub-23	1	localizer	stimulus	Haus	NaN	180	2.4518505999994886	0.4834731000000829	True	NaN	NaN	NaN	NaN	NaN	NaN	NaN
87.23110650000035	2.4519	sub-23	1	localizer	blank	interval	NaN	NaN	NaN	NaN	NaN	NaN	NaN	NaN	NaN	NaN	NaN	NaN
89.9839923999998	0.4995	sub-23	1	localizer	stimulus	Stuhl	NaN	0	2.651916599999822	NaN	True	NaN	NaN	NaN	NaN	NaN	NaN	NaN
90.46703239999988	2.6519	sub-23	1	localizer	blank	interval	NaN	NaN	NaN	NaN	NaN	NaN	NaN	NaN	NaN	NaN	NaN	NaN
93.42009549999966	0.4995	sub-23	1	localizer	stimulus	Katze	NaN	0	2.5019074000001496	NaN	True	NaN	NaN	NaN	NaN	NaN	NaN	NaN
93.9030260999998	2.5019	sub-23	1	localizer	blank	interval	NaN	NaN	NaN	NaN	NaN	NaN	NaN	NaN	NaN	NaN	NaN	NaN
96.70608129999982	0.4996	sub-23	1	localizer	stimulus	Katze	NaN	0	2.218331899999626	NaN	True	NaN	NaN	NaN	NaN	NaN	NaN	NaN
97.1891241000003	2.2183	sub-23	1	localizer	blank	interval	NaN	NaN	NaN	NaN	NaN	NaN	NaN	NaN	NaN	NaN	NaN	NaN
99.70852860000014	0.4995	sub-23	1	localizer	stimulus	Schuh	NaN	0	2.3517258000001533	NaN	True	NaN	NaN	NaN	NaN	NaN	NaN	NaN
100.1915127000002	2.3517	sub-23	1	localizer	blank	interval	NaN	NaN	NaN	NaN	NaN	NaN	NaN	NaN	NaN	NaN	NaN	NaN
102.84458879999966	0.4993	sub-23	1	localizer	stimulus	Stuhl	NaN	0	1.8683012999999562	NaN	True	NaN	NaN	NaN	NaN	NaN	NaN	NaN
103.3273061	1.8683	sub-23	1	localizer	blank	interval	NaN	NaN	NaN	NaN	NaN	NaN	NaN	NaN	NaN	NaN	NaN	NaN
105.4965345999999	0.4996	sub-23	1	localizer	stimulus	Schuh	NaN	180	1.5179318999999083	0.5591151999997237	True	NaN	NaN	NaN	NaN	NaN	NaN	NaN
105.97960340000007	1.5179	sub-23	1	localizer	blank	interval	NaN	NaN	NaN	NaN	NaN	NaN	NaN	NaN	NaN	NaN	NaN	NaN
107.79851640000015	0.4994	sub-23	1	localizer	stimulus	Gesicht	NaN	0	2.3013060000003094	NaN	True	NaN	NaN	NaN	NaN	NaN	NaN	NaN
108.28176629999962	2.3013	sub-23	1	localizer	blank	interval	NaN	NaN	NaN	NaN	NaN	NaN	NaN	NaN	NaN	NaN	NaN	NaN
110.88419290000002	0.4996	sub-23	1	localizer	stimulus	Katze	NaN	180	2.4853519999997076	0.4754917999998724	True	NaN	NaN	NaN	NaN	NaN	NaN	NaN
111.3671217000001	2.4854	sub-23	1	localizer	blank	interval	NaN	NaN	NaN	NaN	NaN	NaN	NaN	NaN	NaN	NaN	NaN	NaN
114.1535273999998	0.4995	sub-23	1	localizer	stimulus	Stuhl	NaN	0	2.50187890000052	NaN	True	NaN	NaN	NaN	NaN	NaN	NaN	NaN
114.63649749999968	2.5019	sub-23	1	localizer	blank	interval	NaN	NaN	NaN	NaN	NaN	NaN	NaN	NaN	NaN	NaN	NaN	NaN
117.43950140000015	0.4995	sub-23	1	localizer	stimulus	Gesicht	NaN	0	1.9681861999997636	NaN	True	NaN	NaN	NaN	NaN	NaN	NaN	NaN
117.9224863999998	1.9682	sub-23	1	localizer	blank	interval	NaN	NaN	NaN	NaN	NaN	NaN	NaN	NaN	NaN	NaN	NaN	NaN
123.37717359999988	1.0004	sub-23	1	sequence	cue	Schuh	NaN	NaN	NaN	NaN	NaN	NaN	NaN	NaN	NaN	NaN	NaN	NaN
124.37762699999983	2.0018	sub-23	1	sequence	blank	blank	NaN	NaN	NaN	NaN	NaN	NaN	NaN	NaN	NaN	NaN	NaN	NaN
126.37943540000016	0.3001	sub-23	1	sequence	fixation	dot	NaN	NaN	NaN	NaN	NaN	NaN	NaN	NaN	NaN	NaN	NaN	NaN
126.72760970000036	0.102	sub-23	1	sequence	stimulus	Gesicht	NaN	NaN	32.0	NaN	NaN	1.0	1.0	NaN	NaN	NaN	NaN	NaN
126.82963930000004	0.0335	sub-23	1	sequence	interval	dot	NaN	NaN	NaN	NaN	NaN	NaN	NaN	NaN	NaN	NaN	NaN	NaN
126.86310419999973	0.1	sub-23	1	sequence	stimulus	Haus	NaN	NaN	32.0	NaN	NaN	2.0	2.0	NaN	NaN	NaN	NaN	NaN
126.96306149999964	0.0349	sub-23	1	sequence	interval	dot	NaN	NaN	NaN	NaN	NaN	NaN	NaN	NaN	NaN	NaN	NaN	NaN
126.99799660000008	0.1152	sub-23	1	sequence	stimulus	Schuh	NaN	NaN	32.0	NaN	NaN	4.0	3.0	NaN	NaN	NaN	NaN	NaN
127.11316950000035	0.0335	sub-23	1	sequence	interval	dot	NaN	NaN	NaN	NaN	NaN	NaN	NaN	NaN	NaN	NaN	NaN	NaN
127.1466905999996	0.1	sub-23	1	sequence	stimulus	Stuhl	NaN	NaN	32.0	NaN	NaN	5.0	4.0	NaN	NaN	NaN	NaN	NaN
127.2466585000002	0.0335	sub-23	1	sequence	interval	dot	NaN	NaN	NaN	NaN	NaN	NaN	NaN	NaN	NaN	NaN	NaN	NaN
127.28015059999962	0.1	sub-23	1	sequence	stimulus	Katze	NaN	NaN	32.0	NaN	NaN	3.0	5.0	NaN	NaN	NaN	NaN	NaN
127.38018980000015	0.0333	sub-23	1	sequence	interval	dot	NaN	NaN	NaN	NaN	NaN	NaN	NaN	NaN	NaN	NaN	NaN	NaN
127.41344000000026	8.5214	sub-23	1	sequence	delay	dot	NaN	NaN	NaN	NaN	NaN	NaN	NaN	NaN	NaN	NaN	NaN	NaN
135.91392610000003	1.0072	sub-23	1	sequence	choice	choice	left	NaN	NaN	0.9847301999998308	True	NaN	NaN	left	1.0	3.0	5.0	3.0
136.92131280000012	0.5002	sub-23	1	sequence	feedback	NaN	NaN	NaN	NaN	NaN	NaN	NaN	NaN	NaN	NaN	NaN	NaN	NaN
137.42167619999964	1.0006	sub-23	1	sequence	cue	Stuhl	NaN	NaN	NaN	NaN	NaN	NaN	NaN	NaN	NaN	NaN	NaN	NaN
138.42231749999974	2.0015	sub-23	1	sequence	blank	blank	NaN	NaN	NaN	NaN	NaN	NaN	NaN	NaN	NaN	NaN	NaN	NaN
140.42385110000032	0.3002	sub-23	1	sequence	fixation	dot	NaN	NaN	NaN	NaN	NaN	NaN	NaN	NaN	NaN	NaN	NaN	NaN
140.74216950000027	0.1154	sub-23	1	sequence	stimulus	Gesicht	NaN	NaN	64.0	NaN	NaN	1.0	1.0	NaN	NaN	NaN	NaN	NaN
140.8575264000001	0.0669	sub-23	1	sequence	interval	dot	NaN	NaN	NaN	NaN	NaN	NaN	NaN	NaN	NaN	NaN	NaN	NaN
140.92442049999954	0.0999	sub-23	1	sequence	stimulus	Katze	NaN	NaN	64.0	NaN	NaN	3.0	2.0	NaN	NaN	NaN	NaN	NaN
141.0242903999997	0.0669	sub-23	1	sequence	interval	dot	NaN	NaN	NaN	NaN	NaN	NaN	NaN	NaN	NaN	NaN	NaN	NaN
141.0911699999997	0.0999	sub-23	1	sequence	stimulus	Schuh	NaN	NaN	64.0	NaN	NaN	4.0	3.0	NaN	NaN	NaN	NaN	NaN
141.19111640000028	0.0669	sub-23	1	sequence	interval	dot	NaN	NaN	NaN	NaN	NaN	NaN	NaN	NaN	NaN	NaN	NaN	NaN
141.25801479999973	0.0999	sub-23	1	sequence	stimulus	Stuhl	NaN	NaN	64.0	NaN	NaN	5.0	4.0	NaN	NaN	NaN	NaN	NaN
141.35790519999955	0.0669	sub-23	1	sequence	interval	dot	NaN	NaN	NaN	NaN	NaN	NaN	NaN	NaN	NaN	NaN	NaN	NaN
141.42477340000005	0.0999	sub-23	1	sequence	stimulus	Haus	NaN	NaN	64.0	NaN	NaN	2.0	5.0	NaN	NaN	NaN	NaN	NaN
141.5247061	0.0681	sub-23	1	sequence	interval	dot	NaN	NaN	NaN	NaN	NaN	NaN	NaN	NaN	NaN	NaN	NaN	NaN
141.59281159999955	8.3868	sub-23	1	sequence	delay	dot	NaN	NaN	NaN	NaN	NaN	NaN	NaN	NaN	NaN	NaN	NaN	NaN
149.9537104000001	0.9955	sub-23	1	sequence	choice	choice	right	NaN	NaN	0.9559687000000848	True	NaN	NaN	right	True	2.0	4.0	4.0
150.9495133999999	0.5	sub-23	1	sequence	feedback	NaN	NaN	NaN	NaN	NaN	NaN	NaN	NaN	NaN	NaN	NaN	NaN	NaN
151.44975749999958	1.0005	sub-23	1	sequence	cue	Gesicht	NaN	NaN	NaN	NaN	NaN	NaN	NaN	NaN	NaN	NaN	NaN	NaN
152.45023159999982	2.0017	sub-23	1	sequence	blank	blank	NaN	NaN	NaN	NaN	NaN	NaN	NaN	NaN	NaN	NaN	NaN	NaN
154.4519252	0.3001	sub-23	1	sequence	fixation	dot	NaN	NaN	NaN	NaN	NaN	NaN	NaN	NaN	NaN	NaN	NaN	NaN
154.76970540000002	0.0991	sub-23	1	sequence	stimulus	Schuh	NaN	NaN	512.0	NaN	NaN	4.0	1.0	NaN	NaN	NaN	NaN	NaN
154.8688087999999	0.5172	sub-23	1	sequence	interval	dot	NaN	NaN	NaN	NaN	NaN	NaN	NaN	NaN	NaN	NaN	NaN	NaN
155.3860421999998	0.0999	sub-23	1	sequence	stimulus	Haus	NaN	NaN	512.0	NaN	NaN	2.0	2.0	NaN	NaN	NaN	NaN	NaN
155.4859908999997	0.5172	sub-23	1	sequence	interval	dot	NaN	NaN	NaN	NaN	NaN	NaN	NaN	NaN	NaN	NaN	NaN	NaN
156.00317489999998	0.1	sub-23	1	sequence	stimulus	Katze	NaN	NaN	512.0	NaN	NaN	3.0	3.0	NaN	NaN	NaN	NaN	NaN
156.1031567	0.5172	sub-23	1	sequence	interval	dot	NaN	NaN	NaN	NaN	NaN	NaN	NaN	NaN	NaN	NaN	NaN	NaN
156.6203671000003	0.1	sub-23	1	sequence	stimulus	Stuhl	NaN	NaN	512.0	NaN	NaN	5.0	4.0	NaN	NaN	NaN	NaN	NaN
156.72032779999972	0.5172	sub-23	1	sequence	interval	dot	NaN	NaN	NaN	NaN	NaN	NaN	NaN	NaN	NaN	NaN	NaN	NaN
157.23751579999953	0.1	sub-23	1	sequence	stimulus	Gesicht	NaN	NaN	512.0	NaN	NaN	1.0	5.0	NaN	NaN	NaN	NaN	NaN
157.33746919999976	0.5172	sub-23	1	sequence	interval	dot	NaN	NaN	NaN	NaN	NaN	NaN	NaN	NaN	NaN	NaN	NaN	NaN
157.85464539999975	6.1531	sub-23	1	sequence	delay	dot	NaN	NaN	NaN	NaN	NaN	NaN	NaN	NaN	NaN	NaN	NaN	NaN
163.99335229999997	1.5677	sub-23	1	sequence	choice	choice	left	NaN	NaN	1.543948000000455	True	NaN	NaN	left	True	5.0	2.0	5.0
165.56135679999988	0.4999	sub-23	1	sequence	feedback	NaN	NaN	NaN	NaN	NaN	NaN	NaN	NaN	NaN	NaN	NaN	NaN	NaN
166.06153679999989	1.0006	sub-23	1	sequence	cue	Schuh	NaN	NaN	NaN	NaN	NaN	NaN	NaN	NaN	NaN	NaN	NaN	NaN
167.06217070000002	2.0017	sub-23	1	sequence	blank	blank	NaN	NaN	NaN	NaN	NaN	NaN	NaN	NaN	NaN	NaN	NaN	NaN
169.0638783000004	0.3002	sub-23	1	sequence	fixation	dot	NaN	NaN	NaN	NaN	NaN	NaN	NaN	NaN	NaN	NaN	NaN	NaN
169.3823640999999	0.1151	sub-23	1	sequence	stimulus	Gesicht	NaN	NaN	128.0	NaN	NaN	1.0	1.0	NaN	NaN	NaN	NaN	NaN
169.49748259999978	0.1335	sub-23	1	sequence	interval	dot	NaN	NaN	NaN	NaN	NaN	NaN	NaN	NaN	NaN	NaN	NaN	NaN
169.63102270000036	0.1	sub-23	1	sequence	stimulus	Katze	NaN	NaN	128.0	NaN	NaN	3.0	2.0	NaN	NaN	NaN	NaN	NaN
169.73103209999954	0.1336	sub-23	1	sequence	interval	dot	NaN	NaN	NaN	NaN	NaN	NaN	NaN	NaN	NaN	NaN	NaN	NaN
169.8645994999997	0.1	sub-23	1	sequence	stimulus	Stuhl	NaN	NaN	128.0	NaN	NaN	5.0	3.0	NaN	NaN	NaN	NaN	NaN
169.9645572999998	0.1335	sub-23	1	sequence	interval	dot	NaN	NaN	NaN	NaN	NaN	NaN	NaN	NaN	NaN	NaN	NaN	NaN
170.09809899999982	0.0999	sub-23	1	sequence	stimulus	Schuh	NaN	NaN	128.0	NaN	NaN	4.0	4.0	NaN	NaN	NaN	NaN	NaN
170.19802479999998	0.1336	sub-23	1	sequence	interval	dot	NaN	NaN	NaN	NaN	NaN	NaN	NaN	NaN	NaN	NaN	NaN	NaN
170.3315974999996	0.1	sub-23	1	sequence	stimulus	Haus	NaN	NaN	128.0	NaN	NaN	2.0	5.0	NaN	NaN	NaN	NaN	NaN
170.4315805999995	0.1334	sub-23	1	sequence	interval	dot	NaN	NaN	NaN	NaN	NaN	NaN	NaN	NaN	NaN	NaN	NaN	NaN
170.5650268999998	8.0545	sub-23	1	sequence	delay	dot	NaN	NaN	NaN	NaN	NaN	NaN	NaN	NaN	NaN	NaN	NaN	NaN
178.6050095999999	2.5018	sub-23	1	sequence	choice	choice	NaN	NaN	NaN	NaN	False	NaN	NaN	right	False	5.0	4.0	4.0
181.1069655000001	0.5001	sub-23	1	sequence	feedback	NaN	NaN	NaN	NaN	NaN	NaN	NaN	NaN	NaN	NaN	NaN	NaN	NaN
181.60726220000012	1.0008	sub-23	1	sequence	cue	Schuh	NaN	NaN	NaN	NaN	NaN	NaN	NaN	NaN	NaN	NaN	NaN	NaN
182.60809160000008	2.0014	sub-23	1	sequence	blank	blank	NaN	NaN	NaN	NaN	NaN	NaN	NaN	NaN	NaN	NaN	NaN	NaN
184.6095480000004	0.3003	sub-23	1	sequence	fixation	dot	NaN	NaN	NaN	NaN	NaN	NaN	NaN	NaN	NaN	NaN	NaN	NaN
184.92729020000024	0.0992	sub-23	1	sequence	stimulus	Stuhl	NaN	NaN	64.0	NaN	NaN	5.0	1.0	NaN	NaN	NaN	NaN	NaN
185.02647509999952	0.0669	sub-23	1	sequence	interval	dot	NaN	NaN	NaN	NaN	NaN	NaN	NaN	NaN	NaN	NaN	NaN	NaN
185.0933312999996	0.1	sub-23	1	sequence	stimulus	Katze	NaN	NaN	64.0	NaN	NaN	3.0	2.0	NaN	NaN	NaN	NaN	NaN
185.19330340000036	0.0669	sub-23	1	sequence	interval	dot	NaN	NaN	NaN	NaN	NaN	NaN	NaN	NaN	NaN	NaN	NaN	NaN
185.26017969999972	0.1	sub-23	1	sequence	stimulus	Haus	NaN	NaN	64.0	NaN	NaN	2.0	3.0	NaN	NaN	NaN	NaN	NaN
185.36014859999975	0.0668	sub-23	1	sequence	interval	dot	NaN	NaN	NaN	NaN	NaN	NaN	NaN	NaN	NaN	NaN	NaN	NaN
185.4269303000001	0.1	sub-23	1	sequence	stimulus	Gesicht	NaN	NaN	64.0	NaN	NaN	1.0	4.0	NaN	NaN	NaN	NaN	NaN
185.5269029000001	0.0668	sub-23	1	sequence	interval	dot	NaN	NaN	NaN	NaN	NaN	NaN	NaN	NaN	NaN	NaN	NaN	NaN
185.59372679999976	0.1	sub-23	1	sequence	stimulus	Schuh	NaN	NaN	64.0	NaN	NaN	4.0	5.0	NaN	NaN	NaN	NaN	NaN
185.6937482000003	0.0667	sub-23	1	sequence	interval	dot	NaN	NaN	NaN	NaN	NaN	NaN	NaN	NaN	NaN	NaN	NaN	NaN
185.76043089999985	8.3884	sub-23	1	sequence	delay	dot	NaN	NaN	NaN	NaN	NaN	NaN	NaN	NaN	NaN	NaN	NaN	NaN
194.1266228000004	0.8581	sub-23	1	sequence	choice	choice	left	NaN	NaN	0.8266997000000629	True	NaN	NaN	left	True	5.0	2.0	5.0
194.98502850000023	0.5	sub-23	1	sequence	feedback	NaN	NaN	NaN	NaN	NaN	NaN	NaN	NaN	NaN	NaN	NaN	NaN	NaN
195.48529839999992	1.0005	sub-23	1	sequence	cue	Katze	NaN	NaN	NaN	NaN	NaN	NaN	NaN	NaN	NaN	NaN	NaN	NaN
196.4857751999998	2.0017	sub-23	1	sequence	blank	blank	NaN	NaN	NaN	NaN	NaN	NaN	NaN	NaN	NaN	NaN	NaN	NaN
198.4875265999999	0.3002	sub-23	1	sequence	fixation	dot	NaN	NaN	NaN	NaN	NaN	NaN	NaN	NaN	NaN	NaN	NaN	NaN
198.8051949000001	0.0992	sub-23	1	sequence	stimulus	Schuh	NaN	NaN	512.0	NaN	NaN	4.0	1.0	NaN	NaN	NaN	NaN	NaN
198.90440190000027	0.5172	sub-23	1	sequence	interval	dot	NaN	NaN	NaN	NaN	NaN	NaN	NaN	NaN	NaN	NaN	NaN	NaN
199.4216133	0.0999	sub-23	1	sequence	stimulus	Haus	NaN	NaN	512.0	NaN	NaN	2.0	2.0	NaN	NaN	NaN	NaN	NaN
199.52151909999972	0.5172	sub-23	1	sequence	interval	dot	NaN	NaN	NaN	NaN	NaN	NaN	NaN	NaN	NaN	NaN	NaN	NaN
200.03873620000013	0.0999	sub-23	1	sequence	stimulus	Katze	NaN	NaN	512.0	NaN	NaN	3.0	3.0	NaN	NaN	NaN	NaN	NaN
200.13867089999985	0.5173	sub-23	1	sequence	interval	dot	NaN	NaN	NaN	NaN	NaN	NaN	NaN	NaN	NaN	NaN	NaN	NaN
200.65600170000016	0.0999	sub-23	1	sequence	stimulus	Gesicht	NaN	NaN	512.0	NaN	NaN	1.0	4.0	NaN	NaN	NaN	NaN	NaN
200.7559387000001	0.5171	sub-23	1	sequence	interval	dot	NaN	NaN	NaN	NaN	NaN	NaN	NaN	NaN	NaN	NaN	NaN	NaN
201.27306849999968	0.1	sub-23	1	sequence	stimulus	Stuhl	NaN	NaN	512.0	NaN	NaN	5.0	5.0	NaN	NaN	NaN	NaN	NaN
201.37308779999967	0.517	sub-23	1	sequence	interval	dot	NaN	NaN	NaN	NaN	NaN	NaN	NaN	NaN	NaN	NaN	NaN	NaN
201.89010719999987	6.1366	sub-23	1	sequence	delay	dot	NaN	NaN	NaN	NaN	NaN	NaN	NaN	NaN	NaN	NaN	NaN	NaN
208.0104338000001	1.0693	sub-23	1	sequence	choice	choice	right	NaN	NaN	1.044732400000612	True	NaN	NaN	right	True	4.0	3.0	3.0
209.0799920999998	0.5	sub-23	1	sequence	feedback	NaN	NaN	NaN	NaN	NaN	NaN	NaN	NaN	NaN	NaN	NaN	NaN	NaN
209.58021819999976	1.0004	sub-23	1	sequence	cue	Stuhl	NaN	NaN	NaN	NaN	NaN	NaN	NaN	NaN	NaN	NaN	NaN	NaN
210.58062390000032	2.0017	sub-23	1	sequence	blank	blank	NaN	NaN	NaN	NaN	NaN	NaN	NaN	NaN	NaN	NaN	NaN	NaN
212.58233289999956	0.3	sub-23	1	sequence	fixation	dot	NaN	NaN	NaN	NaN	NaN	NaN	NaN	NaN	NaN	NaN	NaN	NaN
212.90066579999984	0.1151	sub-23	1	sequence	stimulus	Gesicht	NaN	NaN	128.0	NaN	NaN	1.0	1.0	NaN	NaN	NaN	NaN	NaN
213.01575409999987	0.1336	sub-23	1	sequence	interval	dot	NaN	NaN	NaN	NaN	NaN	NaN	NaN	NaN	NaN	NaN	NaN	NaN
213.1493800999997	0.0999	sub-23	1	sequence	stimulus	Katze	NaN	NaN	128.0	NaN	NaN	3.0	2.0	NaN	NaN	NaN	NaN	NaN
213.24928569999972	0.1336	sub-23	1	sequence	interval	dot	NaN	NaN	NaN	NaN	NaN	NaN	NaN	NaN	NaN	NaN	NaN	NaN
213.3828532999996	0.1	sub-23	1	sequence	stimulus	Schuh	NaN	NaN	128.0	NaN	NaN	4.0	3.0	NaN	NaN	NaN	NaN	NaN
213.4828152	0.1336	sub-23	1	sequence	interval	dot	NaN	NaN	NaN	NaN	NaN	NaN	NaN	NaN	NaN	NaN	NaN	NaN
213.6163921999996	0.0999	sub-23	1	sequence	stimulus	Haus	NaN	NaN	128.0	NaN	NaN	2.0	4.0	NaN	NaN	NaN	NaN	NaN
213.71630370000003	0.1336	sub-23	1	sequence	interval	dot	NaN	NaN	NaN	NaN	NaN	NaN	NaN	NaN	NaN	NaN	NaN	NaN
213.8499031000001	0.1	sub-23	1	sequence	stimulus	Stuhl	NaN	NaN	128.0	NaN	NaN	5.0	5.0	NaN	NaN	NaN	NaN	NaN
213.9498547000003	0.1334	sub-23	1	sequence	interval	dot	NaN	NaN	NaN	NaN	NaN	NaN	NaN	NaN	NaN	NaN	NaN	NaN
214.08328129999973	8.0716	sub-23	1	sequence	delay	dot	NaN	NaN	NaN	NaN	NaN	NaN	NaN	NaN	NaN	NaN	NaN	NaN
222.1280485999996	0.946	sub-23	1	sequence	choice	choice	right	NaN	NaN	0.916584800000237	True	NaN	NaN	right	True	3.0	5.0	5.0
223.0743150999997	0.5001	sub-23	1	sequence	feedback	NaN	NaN	NaN	NaN	NaN	NaN	NaN	NaN	NaN	NaN	NaN	NaN	NaN
223.57467439999985	1.0005	sub-23	1	sequence	cue	Stuhl	NaN	NaN	NaN	NaN	NaN	NaN	NaN	NaN	NaN	NaN	NaN	NaN
224.57519739999952	2.0016	sub-23	1	sequence	blank	blank	NaN	NaN	NaN	NaN	NaN	NaN	NaN	NaN	NaN	NaN	NaN	NaN
226.5767904000004	0.3002	sub-23	1	sequence	fixation	dot	NaN	NaN	NaN	NaN	NaN	NaN	NaN	NaN	NaN	NaN	NaN	NaN
226.8945249999997	0.0992	sub-23	1	sequence	stimulus	Gesicht	NaN	NaN	32.0	NaN	NaN	1.0	1.0	NaN	NaN	NaN	NaN	NaN
226.9937463999995	0.0334	sub-23	1	sequence	interval	dot	NaN	NaN	NaN	NaN	NaN	NaN	NaN	NaN	NaN	NaN	NaN	NaN
227.02718749999983	0.1	sub-23	1	sequence	stimulus	Katze	NaN	NaN	32.0	NaN	NaN	3.0	2.0	NaN	NaN	NaN	NaN	NaN
227.1271489000001	0.0335	sub-23	1	sequence	interval	dot	NaN	NaN	NaN	NaN	NaN	NaN	NaN	NaN	NaN	NaN	NaN	NaN
227.1606886999998	0.0999	sub-23	1	sequence	stimulus	Haus	NaN	NaN	32.0	NaN	NaN	2.0	3.0	NaN	NaN	NaN	NaN	NaN
227.26059590000023	0.0335	sub-23	1	sequence	interval	dot	NaN	NaN	NaN	NaN	NaN	NaN	NaN	NaN	NaN	NaN	NaN	NaN
227.29407660000012	0.1	sub-23	1	sequence	stimulus	Stuhl	NaN	NaN	32.0	NaN	NaN	5.0	4.0	NaN	NaN	NaN	NaN	NaN
227.39405050000005	0.0335	sub-23	1	sequence	interval	dot	NaN	NaN	NaN	NaN	NaN	NaN	NaN	NaN	NaN	NaN	NaN	NaN
227.4275101000003	0.1001	sub-23	1	sequence	stimulus	Schuh	NaN	NaN	32.0	NaN	NaN	4.0	5.0	NaN	NaN	NaN	NaN	NaN
227.5276014000001	0.0333	sub-23	1	sequence	interval	dot	NaN	NaN	NaN	NaN	NaN	NaN	NaN	NaN	NaN	NaN	NaN	NaN
227.5608972	8.5551	sub-23	1	sequence	delay	dot	NaN	NaN	NaN	NaN	NaN	NaN	NaN	NaN	NaN	NaN	NaN	NaN
236.08965439999972	0.7956	sub-23	1	sequence	choice	choice	left	NaN	NaN	0.7633921000006012	True	NaN	NaN	left	True	4.0	3.0	4.0
236.885534	0.5001	sub-23	1	sequence	feedback	NaN	NaN	NaN	NaN	NaN	NaN	NaN	NaN	NaN	NaN	NaN	NaN	NaN
241.2062052000001	0.4994	sub-23	1	localizer	stimulus	Gesicht	NaN	0	1.4676990999996917	NaN	True	NaN	NaN	NaN	NaN	NaN	NaN	NaN
241.68905900000027	1.4677	sub-23	1	localizer	blank	interval	NaN	NaN	NaN	NaN	NaN	NaN	NaN	NaN	NaN	NaN	NaN	NaN
243.4578988000003	0.4995	sub-23	1	localizer	stimulus	Stuhl	NaN	0	1.9348000999998192	NaN	True	NaN	NaN	NaN	NaN	NaN	NaN	NaN
243.94082489999985	1.9348	sub-23	1	localizer	blank	interval	NaN	NaN	NaN	NaN	NaN	NaN	NaN	NaN	NaN	NaN	NaN	NaN
246.17677970000025	0.4995	sub-23	1	localizer	stimulus	Katze	NaN	0	3.486035300000367	NaN	True	NaN	NaN	NaN	NaN	NaN	NaN	NaN
246.6596952	3.486	sub-23	1	localizer	blank	interval	NaN	NaN	NaN	NaN	NaN	NaN	NaN	NaN	NaN	NaN	NaN	NaN
250.44708429999991	0.4994	sub-23	1	localizer	stimulus	Schuh	NaN	180	1.650987699999888	0.768250099999932	True	NaN	NaN	NaN	NaN	NaN	NaN	NaN
250.9301360999998	1.651	sub-23	1	localizer	blank	interval	NaN	NaN	NaN	NaN	NaN	NaN	NaN	NaN	NaN	NaN	NaN	NaN
252.8822551000003	0.4998	sub-23	1	localizer	stimulus	Schuh	NaN	0	2.8854008000007525	NaN	True	NaN	NaN	NaN	NaN	NaN	NaN	NaN
253.36527109999952	2.8854	sub-23	1	localizer	blank	interval	NaN	NaN	NaN	NaN	NaN	NaN	NaN	NaN	NaN	NaN	NaN	NaN
256.55183299999953	0.4995	sub-23	1	localizer	stimulus	Katze	NaN	0	2.835576599999513	NaN	True	NaN	NaN	NaN	NaN	NaN	NaN	NaN
257.0347737000002	2.8356	sub-23	1	localizer	blank	interval	NaN	NaN	NaN	NaN	NaN	NaN	NaN	NaN	NaN	NaN	NaN	NaN
260.17154839999966	0.4994	sub-23	1	localizer	stimulus	Gesicht	NaN	0	2.8354964999999197	NaN	True	NaN	NaN	NaN	NaN	NaN	NaN	NaN
260.6544057000001	2.8355	sub-23	1	localizer	blank	interval	NaN	NaN	NaN	NaN	NaN	NaN	NaN	NaN	NaN	NaN	NaN	NaN
263.79099589999987	0.4995	sub-23	1	localizer	stimulus	Katze	NaN	0	2.752113699999427	NaN	True	NaN	NaN	NaN	NaN	NaN	NaN	NaN
264.2739196000002	2.7521	sub-23	1	localizer	blank	interval	NaN	NaN	NaN	NaN	NaN	NaN	NaN	NaN	NaN	NaN	NaN	NaN
267.3271943	0.5037	sub-23	1	localizer	stimulus	Katze	NaN	180	1.5006885000002512	0.4881592000001546	True	NaN	NaN	NaN	NaN	NaN	NaN	NaN
267.8105121999997	1.5007	sub-23	1	localizer	blank	interval	NaN	NaN	NaN	NaN	NaN	NaN	NaN	NaN	NaN	NaN	NaN	NaN
269.6124092	0.4994	sub-23	1	localizer	stimulus	Haus	NaN	0	2.1684093000003486	NaN	True	NaN	NaN	NaN	NaN	NaN	NaN	NaN
270.09529959999963	2.1684	sub-23	1	localizer	blank	interval	NaN	NaN	NaN	NaN	NaN	NaN	NaN	NaN	NaN	NaN	NaN	NaN
272.5648344000001	0.4995	sub-23	1	localizer	stimulus	Schuh	NaN	0	2.852190999999948	NaN	True	NaN	NaN	NaN	NaN	NaN	NaN	NaN
273.0477681000002	2.8522	sub-23	1	localizer	blank	interval	NaN	NaN	NaN	NaN	NaN	NaN	NaN	NaN	NaN	NaN	NaN	NaN
276.20101030000023	0.4995	sub-23	1	localizer	stimulus	Gesicht	NaN	0	2.4517626999995628	NaN	True	NaN	NaN	NaN	NaN	NaN	NaN	NaN
276.6840436000002	2.4518	sub-23	1	localizer	blank	interval	NaN	NaN	NaN	NaN	NaN	NaN	NaN	NaN	NaN	NaN	NaN	NaN
279.4369512000003	0.4996	sub-23	1	localizer	stimulus	Gesicht	NaN	0	2.6520051999996213	NaN	True	NaN	NaN	NaN	NaN	NaN	NaN	NaN
279.9200300000002	2.652	sub-23	1	localizer	blank	interval	NaN	NaN	NaN	NaN	NaN	NaN	NaN	NaN	NaN	NaN	NaN	NaN
282.87308680000024	0.4994	sub-23	1	localizer	stimulus	Schuh	NaN	0	2.084888599999431	NaN	True	NaN	NaN	NaN	NaN	NaN	NaN	NaN
283.3560021000003	2.0849	sub-23	1	localizer	blank	interval	NaN	NaN	NaN	NaN	NaN	NaN	NaN	NaN	NaN	NaN	NaN	NaN
285.7420704999995	0.4995	sub-23	1	localizer	stimulus	Haus	NaN	180	2.3351763999999093	0.5292553000008411	True	NaN	NaN	NaN	NaN	NaN	NaN	NaN
286.2249886999998	2.3352	sub-23	1	localizer	blank	interval	NaN	NaN	NaN	NaN	NaN	NaN	NaN	NaN	NaN	NaN	NaN	NaN
288.8613607999996	0.4993	sub-23	1	localizer	stimulus	Stuhl	NaN	0	2.1017154999999548	NaN	True	NaN	NaN	NaN	NaN	NaN	NaN	NaN
289.3441439999997	2.1017	sub-23	1	localizer	blank	interval	NaN	NaN	NaN	NaN	NaN	NaN	NaN	NaN	NaN	NaN	NaN	NaN
291.7471646000004	0.4992	sub-23	1	localizer	stimulus	Haus	NaN	0	2.19968659999995	NaN	True	NaN	NaN	NaN	NaN	NaN	NaN	NaN
292.2298904999998	2.1997	sub-23	1	localizer	blank	interval	NaN	NaN	NaN	NaN	NaN	NaN	NaN	NaN	NaN	NaN	NaN	NaN
294.7327844000001	0.4995	sub-23	1	localizer	stimulus	Katze	NaN	0	2.2848447999995187	NaN	True	NaN	NaN	NaN	NaN	NaN	NaN	NaN
295.21579310000016	2.2848	sub-23	1	localizer	blank	interval	NaN	NaN	NaN	NaN	NaN	NaN	NaN	NaN	NaN	NaN	NaN	NaN
297.80175729999974	0.4995	sub-23	1	localizer	stimulus	Stuhl	NaN	0	1.8180191999999806	NaN	True	NaN	NaN	NaN	NaN	NaN	NaN	NaN
298.28470879999986	1.818	sub-23	1	localizer	blank	interval	NaN	NaN	NaN	NaN	NaN	NaN	NaN	NaN	NaN	NaN	NaN	NaN
300.4038996	0.4995	sub-23	1	localizer	stimulus	Schuh	NaN	0	2.9023403999999573	NaN	True	NaN	NaN	NaN	NaN	NaN	NaN	NaN
300.8868117000002	2.9023	sub-23	1	localizer	blank	interval	NaN	NaN	NaN	NaN	NaN	NaN	NaN	NaN	NaN	NaN	NaN	NaN
304.0901743000004	0.4996	sub-23	1	localizer	stimulus	Stuhl	NaN	180	2.8688309999997728	0.5570437000005768	True	NaN	NaN	NaN	NaN	NaN	NaN	NaN
304.5732546999998	2.8688	sub-23	1	localizer	blank	interval	NaN	NaN	NaN	NaN	NaN	NaN	NaN	NaN	NaN	NaN	NaN	NaN
307.7431020000004	0.4995	sub-23	1	localizer	stimulus	Stuhl	NaN	0	2.2850119999993694	NaN	True	NaN	NaN	NaN	NaN	NaN	NaN	NaN
308.2261980000003	2.285	sub-23	1	localizer	blank	interval	NaN	NaN	NaN	NaN	NaN	NaN	NaN	NaN	NaN	NaN	NaN	NaN
310.81230309999955	0.4995	sub-23	1	localizer	stimulus	Gesicht	NaN	180	2.3852706000007515	0.5389046999998754	True	NaN	NaN	NaN	NaN	NaN	NaN	NaN
311.29523189999964	2.3853	sub-23	1	localizer	blank	interval	NaN	NaN	NaN	NaN	NaN	NaN	NaN	NaN	NaN	NaN	NaN	NaN
313.9816242999996	0.4996	sub-23	1	localizer	stimulus	Haus	NaN	0	3.635927499999525	NaN	True	NaN	NaN	NaN	NaN	NaN	NaN	NaN
314.4646319000003	3.6359	sub-23	1	localizer	blank	interval	NaN	NaN	NaN	NaN	NaN	NaN	NaN	NaN	NaN	NaN	NaN	NaN
318.40174449999995	0.4995	sub-23	1	localizer	stimulus	Haus	NaN	0	2.6854991000000155	NaN	True	NaN	NaN	NaN	NaN	NaN	NaN	NaN
318.8847033000002	2.6855	sub-23	1	localizer	blank	interval	NaN	NaN	NaN	NaN	NaN	NaN	NaN	NaN	NaN	NaN	NaN	NaN
325.05649939999967	1.0009	sub-23	1	sequence	cue	Stuhl	NaN	NaN	NaN	NaN	NaN	NaN	NaN	NaN	NaN	NaN	NaN	NaN
326.05738550000024	2.0013	sub-23	1	sequence	blank	blank	NaN	NaN	NaN	NaN	NaN	NaN	NaN	NaN	NaN	NaN	NaN	NaN
328.0586717999995	0.3003	sub-23	1	sequence	fixation	dot	NaN	NaN	NaN	NaN	NaN	NaN	NaN	NaN	NaN	NaN	NaN	NaN
328.37645189999967	0.0992	sub-23	1	sequence	stimulus	Gesicht	NaN	NaN	32.0	NaN	NaN	1.0	1.0	NaN	NaN	NaN	NaN	NaN
328.4756336999999	0.0335	sub-23	1	sequence	interval	dot	NaN	NaN	NaN	NaN	NaN	NaN	NaN	NaN	NaN	NaN	NaN	NaN
328.5091217999998	0.1	sub-23	1	sequence	stimulus	Katze	NaN	NaN	32.0	NaN	NaN	3.0	2.0	NaN	NaN	NaN	NaN	NaN
328.6090857999998	0.0335	sub-23	1	sequence	interval	dot	NaN	NaN	NaN	NaN	NaN	NaN	NaN	NaN	NaN	NaN	NaN	NaN
328.6425916999997	0.0999	sub-23	1	sequence	stimulus	Haus	NaN	NaN	32.0	NaN	NaN	2.0	3.0	NaN	NaN	NaN	NaN	NaN
328.7425403999996	0.0335	sub-23	1	sequence	interval	dot	NaN	NaN	NaN	NaN	NaN	NaN	NaN	NaN	NaN	NaN	NaN	NaN
328.77599420000024	0.1	sub-23	1	sequence	stimulus	Stuhl	NaN	NaN	32.0	NaN	NaN	5.0	4.0	NaN	NaN	NaN	NaN	NaN
328.87596570000005	0.0335	sub-23	1	sequence	interval	dot	NaN	NaN	NaN	NaN	NaN	NaN	NaN	NaN	NaN	NaN	NaN	NaN
328.9094535000004	0.1	sub-23	1	sequence	stimulus	Schuh	NaN	NaN	32.0	NaN	NaN	4.0	5.0	NaN	NaN	NaN	NaN	NaN
329.0094356999998	0.0333	sub-23	1	sequence	interval	dot	NaN	NaN	NaN	NaN	NaN	NaN	NaN	NaN	NaN	NaN	NaN	NaN
329.0427786	8.5388	sub-23	1	sequence	delay	dot	NaN	NaN	NaN	NaN	NaN	NaN	NaN	NaN	NaN	NaN	NaN	NaN
337.5652914000002	0.9187	sub-23	1	sequence	choice	choice	left	NaN	NaN	0.8896371000000727	True	NaN	NaN	left	True	4.0	2.0	4.0
338.4843383999996	0.4999	sub-23	1	sequence	feedback	NaN	NaN	NaN	NaN	NaN	NaN	NaN	NaN	NaN	NaN	NaN	NaN	NaN
338.9845177999996	1.0006	sub-23	1	sequence	cue	Schuh	NaN	NaN	NaN	NaN	NaN	NaN	NaN	NaN	NaN	NaN	NaN	NaN
339.9851128999999	2.0015	sub-23	1	sequence	blank	blank	NaN	NaN	NaN	NaN	NaN	NaN	NaN	NaN	NaN	NaN	NaN	NaN
341.98657040000035	0.3003	sub-23	1	sequence	fixation	dot	NaN	NaN	NaN	NaN	NaN	NaN	NaN	NaN	NaN	NaN	NaN	NaN
342.30520780000006	0.115	sub-23	1	sequence	stimulus	Gesicht	NaN	NaN	128.0	NaN	NaN	1.0	1.0	NaN	NaN	NaN	NaN	NaN
342.42023020000033	0.1336	sub-23	1	sequence	interval	dot	NaN	NaN	NaN	NaN	NaN	NaN	NaN	NaN	NaN	NaN	NaN	NaN
342.5537862000001	0.1	sub-23	1	sequence	stimulus	Katze	NaN	NaN	128.0	NaN	NaN	3.0	2.0	NaN	NaN	NaN	NaN	NaN
342.6537658999996	0.1335	sub-23	1	sequence	interval	dot	NaN	NaN	NaN	NaN	NaN	NaN	NaN	NaN	NaN	NaN	NaN	NaN
342.7873120000004	0.1	sub-23	1	sequence	stimulus	Schuh	NaN	NaN	128.0	NaN	NaN	4.0	3.0	NaN	NaN	NaN	NaN	NaN
342.8873034999997	0.1336	sub-23	1	sequence	interval	dot	NaN	NaN	NaN	NaN	NaN	NaN	NaN	NaN	NaN	NaN	NaN	NaN
343.0208566000001	0.1	sub-23	1	sequence	stimulus	Haus	NaN	NaN	128.0	NaN	NaN	2.0	4.0	NaN	NaN	NaN	NaN	NaN
343.1208853999997	0.1334	sub-23	1	sequence	interval	dot	NaN	NaN	NaN	NaN	NaN	NaN	NaN	NaN	NaN	NaN	NaN	NaN
343.2543254000002	0.1	sub-23	1	sequence	stimulus	Stuhl	NaN	NaN	128.0	NaN	NaN	5.0	5.0	NaN	NaN	NaN	NaN	NaN
343.3543100999996	0.1335	sub-23	1	sequence	interval	dot	NaN	NaN	NaN	NaN	NaN	NaN	NaN	NaN	NaN	NaN	NaN	NaN
343.4877698	8.0547	sub-23	1	sequence	delay	dot	NaN	NaN	NaN	NaN	NaN	NaN	NaN	NaN	NaN	NaN	NaN	NaN
351.5269374999998	0.7682	sub-23	1	sequence	choice	choice	right	NaN	NaN	0.7369122999998581	True	NaN	NaN	right	True	4.0	3.0	3.0
352.2954300000001	0.5	sub-23	1	sequence	feedback	NaN	NaN	NaN	NaN	NaN	NaN	NaN	NaN	NaN	NaN	NaN	NaN	NaN
352.79564370000026	1.0006	sub-23	1	sequence	cue	Gesicht	NaN	NaN	NaN	NaN	NaN	NaN	NaN	NaN	NaN	NaN	NaN	NaN
353.7962373999999	2.0017	sub-23	1	sequence	blank	blank	NaN	NaN	NaN	NaN	NaN	NaN	NaN	NaN	NaN	NaN	NaN	NaN
355.79798589999973	0.3001	sub-23	1	sequence	fixation	dot	NaN	NaN	NaN	NaN	NaN	NaN	NaN	NaN	NaN	NaN	NaN	NaN
356.11633299999994	0.1152	sub-23	1	sequence	stimulus	Stuhl	NaN	NaN	64.0	NaN	NaN	5.0	1.0	NaN	NaN	NaN	NaN	NaN
356.2315073999998	0.067	sub-23	1	sequence	interval	dot	NaN	NaN	NaN	NaN	NaN	NaN	NaN	NaN	NaN	NaN	NaN	NaN
356.2984905000003	0.0998	sub-23	1	sequence	stimulus	Katze	NaN	NaN	64.0	NaN	NaN	3.0	2.0	NaN	NaN	NaN	NaN	NaN
356.3983188000002	0.067	sub-23	1	sequence	interval	dot	NaN	NaN	NaN	NaN	NaN	NaN	NaN	NaN	NaN	NaN	NaN	NaN
356.4653214	0.0999	sub-23	1	sequence	stimulus	Haus	NaN	NaN	64.0	NaN	NaN	2.0	3.0	NaN	NaN	NaN	NaN	NaN
356.56523000000016	0.0667	sub-23	1	sequence	interval	dot	NaN	NaN	NaN	NaN	NaN	NaN	NaN	NaN	NaN	NaN	NaN	NaN
356.63195910000013	0.1001	sub-23	1	sequence	stimulus	Gesicht	NaN	NaN	64.0	NaN	NaN	1.0	4.0	NaN	NaN	NaN	NaN	NaN
356.7320268000003	0.0668	sub-23	1	sequence	interval	dot	NaN	NaN	NaN	NaN	NaN	NaN	NaN	NaN	NaN	NaN	NaN	NaN
356.7988667999998	0.0998	sub-23	1	sequence	stimulus	Schuh	NaN	NaN	64.0	NaN	NaN	4.0	5.0	NaN	NaN	NaN	NaN	NaN
356.8987102000001	0.0668	sub-23	1	sequence	interval	dot	NaN	NaN	NaN	NaN	NaN	NaN	NaN	NaN	NaN	NaN	NaN	NaN
356.96552059999976	8.3882	sub-23	1	sequence	delay	dot	NaN	NaN	NaN	NaN	NaN	NaN	NaN	NaN	NaN	NaN	NaN	NaN
365.3325932999997	0.8237	sub-23	1	sequence	choice	choice	right	NaN	NaN	0.7976446000002397	True	NaN	NaN	right	True	5.0	4.0	4.0
366.1565823000001	0.4999	sub-23	1	sequence	feedback	NaN	NaN	NaN	NaN	NaN	NaN	NaN	NaN	NaN	NaN	NaN	NaN	NaN
366.6566573999999	1.0007	sub-23	1	sequence	cue	Haus	NaN	NaN	NaN	NaN	NaN	NaN	NaN	NaN	NaN	NaN	NaN	NaN
367.6573437999996	2.0016	sub-23	1	sequence	blank	blank	NaN	NaN	NaN	NaN	NaN	NaN	NaN	NaN	NaN	NaN	NaN	NaN
369.65896259999954	0.3002	sub-23	1	sequence	fixation	dot	NaN	NaN	NaN	NaN	NaN	NaN	NaN	NaN	NaN	NaN	NaN	NaN
369.97696449999967	0.0991	sub-23	1	sequence	stimulus	Gesicht	NaN	NaN	32.0	NaN	NaN	1.0	1.0	NaN	NaN	NaN	NaN	NaN
370.0760269000002	0.0334	sub-23	1	sequence	interval	dot	NaN	NaN	NaN	NaN	NaN	NaN	NaN	NaN	NaN	NaN	NaN	NaN
370.1094675000004	0.1	sub-23	1	sequence	stimulus	Haus	NaN	NaN	32.0	NaN	NaN	2.0	2.0	NaN	NaN	NaN	NaN	NaN
370.2094389000004	0.0334	sub-23	1	sequence	interval	dot	NaN	NaN	NaN	NaN	NaN	NaN	NaN	NaN	NaN	NaN	NaN	NaN
370.2428151000004	0.1	sub-23	1	sequence	stimulus	Schuh	NaN	NaN	32.0	NaN	NaN	4.0	3.0	NaN	NaN	NaN	NaN	NaN
370.34283609999966	0.0334	sub-23	1	sequence	interval	dot	NaN	NaN	NaN	NaN	NaN	NaN	NaN	NaN	NaN	NaN	NaN	NaN
370.3762446999999	0.1	sub-23	1	sequence	stimulus	Stuhl	NaN	NaN	32.0	NaN	NaN	5.0	4.0	NaN	NaN	NaN	NaN	NaN
370.4762674000003	0.0334	sub-23	1	sequence	interval	dot	NaN	NaN	NaN	NaN	NaN	NaN	NaN	NaN	NaN	NaN	NaN	NaN
370.5096749000004	0.1001	sub-23	1	sequence	stimulus	Katze	NaN	NaN	32.0	NaN	NaN	3.0	5.0	NaN	NaN	NaN	NaN	NaN
370.6097799999998	0.0333	sub-23	1	sequence	interval	dot	NaN	NaN	NaN	NaN	NaN	NaN	NaN	NaN	NaN	NaN	NaN	NaN
370.64312830000017	8.5385	sub-23	1	sequence	delay	dot	NaN	NaN	NaN	NaN	NaN	NaN	NaN	NaN	NaN	NaN	NaN	NaN
379.1642554999999	0.8367	sub-23	1	sequence	choice	choice	left	NaN	NaN	0.8177491999995254	True	NaN	NaN	left	True	2.0	4.0	2.0
380.0012244	0.4998	sub-23	1	sequence	feedback	NaN	NaN	NaN	NaN	NaN	NaN	NaN	NaN	NaN	NaN	NaN	NaN	NaN
380.5011763000002	1.0008	sub-23	1	sequence	cue	Katze	NaN	NaN	NaN	NaN	NaN	NaN	NaN	NaN	NaN	NaN	NaN	NaN
381.5019460000003	2.0016	sub-23	1	sequence	blank	blank	NaN	NaN	NaN	NaN	NaN	NaN	NaN	NaN	NaN	NaN	NaN	NaN
383.5035603999995	0.3001	sub-23	1	sequence	fixation	dot	NaN	NaN	NaN	NaN	NaN	NaN	NaN	NaN	NaN	NaN	NaN	NaN
383.8220334999996	0.1151	sub-23	1	sequence	stimulus	Schuh	NaN	NaN	512.0	NaN	NaN	4.0	1.0	NaN	NaN	NaN	NaN	NaN
383.9370931000003	0.5173	sub-23	1	sequence	interval	dot	NaN	NaN	NaN	NaN	NaN	NaN	NaN	NaN	NaN	NaN	NaN	NaN
384.4543787000002	0.0999	sub-23	1	sequence	stimulus	Haus	NaN	NaN	512.0	NaN	NaN	2.0	2.0	NaN	NaN	NaN	NaN	NaN
384.55426549999993	0.5173	sub-23	1	sequence	interval	dot	NaN	NaN	NaN	NaN	NaN	NaN	NaN	NaN	NaN	NaN	NaN	NaN
385.0715839000004	0.1	sub-23	1	sequence	stimulus	Katze	NaN	NaN	512.0	NaN	NaN	3.0	3.0	NaN	NaN	NaN	NaN	NaN
385.1715406000003	0.5172	sub-23	1	sequence	interval	dot	NaN	NaN	NaN	NaN	NaN	NaN	NaN	NaN	NaN	NaN	NaN	NaN
385.6887335000001	0.0999	sub-23	1	sequence	stimulus	Stuhl	NaN	NaN	512.0	NaN	NaN	5.0	4.0	NaN	NaN	NaN	NaN	NaN
385.7886324000001	0.5172	sub-23	1	sequence	interval	dot	NaN	NaN	NaN	NaN	NaN	NaN	NaN	NaN	NaN	NaN	NaN	NaN
386.30580589999954	0.0999	sub-23	1	sequence	stimulus	Gesicht	NaN	NaN	512.0	NaN	NaN	1.0	5.0	NaN	NaN	NaN	NaN	NaN
386.4057546000004	0.5171	sub-23	1	sequence	interval	dot	NaN	NaN	NaN	NaN	NaN	NaN	NaN	NaN	NaN	NaN	NaN	NaN
386.922834	6.1365	sub-23	1	sequence	delay	dot	NaN	NaN	NaN	NaN	NaN	NaN	NaN	NaN	NaN	NaN	NaN	NaN
393.0479765	1.081	sub-23	1	sequence	choice	choice	right	NaN	NaN	1.0679739999995943	True	NaN	NaN	right	True	4.0	3.0	3.0
394.1291960999997	0.4999	sub-23	1	sequence	feedback	NaN	NaN	NaN	NaN	NaN	NaN	NaN	NaN	NaN	NaN	NaN	NaN	NaN
394.6292575999996	1.0008	sub-23	1	sequence	cue	Haus	NaN	NaN	NaN	NaN	NaN	NaN	NaN	NaN	NaN	NaN	NaN	NaN
395.6300463999996	2.0015	sub-23	1	sequence	blank	blank	NaN	NaN	NaN	NaN	NaN	NaN	NaN	NaN	NaN	NaN	NaN	NaN
397.6315913999997	0.3004	sub-23	1	sequence	fixation	dot	NaN	NaN	NaN	NaN	NaN	NaN	NaN	NaN	NaN	NaN	NaN	NaN
397.9500853	0.1152	sub-23	1	sequence	stimulus	Gesicht	NaN	NaN	64.0	NaN	NaN	1.0	1.0	NaN	NaN	NaN	NaN	NaN
398.0652965999998	0.0668	sub-23	1	sequence	interval	dot	NaN	NaN	NaN	NaN	NaN	NaN	NaN	NaN	NaN	NaN	NaN	NaN
398.13212680000015	0.1	sub-23	1	sequence	stimulus	Katze	NaN	NaN	64.0	NaN	NaN	3.0	2.0	NaN	NaN	NaN	NaN	NaN
398.23213250000026	0.0668	sub-23	1	sequence	interval	dot	NaN	NaN	NaN	NaN	NaN	NaN	NaN	NaN	NaN	NaN	NaN	NaN
398.2989733000004	0.1	sub-23	1	sequence	stimulus	Schuh	NaN	NaN	64.0	NaN	NaN	4.0	3.0	NaN	NaN	NaN	NaN	NaN
398.3989322999996	0.0668	sub-23	1	sequence	interval	dot	NaN	NaN	NaN	NaN	NaN	NaN	NaN	NaN	NaN	NaN	NaN	NaN
398.46575349999966	0.1	sub-23	1	sequence	stimulus	Stuhl	NaN	NaN	64.0	NaN	NaN	5.0	4.0	NaN	NaN	NaN	NaN	NaN
398.5657186999997	0.0668	sub-23	1	sequence	interval	dot	NaN	NaN	NaN	NaN	NaN	NaN	NaN	NaN	NaN	NaN	NaN	NaN
398.6325448999996	0.1	sub-23	1	sequence	stimulus	Haus	NaN	NaN	64.0	NaN	NaN	2.0	5.0	NaN	NaN	NaN	NaN	NaN
398.7324987000002	0.0667	sub-23	1	sequence	interval	dot	NaN	NaN	NaN	NaN	NaN	NaN	NaN	NaN	NaN	NaN	NaN	NaN
398.7992195999996	8.3883	sub-23	1	sequence	delay	dot	NaN	NaN	NaN	NaN	NaN	NaN	NaN	NaN	NaN	NaN	NaN	NaN
407.1656094	0.7578	sub-23	1	sequence	choice	choice	left	NaN	NaN	0.7237234000003809	True	NaN	NaN	left	True	5.0	4.0	5.0
407.9236793	0.4999	sub-23	1	sequence	feedback	NaN	NaN	NaN	NaN	NaN	NaN	NaN	NaN	NaN	NaN	NaN	NaN	NaN
408.42370029999984	1.0008	sub-23	1	sequence	cue	Haus	NaN	NaN	NaN	NaN	NaN	NaN	NaN	NaN	NaN	NaN	NaN	NaN
409.4244725999997	2.0016	sub-23	1	sequence	blank	blank	NaN	NaN	NaN	NaN	NaN	NaN	NaN	NaN	NaN	NaN	NaN	NaN
411.4260932999996	0.3001	sub-23	1	sequence	fixation	dot	NaN	NaN	NaN	NaN	NaN	NaN	NaN	NaN	NaN	NaN	NaN	NaN
411.7437289	0.0992	sub-23	1	sequence	stimulus	Schuh	NaN	NaN	512.0	NaN	NaN	4.0	1.0	NaN	NaN	NaN	NaN	NaN
411.8429724999996	0.5172	sub-23	1	sequence	interval	dot	NaN	NaN	NaN	NaN	NaN	NaN	NaN	NaN	NaN	NaN	NaN	NaN
412.3601540999998	0.1	sub-23	1	sequence	stimulus	Haus	NaN	NaN	512.0	NaN	NaN	2.0	2.0	NaN	NaN	NaN	NaN	NaN
412.4601524	0.5172	sub-23	1	sequence	interval	dot	NaN	NaN	NaN	NaN	NaN	NaN	NaN	NaN	NaN	NaN	NaN	NaN
412.9773685	0.0999	sub-23	1	sequence	stimulus	Katze	NaN	NaN	512.0	NaN	NaN	3.0	3.0	NaN	NaN	NaN	NaN	NaN
413.0772840999998	0.5172	sub-23	1	sequence	interval	dot	NaN	NaN	NaN	NaN	NaN	NaN	NaN	NaN	NaN	NaN	NaN	NaN
413.5944937000004	0.1	sub-23	1	sequence	stimulus	Gesicht	NaN	NaN	512.0	NaN	NaN	1.0	4.0	NaN	NaN	NaN	NaN	NaN
413.6944893	0.5172	sub-23	1	sequence	interval	dot	NaN	NaN	NaN	NaN	NaN	NaN	NaN	NaN	NaN	NaN	NaN	NaN
414.2116538	0.1001	sub-23	1	sequence	stimulus	Stuhl	NaN	NaN	512.0	NaN	NaN	5.0	5.0	NaN	NaN	NaN	NaN	NaN
414.31170589999965	0.517	sub-23	1	sequence	interval	dot	NaN	NaN	NaN	NaN	NaN	NaN	NaN	NaN	NaN	NaN	NaN	NaN
414.8287139000004	6.1368	sub-23	1	sequence	delay	dot	NaN	NaN	NaN	NaN	NaN	NaN	NaN	NaN	NaN	NaN	NaN	NaN
420.9452953	0.8061	sub-23	1	sequence	choice	choice	left	NaN	NaN	0.769612799999777	True	NaN	NaN	left	True	2.0	4.0	2.0
421.7516477999998	0.4999	sub-23	1	sequence	feedback	NaN	NaN	NaN	NaN	NaN	NaN	NaN	NaN	NaN	NaN	NaN	NaN	NaN
422.251757	1.0005	sub-23	1	sequence	cue	Schuh	NaN	NaN	NaN	NaN	NaN	NaN	NaN	NaN	NaN	NaN	NaN	NaN
423.2522863000004	2.0015	sub-23	1	sequence	blank	blank	NaN	NaN	NaN	NaN	NaN	NaN	NaN	NaN	NaN	NaN	NaN	NaN
425.2538088000001	0.3004	sub-23	1	sequence	fixation	dot	NaN	NaN	NaN	NaN	NaN	NaN	NaN	NaN	NaN	NaN	NaN	NaN
425.5724345999997	0.115	sub-23	1	sequence	stimulus	Gesicht	NaN	NaN	128.0	NaN	NaN	1.0	1.0	NaN	NaN	NaN	NaN	NaN
425.6874762999996	0.1335	sub-23	1	sequence	interval	dot	NaN	NaN	NaN	NaN	NaN	NaN	NaN	NaN	NaN	NaN	NaN	NaN
425.8210183000001	0.1	sub-23	1	sequence	stimulus	Katze	NaN	NaN	128.0	NaN	NaN	3.0	2.0	NaN	NaN	NaN	NaN	NaN
425.9209821000004	0.1336	sub-23	1	sequence	interval	dot	NaN	NaN	NaN	NaN	NaN	NaN	NaN	NaN	NaN	NaN	NaN	NaN
426.0545548	0.1	sub-23	1	sequence	stimulus	Stuhl	NaN	NaN	128.0	NaN	NaN	5.0	3.0	NaN	NaN	NaN	NaN	NaN
426.1545052000001	0.1336	sub-23	1	sequence	interval	dot	NaN	NaN	NaN	NaN	NaN	NaN	NaN	NaN	NaN	NaN	NaN	NaN
426.2880723999997	0.1	sub-23	1	sequence	stimulus	Schuh	NaN	NaN	128.0	NaN	NaN	4.0	4.0	NaN	NaN	NaN	NaN	NaN
426.38803199999984	0.1336	sub-23	1	sequence	interval	dot	NaN	NaN	NaN	NaN	NaN	NaN	NaN	NaN	NaN	NaN	NaN	NaN
426.52163500000006	0.0999	sub-23	1	sequence	stimulus	Haus	NaN	NaN	128.0	NaN	NaN	2.0	5.0	NaN	NaN	NaN	NaN	NaN
426.62155770000027	0.1334	sub-23	1	sequence	interval	dot	NaN	NaN	NaN	NaN	NaN	NaN	NaN	NaN	NaN	NaN	NaN	NaN
426.7549841999999	8.0714	sub-23	1	sequence	delay	dot	NaN	NaN	NaN	NaN	NaN	NaN	NaN	NaN	NaN	NaN	NaN	NaN
434.8030004000002	0.8595	sub-23	1	sequence	choice	choice	right	NaN	NaN	0.8207519999996293	True	NaN	NaN	right	True	5.0	4.0	4.0
435.6627280000002	0.5	sub-23	1	sequence	feedback	NaN	NaN	NaN	NaN	NaN	NaN	NaN	NaN	NaN	NaN	NaN	NaN	NaN
436.1632005000001	44.669	sub-23	1	other	break	break	NaN	NaN	NaN	NaN	NaN	NaN	NaN	NaN	NaN	NaN	NaN	NaN
484.6695449999997	0.4993	sub-23	1	localizer	stimulus	Stuhl	NaN	0	2.2683547000006	NaN	True	NaN	NaN	NaN	NaN	NaN	NaN	NaN
485.1522895999997	2.2684	sub-23	1	localizer	blank	interval	NaN	NaN	NaN	NaN	NaN	NaN	NaN	NaN	NaN	NaN	NaN	NaN
487.7218111000002	0.4994	sub-23	1	localizer	stimulus	Stuhl	NaN	0	2.752226800000244	NaN	True	NaN	NaN	NaN	NaN	NaN	NaN	NaN
488.20472319999953	2.7522	sub-23	1	localizer	blank	interval	NaN	NaN	NaN	NaN	NaN	NaN	NaN	NaN	NaN	NaN	NaN	NaN
491.2580048	0.4995	sub-23	1	localizer	stimulus	Haus	NaN	0	1.901495399999476	NaN	True	NaN	NaN	NaN	NaN	NaN	NaN	NaN
491.7409286000002	1.9015	sub-23	1	localizer	blank	interval	NaN	NaN	NaN	NaN	NaN	NaN	NaN	NaN	NaN	NaN	NaN	NaN
493.9435002	0.4995	sub-23	1	localizer	stimulus	Schuh	NaN	0	2.9690065000003756	NaN	True	NaN	NaN	NaN	NaN	NaN	NaN	NaN
494.4264237999996	2.969	sub-23	1	localizer	blank	interval	NaN	NaN	NaN	NaN	NaN	NaN	NaN	NaN	NaN	NaN	NaN	NaN
497.6965246999998	0.4995	sub-23	1	localizer	stimulus	Stuhl	NaN	0	2.134934600000747	NaN	True	NaN	NaN	NaN	NaN	NaN	NaN	NaN
498.1794400999997	2.1349	sub-23	1	localizer	blank	interval	NaN	NaN	NaN	NaN	NaN	NaN	NaN	NaN	NaN	NaN	NaN	NaN
500.6157073000004	0.4993	sub-23	1	localizer	stimulus	Schuh	NaN	0	2.68554899999981	NaN	True	NaN	NaN	NaN	NaN	NaN	NaN	NaN
501.0984797000001	2.6855	sub-23	1	localizer	blank	interval	NaN	NaN	NaN	NaN	NaN	NaN	NaN	NaN	NaN	NaN	NaN	NaN
504.08510060000026	0.4995	sub-23	1	localizer	stimulus	Schuh	NaN	180	2.718580099999599	0.5779686000005313	True	NaN	NaN	NaN	NaN	NaN	NaN	NaN
504.56812340000033	2.7186	sub-23	1	localizer	blank	interval	NaN	NaN	NaN	NaN	NaN	NaN	NaN	NaN	NaN	NaN	NaN	NaN
507.58786989999953	0.4995	sub-23	1	localizer	stimulus	Gesicht	NaN	0	3.235873900000115	NaN	True	NaN	NaN	NaN	NaN	NaN	NaN	NaN
508.0707973999997	3.2359	sub-23	1	localizer	blank	interval	NaN	NaN	NaN	NaN	NaN	NaN	NaN	NaN	NaN	NaN	NaN	NaN
511.6077687999996	0.4994	sub-23	1	localizer	stimulus	Schuh	NaN	0	2.7020689000000857	NaN	True	NaN	NaN	NaN	NaN	NaN	NaN	NaN
512.0906930000001	2.7021	sub-23	1	localizer	blank	interval	NaN	NaN	NaN	NaN	NaN	NaN	NaN	NaN	NaN	NaN	NaN	NaN
515.0939078000001	0.4995	sub-23	1	localizer	stimulus	Katze	NaN	180	3.2857215000003634	0.5609901999996509	True	NaN	NaN	NaN	NaN	NaN	NaN	NaN
515.5769467	3.2857	sub-23	1	localizer	blank	interval	NaN	NaN	NaN	NaN	NaN	NaN	NaN	NaN	NaN	NaN	NaN	NaN
519.1638620000003	0.4995	sub-23	1	localizer	stimulus	Katze	NaN	0	2.485103299999537	NaN	True	NaN	NaN	NaN	NaN	NaN	NaN	NaN
519.6468642	2.4851	sub-23	1	localizer	blank	interval	NaN	NaN	NaN	NaN	NaN	NaN	NaN	NaN	NaN	NaN	NaN	NaN
522.4333673000001	0.4994	sub-23	1	localizer	stimulus	Haus	NaN	0	3.052502999999888	NaN	True	NaN	NaN	NaN	NaN	NaN	NaN	NaN
522.9161499000002	3.0525	sub-23	1	localizer	blank	interval	NaN	NaN	NaN	NaN	NaN	NaN	NaN	NaN	NaN	NaN	NaN	NaN
526.2697748999999	0.4996	sub-23	1	localizer	stimulus	Stuhl	NaN	0	2.6517244999995455	NaN	True	NaN	NaN	NaN	NaN	NaN	NaN	NaN
526.7528043000002	2.6517	sub-23	1	localizer	blank	interval	NaN	NaN	NaN	NaN	NaN	NaN	NaN	NaN	NaN	NaN	NaN	NaN
529.7056673999996	0.4995	sub-23	1	localizer	stimulus	Gesicht	NaN	180	1.9846823000007134	0.5813272999994297	True	NaN	NaN	NaN	NaN	NaN	NaN	NaN
530.1887374999997	1.9847	sub-23	1	localizer	blank	interval	NaN	NaN	NaN	NaN	NaN	NaN	NaN	NaN	NaN	NaN	NaN	NaN
532.4745665	0.4996	sub-23	1	localizer	stimulus	Gesicht	NaN	0	2.6852240999996866	NaN	True	NaN	NaN	NaN	NaN	NaN	NaN	NaN
532.9576587000001	2.6852	sub-23	1	localizer	blank	interval	NaN	NaN	NaN	NaN	NaN	NaN	NaN	NaN	NaN	NaN	NaN	NaN
535.9440532999997	0.4996	sub-23	1	localizer	stimulus	Stuhl	NaN	180	2.4184863999998925	0.4308170000003883	True	NaN	NaN	NaN	NaN	NaN	NaN	NaN
536.4269782000001	2.4185	sub-23	1	localizer	blank	interval	NaN	NaN	NaN	NaN	NaN	NaN	NaN	NaN	NaN	NaN	NaN	NaN
539.1466700000001	0.4995	sub-23	1	localizer	stimulus	Katze	NaN	0	2.8688927000002877	NaN	True	NaN	NaN	NaN	NaN	NaN	NaN	NaN
539.6295614999999	2.8689	sub-23	1	localizer	blank	interval	NaN	NaN	NaN	NaN	NaN	NaN	NaN	NaN	NaN	NaN	NaN	NaN
542.7998914	0.4993	sub-23	1	localizer	stimulus	Schuh	NaN	0	1.8348631000008027	NaN	True	NaN	NaN	NaN	NaN	NaN	NaN	NaN
543.2825305999995	1.8349	sub-23	1	localizer	blank	interval	NaN	NaN	NaN	NaN	NaN	NaN	NaN	NaN	NaN	NaN	NaN	NaN
545.4184391999997	0.4997	sub-23	1	localizer	stimulus	Haus	NaN	0	1.8681039000002784	NaN	True	NaN	NaN	NaN	NaN	NaN	NaN	NaN
545.9180964999996	1.8681	sub-23	1	localizer	blank	interval	NaN	NaN	NaN	NaN	NaN	NaN	NaN	NaN	NaN	NaN	NaN	NaN
548.0873147000002	0.4994	sub-23	1	localizer	stimulus	Gesicht	NaN	0	2.40192610000031	NaN	True	NaN	NaN	NaN	NaN	NaN	NaN	NaN
548.5701546	2.4019	sub-23	1	localizer	blank	interval	NaN	NaN	NaN	NaN	NaN	NaN	NaN	NaN	NaN	NaN	NaN	NaN
551.2731173000002	0.4995	sub-23	1	localizer	stimulus	Katze	NaN	0	2.418655100000251	NaN	True	NaN	NaN	NaN	NaN	NaN	NaN	NaN
551.7560483999996	2.4187	sub-23	1	localizer	blank	interval	NaN	NaN	NaN	NaN	NaN	NaN	NaN	NaN	NaN	NaN	NaN	NaN
554.4756813000004	0.4995	sub-23	1	localizer	stimulus	Gesicht	NaN	0	2.301820599999701	NaN	True	NaN	NaN	NaN	NaN	NaN	NaN	NaN
554.9586151000003	2.3018	sub-23	1	localizer	blank	interval	NaN	NaN	NaN	NaN	NaN	NaN	NaN	NaN	NaN	NaN	NaN	NaN
557.5615227999997	0.4996	sub-23	1	localizer	stimulus	Haus	NaN	0	1.567599599999994	NaN	True	NaN	NaN	NaN	NaN	NaN	NaN	NaN
558.0446810000003	1.5676	sub-23	1	localizer	blank	interval	NaN	NaN	NaN	NaN	NaN	NaN	NaN	NaN	NaN	NaN	NaN	NaN
559.9134242	0.4996	sub-23	1	localizer	stimulus	Haus	NaN	180	2.8187778000001344	0.5815941000000748	True	NaN	NaN	NaN	NaN	NaN	NaN	NaN
560.3963813999999	2.8188	sub-23	1	localizer	blank	interval	NaN	NaN	NaN	NaN	NaN	NaN	NaN	NaN	NaN	NaN	NaN	NaN
563.5164923000002	0.4994	sub-23	1	localizer	stimulus	Katze	NaN	0	3.2526033000003736	NaN	True	NaN	NaN	NaN	NaN	NaN	NaN	NaN
563.9993808999998	3.2526	sub-23	1	localizer	blank	interval	NaN	NaN	NaN	NaN	NaN	NaN	NaN	NaN	NaN	NaN	NaN	NaN
570.7383227	1.0004	sub-23	1	sequence	cue	Gesicht	NaN	NaN	NaN	NaN	NaN	NaN	NaN	NaN	NaN	NaN	NaN	NaN
571.7387681999999	2.0016	sub-23	1	sequence	blank	blank	NaN	NaN	NaN	NaN	NaN	NaN	NaN	NaN	NaN	NaN	NaN	NaN
573.7403843000002	0.3002	sub-23	1	sequence	fixation	dot	NaN	NaN	NaN	NaN	NaN	NaN	NaN	NaN	NaN	NaN	NaN	NaN
574.0582789	0.0991	sub-23	1	sequence	stimulus	Stuhl	NaN	NaN	64.0	NaN	NaN	5.0	1.0	NaN	NaN	NaN	NaN	NaN
574.1573486999996	0.0669	sub-23	1	sequence	interval	dot	NaN	NaN	NaN	NaN	NaN	NaN	NaN	NaN	NaN	NaN	NaN	NaN
574.2242102999999	0.1	sub-23	1	sequence	stimulus	Katze	NaN	NaN	64.0	NaN	NaN	3.0	2.0	NaN	NaN	NaN	NaN	NaN
574.3241949000003	0.0668	sub-23	1	sequence	interval	dot	NaN	NaN	NaN	NaN	NaN	NaN	NaN	NaN	NaN	NaN	NaN	NaN
574.3910140999997	0.0999	sub-23	1	sequence	stimulus	Haus	NaN	NaN	64.0	NaN	NaN	2.0	3.0	NaN	NaN	NaN	NaN	NaN
574.4909532000001	0.0668	sub-23	1	sequence	interval	dot	NaN	NaN	NaN	NaN	NaN	NaN	NaN	NaN	NaN	NaN	NaN	NaN
574.5577943999997	0.1	sub-23	1	sequence	stimulus	Gesicht	NaN	NaN	64.0	NaN	NaN	1.0	4.0	NaN	NaN	NaN	NaN	NaN
574.6577803	0.0668	sub-23	1	sequence	interval	dot	NaN	NaN	NaN	NaN	NaN	NaN	NaN	NaN	NaN	NaN	NaN	NaN
574.7245907999995	0.1	sub-23	1	sequence	stimulus	Schuh	NaN	NaN	64.0	NaN	NaN	4.0	5.0	NaN	NaN	NaN	NaN	NaN
574.8246014999995	0.0667	sub-23	1	sequence	interval	dot	NaN	NaN	NaN	NaN	NaN	NaN	NaN	NaN	NaN	NaN	NaN	NaN
574.8912977999998	8.3883	sub-23	1	sequence	delay	dot	NaN	NaN	NaN	NaN	NaN	NaN	NaN	NaN	NaN	NaN	NaN	NaN
583.2595180999997	0.8227	sub-23	1	sequence	choice	choice	left	NaN	NaN	0.7995246999998926	True	NaN	NaN	left	True	4.0	3.0	4.0
584.0826021000003	0.5	sub-23	1	sequence	feedback	NaN	NaN	NaN	NaN	NaN	NaN	NaN	NaN	NaN	NaN	NaN	NaN	NaN
584.5828500999996	1.0006	sub-23	1	sequence	cue	Schuh	NaN	NaN	NaN	NaN	NaN	NaN	NaN	NaN	NaN	NaN	NaN	NaN
585.5834363000004	2.0016	sub-23	1	sequence	blank	blank	NaN	NaN	NaN	NaN	NaN	NaN	NaN	NaN	NaN	NaN	NaN	NaN
587.5850400999998	0.3002	sub-23	1	sequence	fixation	dot	NaN	NaN	NaN	NaN	NaN	NaN	NaN	NaN	NaN	NaN	NaN	NaN
587.9044486000003	0.1142	sub-23	1	sequence	stimulus	Gesicht	NaN	NaN	128.0	NaN	NaN	1.0	1.0	NaN	NaN	NaN	NaN	NaN
588.0186410999995	0.1336	sub-23	1	sequence	interval	dot	NaN	NaN	NaN	NaN	NaN	NaN	NaN	NaN	NaN	NaN	NaN	NaN
588.1522377000001	0.1	sub-23	1	sequence	stimulus	Katze	NaN	NaN	128.0	NaN	NaN	3.0	2.0	NaN	NaN	NaN	NaN	NaN
588.2522511999996	0.1336	sub-23	1	sequence	interval	dot	NaN	NaN	NaN	NaN	NaN	NaN	NaN	NaN	NaN	NaN	NaN	NaN
588.3858260999996	0.0999	sub-23	1	sequence	stimulus	Stuhl	NaN	NaN	128.0	NaN	NaN	5.0	3.0	NaN	NaN	NaN	NaN	NaN
588.4857613000004	0.1336	sub-23	1	sequence	interval	dot	NaN	NaN	NaN	NaN	NaN	NaN	NaN	NaN	NaN	NaN	NaN	NaN
588.6193317999996	0.1	sub-23	1	sequence	stimulus	Schuh	NaN	NaN	128.0	NaN	NaN	4.0	4.0	NaN	NaN	NaN	NaN	NaN
588.7192963999996	0.1336	sub-23	1	sequence	interval	dot	NaN	NaN	NaN	NaN	NaN	NaN	NaN	NaN	NaN	NaN	NaN	NaN
588.8529011999999	0.1	sub-23	1	sequence	stimulus	Haus	NaN	NaN	128.0	NaN	NaN	2.0	5.0	NaN	NaN	NaN	NaN	NaN
588.9528726999997	0.1334	sub-23	1	sequence	interval	dot	NaN	NaN	NaN	NaN	NaN	NaN	NaN	NaN	NaN	NaN	NaN	NaN
589.0862670999995	8.0712	sub-23	1	sequence	delay	dot	NaN	NaN	NaN	NaN	NaN	NaN	NaN	NaN	NaN	NaN	NaN	NaN
597.1431855000001	0.8503	sub-23	1	sequence	choice	choice	right	NaN	NaN	0.8253080000004047	True	NaN	NaN	right	True	5.0	4.0	4.0
597.9937860999999	0.4999	sub-23	1	sequence	feedback	NaN	NaN	NaN	NaN	NaN	NaN	NaN	NaN	NaN	NaN	NaN	NaN	NaN
598.4938605999996	1.0007	sub-23	1	sequence	cue	Haus	NaN	NaN	NaN	NaN	NaN	NaN	NaN	NaN	NaN	NaN	NaN	NaN
599.4945189999999	2.0016	sub-23	1	sequence	blank	blank	NaN	NaN	NaN	NaN	NaN	NaN	NaN	NaN	NaN	NaN	NaN	NaN
601.4961254999998	0.3002	sub-23	1	sequence	fixation	dot	NaN	NaN	NaN	NaN	NaN	NaN	NaN	NaN	NaN	NaN	NaN	NaN
601.8139014999997	0.0992	sub-23	1	sequence	stimulus	Gesicht	NaN	NaN	64.0	NaN	NaN	1.0	1.0	NaN	NaN	NaN	NaN	NaN
601.9131203999996	0.0668	sub-23	1	sequence	interval	dot	NaN	NaN	NaN	NaN	NaN	NaN	NaN	NaN	NaN	NaN	NaN	NaN
601.9799400000002	0.1	sub-23	1	sequence	stimulus	Katze	NaN	NaN	64.0	NaN	NaN	3.0	2.0	NaN	NaN	NaN	NaN	NaN
602.0799193000003	0.0668	sub-23	1	sequence	interval	dot	NaN	NaN	NaN	NaN	NaN	NaN	NaN	NaN	NaN	NaN	NaN	NaN
602.1467492000002	0.0999	sub-23	1	sequence	stimulus	Schuh	NaN	NaN	64.0	NaN	NaN	4.0	3.0	NaN	NaN	NaN	NaN	NaN
602.2466925999997	0.0668	sub-23	1	sequence	interval	dot	NaN	NaN	NaN	NaN	NaN	NaN	NaN	NaN	NaN	NaN	NaN	NaN
602.3135369000001	0.1	sub-23	1	sequence	stimulus	Stuhl	NaN	NaN	64.0	NaN	NaN	5.0	4.0	NaN	NaN	NaN	NaN	NaN
602.4135189999997	0.0669	sub-23	1	sequence	interval	dot	NaN	NaN	NaN	NaN	NaN	NaN	NaN	NaN	NaN	NaN	NaN	NaN
602.4803823000002	0.0999	sub-23	1	sequence	stimulus	Haus	NaN	NaN	64.0	NaN	NaN	2.0	5.0	NaN	NaN	NaN	NaN	NaN
602.5803017999997	0.0667	sub-23	1	sequence	interval	dot	NaN	NaN	NaN	NaN	NaN	NaN	NaN	NaN	NaN	NaN	NaN	NaN
602.6470294000001	8.3717	sub-23	1	sequence	delay	dot	NaN	NaN	NaN	NaN	NaN	NaN	NaN	NaN	NaN	NaN	NaN	NaN
611.0008729000001	0.7872	sub-23	1	sequence	choice	choice	right	NaN	NaN	0.7561475000002247	True	NaN	NaN	right	True	3.0	5.0	5.0
611.7883246000001	0.4999	sub-23	1	sequence	feedback	NaN	NaN	NaN	NaN	NaN	NaN	NaN	NaN	NaN	NaN	NaN	NaN	NaN
612.2883363000001	1.0006	sub-23	1	sequence	cue	Gesicht	NaN	NaN	NaN	NaN	NaN	NaN	NaN	NaN	NaN	NaN	NaN	NaN
613.2889923000002	2.0017	sub-23	1	sequence	blank	blank	NaN	NaN	NaN	NaN	NaN	NaN	NaN	NaN	NaN	NaN	NaN	NaN
615.2907472999996	0.3001	sub-23	1	sequence	fixation	dot	NaN	NaN	NaN	NaN	NaN	NaN	NaN	NaN	NaN	NaN	NaN	NaN
615.6083681	0.0992	sub-23	1	sequence	stimulus	Schuh	NaN	NaN	512.0	NaN	NaN	4.0	1.0	NaN	NaN	NaN	NaN	NaN
615.7075658000003	0.5172	sub-23	1	sequence	interval	dot	NaN	NaN	NaN	NaN	NaN	NaN	NaN	NaN	NaN	NaN	NaN	NaN
616.2247914	0.0999	sub-23	1	sequence	stimulus	Haus	NaN	NaN	512.0	NaN	NaN	2.0	2.0	NaN	NaN	NaN	NaN	NaN
616.3247197000001	0.5172	sub-23	1	sequence	interval	dot	NaN	NaN	NaN	NaN	NaN	NaN	NaN	NaN	NaN	NaN	NaN	NaN
616.8419359	0.1	sub-23	1	sequence	stimulus	Katze	NaN	NaN	512.0	NaN	NaN	3.0	3.0	NaN	NaN	NaN	NaN	NaN
616.9418975999997	0.5172	sub-23	1	sequence	interval	dot	NaN	NaN	NaN	NaN	NaN	NaN	NaN	NaN	NaN	NaN	NaN	NaN
617.4591139000004	0.1	sub-23	1	sequence	stimulus	Stuhl	NaN	NaN	512.0	NaN	NaN	5.0	4.0	NaN	NaN	NaN	NaN	NaN
617.5591492000003	0.5171	sub-23	1	sequence	interval	dot	NaN	NaN	NaN	NaN	NaN	NaN	NaN	NaN	NaN	NaN	NaN	NaN
618.0762579000002	0.1	sub-23	1	sequence	stimulus	Gesicht	NaN	NaN	512.0	NaN	NaN	1.0	5.0	NaN	NaN	NaN	NaN	NaN
618.1762306999999	0.5171	sub-23	1	sequence	interval	dot	NaN	NaN	NaN	NaN	NaN	NaN	NaN	NaN	NaN	NaN	NaN	NaN
618.6933167999996	6.1532	sub-23	1	sequence	delay	dot	NaN	NaN	NaN	NaN	NaN	NaN	NaN	NaN	NaN	NaN	NaN	NaN
624.8324954	0.7667	sub-23	1	sequence	choice	choice	right	NaN	NaN	0.7442234999998618	True	NaN	NaN	right	True	3.0	5.0	5.0
625.5994592999996	0.4999	sub-23	1	sequence	feedback	NaN	NaN	NaN	NaN	NaN	NaN	NaN	NaN	NaN	NaN	NaN	NaN	NaN
626.0996318999996	1.0005	sub-23	1	sequence	cue	Haus	NaN	NaN	NaN	NaN	NaN	NaN	NaN	NaN	NaN	NaN	NaN	NaN
627.1001020000003	2.0018	sub-23	1	sequence	blank	blank	NaN	NaN	NaN	NaN	NaN	NaN	NaN	NaN	NaN	NaN	NaN	NaN
629.1019592000002	0.2981	sub-23	1	sequence	fixation	dot	NaN	NaN	NaN	NaN	NaN	NaN	NaN	NaN	NaN	NaN	NaN	NaN
629.4203264999996	0.1152	sub-23	1	sequence	stimulus	Gesicht	NaN	NaN	128.0	NaN	NaN	1.0	1.0	NaN	NaN	NaN	NaN	NaN
629.5355049	0.1337	sub-23	1	sequence	interval	dot	NaN	NaN	NaN	NaN	NaN	NaN	NaN	NaN	NaN	NaN	NaN	NaN
629.6691780000001	0.1	sub-23	1	sequence	stimulus	Katze	NaN	NaN	128.0	NaN	NaN	3.0	2.0	NaN	NaN	NaN	NaN	NaN
629.7691401000002	0.1334	sub-23	1	sequence	interval	dot	NaN	NaN	NaN	NaN	NaN	NaN	NaN	NaN	NaN	NaN	NaN	NaN
629.9025853000003	0.1	sub-23	1	sequence	stimulus	Schuh	NaN	NaN	128.0	NaN	NaN	4.0	3.0	NaN	NaN	NaN	NaN	NaN
630.0025484999996	0.1336	sub-23	1	sequence	interval	dot	NaN	NaN	NaN	NaN	NaN	NaN	NaN	NaN	NaN	NaN	NaN	NaN
630.1361729999999	0.0999	sub-23	1	sequence	stimulus	Haus	NaN	NaN	128.0	NaN	NaN	2.0	4.0	NaN	NaN	NaN	NaN	NaN
630.2361005000002	0.1337	sub-23	1	sequence	interval	dot	NaN	NaN	NaN	NaN	NaN	NaN	NaN	NaN	NaN	NaN	NaN	NaN
630.3698459999996	0.0998	sub-23	1	sequence	stimulus	Stuhl	NaN	NaN	128.0	NaN	NaN	5.0	5.0	NaN	NaN	NaN	NaN	NaN
630.4696545999996	0.1335	sub-23	1	sequence	interval	dot	NaN	NaN	NaN	NaN	NaN	NaN	NaN	NaN	NaN	NaN	NaN	NaN
630.6031368000004	8.0544	sub-23	1	sequence	delay	dot	NaN	NaN	NaN	NaN	NaN	NaN	NaN	NaN	NaN	NaN	NaN	NaN
638.6382123000003	0.7053	sub-23	1	sequence	choice	choice	left	NaN	NaN	0.6772707999998602	True	NaN	NaN	left	True	4.0	1.0	4.0
639.3437545999996	0.5001	sub-23	1	sequence	feedback	NaN	NaN	NaN	NaN	NaN	NaN	NaN	NaN	NaN	NaN	NaN	NaN	NaN
639.8440621999998	1.0006	sub-23	1	sequence	cue	Haus	NaN	NaN	NaN	NaN	NaN	NaN	NaN	NaN	NaN	NaN	NaN	NaN
640.8446639000003	2.0016	sub-23	1	sequence	blank	blank	NaN	NaN	NaN	NaN	NaN	NaN	NaN	NaN	NaN	NaN	NaN	NaN
642.8462821000003	0.3002	sub-23	1	sequence	fixation	dot	NaN	NaN	NaN	NaN	NaN	NaN	NaN	NaN	NaN	NaN	NaN	NaN
643.1639890999995	0.0992	sub-23	1	sequence	stimulus	Gesicht	NaN	NaN	32.0	NaN	NaN	1.0	1.0	NaN	NaN	NaN	NaN	NaN
643.2631497000002	0.0335	sub-23	1	sequence	interval	dot	NaN	NaN	NaN	NaN	NaN	NaN	NaN	NaN	NaN	NaN	NaN	NaN
643.2966304000001	0.0999	sub-23	1	sequence	stimulus	Katze	NaN	NaN	32.0	NaN	NaN	3.0	2.0	NaN	NaN	NaN	NaN	NaN
643.3965787999996	0.0335	sub-23	1	sequence	interval	dot	NaN	NaN	NaN	NaN	NaN	NaN	NaN	NaN	NaN	NaN	NaN	NaN
643.4300891000003	0.0999	sub-23	1	sequence	stimulus	Haus	NaN	NaN	32.0	NaN	NaN	2.0	3.0	NaN	NaN	NaN	NaN	NaN
643.5300379999999	0.0335	sub-23	1	sequence	interval	dot	NaN	NaN	NaN	NaN	NaN	NaN	NaN	NaN	NaN	NaN	NaN	NaN
643.5635150999997	0.1	sub-23	1	sequence	stimulus	Stuhl	NaN	NaN	32.0	NaN	NaN	5.0	4.0	NaN	NaN	NaN	NaN	NaN
643.6634731000004	0.0335	sub-23	1	sequence	interval	dot	NaN	NaN	NaN	NaN	NaN	NaN	NaN	NaN	NaN	NaN	NaN	NaN
643.6969577999998	0.0999	sub-23	1	sequence	stimulus	Schuh	NaN	NaN	32.0	NaN	NaN	4.0	5.0	NaN	NaN	NaN	NaN	NaN
643.7968971999999	0.0333	sub-23	1	sequence	interval	dot	NaN	NaN	NaN	NaN	NaN	NaN	NaN	NaN	NaN	NaN	NaN	NaN
643.8302469999999	8.522	sub-23	1	sequence	delay	dot	NaN	NaN	NaN	NaN	NaN	NaN	NaN	NaN	NaN	NaN	NaN	NaN
652.3398541999995	0.7816	sub-23	1	sequence	choice	choice	left	NaN	NaN	0.7664250999996511	True	NaN	NaN	left	True	3.0	5.0	3.0
653.1216816999995	0.5	sub-23	1	sequence	feedback	NaN	NaN	NaN	NaN	NaN	NaN	NaN	NaN	NaN	NaN	NaN	NaN	NaN
653.6218353000004	1.0007	sub-23	1	sequence	cue	Katze	NaN	NaN	NaN	NaN	NaN	NaN	NaN	NaN	NaN	NaN	NaN	NaN
654.6225209000004	2.0014	sub-23	1	sequence	blank	blank	NaN	NaN	NaN	NaN	NaN	NaN	NaN	NaN	NaN	NaN	NaN	NaN
656.6239422999997	0.3003	sub-23	1	sequence	fixation	dot	NaN	NaN	NaN	NaN	NaN	NaN	NaN	NaN	NaN	NaN	NaN	NaN
656.94272	0.115	sub-23	1	sequence	stimulus	Gesicht	NaN	NaN	32.0	NaN	NaN	1.0	1.0	NaN	NaN	NaN	NaN	NaN
657.0577277000002	0.0334	sub-23	1	sequence	interval	dot	NaN	NaN	NaN	NaN	NaN	NaN	NaN	NaN	NaN	NaN	NaN	NaN
657.0911380999996	0.0999	sub-23	1	sequence	stimulus	Haus	NaN	NaN	32.0	NaN	NaN	2.0	2.0	NaN	NaN	NaN	NaN	NaN
657.1910821000001	0.0335	sub-23	1	sequence	interval	dot	NaN	NaN	NaN	NaN	NaN	NaN	NaN	NaN	NaN	NaN	NaN	NaN
657.2245334999998	0.1	sub-23	1	sequence	stimulus	Schuh	NaN	NaN	32.0	NaN	NaN	4.0	3.0	NaN	NaN	NaN	NaN	NaN
657.3244858999997	0.0335	sub-23	1	sequence	interval	dot	NaN	NaN	NaN	NaN	NaN	NaN	NaN	NaN	NaN	NaN	NaN	NaN
657.3579969000002	0.0999	sub-23	1	sequence	stimulus	Stuhl	NaN	NaN	32.0	NaN	NaN	5.0	4.0	NaN	NaN	NaN	NaN	NaN
657.4579445999998	0.0335	sub-23	1	sequence	interval	dot	NaN	NaN	NaN	NaN	NaN	NaN	NaN	NaN	NaN	NaN	NaN	NaN
657.4914065000003	0.1	sub-23	1	sequence	stimulus	Katze	NaN	NaN	32.0	NaN	NaN	3.0	5.0	NaN	NaN	NaN	NaN	NaN
657.5914210000001	0.0333	sub-23	1	sequence	interval	dot	NaN	NaN	NaN	NaN	NaN	NaN	NaN	NaN	NaN	NaN	NaN	NaN
657.6247357000002	8.5383	sub-23	1	sequence	delay	dot	NaN	NaN	NaN	NaN	NaN	NaN	NaN	NaN	NaN	NaN	NaN	NaN
666.1455241000003	0.8371	sub-23	1	sequence	choice	choice	left	NaN	NaN	0.8116618999993079	True	NaN	NaN	left	True	5.0	3.0	5.0
666.9828498999996	0.4999	sub-23	1	sequence	feedback	NaN	NaN	NaN	NaN	NaN	NaN	NaN	NaN	NaN	NaN	NaN	NaN	NaN
667.4828583999997	1.0007	sub-23	1	sequence	cue	Schuh	NaN	NaN	NaN	NaN	NaN	NaN	NaN	NaN	NaN	NaN	NaN	NaN
668.4835437000002	2.0017	sub-23	1	sequence	blank	blank	NaN	NaN	NaN	NaN	NaN	NaN	NaN	NaN	NaN	NaN	NaN	NaN
670.4852688999999	0.3003	sub-23	1	sequence	fixation	dot	NaN	NaN	NaN	NaN	NaN	NaN	NaN	NaN	NaN	NaN	NaN	NaN
670.8036966	0.1153	sub-23	1	sequence	stimulus	Schuh	NaN	NaN	512.0	NaN	NaN	4.0	1.0	NaN	NaN	NaN	NaN	NaN
670.9189484999997	0.5172	sub-23	1	sequence	interval	dot	NaN	NaN	NaN	NaN	NaN	NaN	NaN	NaN	NaN	NaN	NaN	NaN
671.4361290999996	0.1	sub-23	1	sequence	stimulus	Haus	NaN	NaN	512.0	NaN	NaN	2.0	2.0	NaN	NaN	NaN	NaN	NaN
671.5361160000002	0.5172	sub-23	1	sequence	interval	dot	NaN	NaN	NaN	NaN	NaN	NaN	NaN	NaN	NaN	NaN	NaN	NaN
672.0533237999998	0.1	sub-23	1	sequence	stimulus	Katze	NaN	NaN	512.0	NaN	NaN	3.0	3.0	NaN	NaN	NaN	NaN	NaN
672.1533034000004	0.5173	sub-23	1	sequence	interval	dot	NaN	NaN	NaN	NaN	NaN	NaN	NaN	NaN	NaN	NaN	NaN	NaN
672.6705574999996	0.1	sub-23	1	sequence	stimulus	Gesicht	NaN	NaN	512.0	NaN	NaN	1.0	4.0	NaN	NaN	NaN	NaN	NaN
672.7705377000002	0.5171	sub-23	1	sequence	interval	dot	NaN	NaN	NaN	NaN	NaN	NaN	NaN	NaN	NaN	NaN	NaN	NaN
673.2876815999998	0.1	sub-23	1	sequence	stimulus	Stuhl	NaN	NaN	512.0	NaN	NaN	5.0	5.0	NaN	NaN	NaN	NaN	NaN
673.387643	0.5169	sub-23	1	sequence	interval	dot	NaN	NaN	NaN	NaN	NaN	NaN	NaN	NaN	NaN	NaN	NaN	NaN
673.9045759999999	6.1365	sub-23	1	sequence	delay	dot	NaN	NaN	NaN	NaN	NaN	NaN	NaN	NaN	NaN	NaN	NaN	NaN
680.0291847999997	0.8645	sub-23	1	sequence	choice	choice	right	NaN	NaN	0.8375522999995155	True	NaN	NaN	right	True	4.0	1.0	1.0
680.8939623999995	0.5001	sub-23	1	sequence	feedback	NaN	NaN	NaN	NaN	NaN	NaN	NaN	NaN	NaN	NaN	NaN	NaN	NaN
685.2145878000001	0.4995	sub-23	1	localizer	stimulus	Schuh	NaN	0	2.518711499999881	NaN	True	NaN	NaN	NaN	NaN	NaN	NaN	NaN
685.6975381000002	2.5187	sub-23	1	localizer	blank	interval	NaN	NaN	NaN	NaN	NaN	NaN	NaN	NaN	NaN	NaN	NaN	NaN
688.5172575999995	0.4995	sub-23	1	localizer	stimulus	Stuhl	NaN	0	3.2527058000005127	NaN	True	NaN	NaN	NaN	NaN	NaN	NaN	NaN
689.0001936999997	3.2527	sub-23	1	localizer	blank	interval	NaN	NaN	NaN	NaN	NaN	NaN	NaN	NaN	NaN	NaN	NaN	NaN
692.5539275000001	0.4995	sub-23	1	localizer	stimulus	Stuhl	NaN	180	2.3683170000003884	0.6845976000004157	True	NaN	NaN	NaN	NaN	NaN	NaN	NaN
693.0369180999996	2.3683	sub-23	1	localizer	blank	interval	NaN	NaN	NaN	NaN	NaN	NaN	NaN	NaN	NaN	NaN	NaN	NaN
695.7064276000001	0.4995	sub-23	1	localizer	stimulus	Haus	NaN	0	1.868097999999918	NaN	True	NaN	NaN	NaN	NaN	NaN	NaN	NaN
696.1894049000002	1.8681	sub-23	1	localizer	blank	interval	NaN	NaN	NaN	NaN	NaN	NaN	NaN	NaN	NaN	NaN	NaN	NaN
698.3585192	0.4995	sub-23	1	localizer	stimulus	Stuhl	NaN	0	2.1350585000000137	NaN	True	NaN	NaN	NaN	NaN	NaN	NaN	NaN
698.841461	2.1351	sub-23	1	localizer	blank	interval	NaN	NaN	NaN	NaN	NaN	NaN	NaN	NaN	NaN	NaN	NaN	NaN
701.2775320000001	0.4995	sub-23	1	localizer	stimulus	Gesicht	NaN	0	2.468529800000397	NaN	True	NaN	NaN	NaN	NaN	NaN	NaN	NaN
701.7606330999997	2.4685	sub-23	1	localizer	blank	interval	NaN	NaN	NaN	NaN	NaN	NaN	NaN	NaN	NaN	NaN	NaN	NaN
704.5302050999999	0.4995	sub-23	1	localizer	stimulus	Haus	NaN	0	2.4184663000005457	NaN	True	NaN	NaN	NaN	NaN	NaN	NaN	NaN
705.0131642999995	2.4185	sub-23	1	localizer	blank	interval	NaN	NaN	NaN	NaN	NaN	NaN	NaN	NaN	NaN	NaN	NaN	NaN
707.7327677000003	0.4996	sub-23	1	localizer	stimulus	Gesicht	NaN	0	2.5518959999999424	NaN	True	NaN	NaN	NaN	NaN	NaN	NaN	NaN
708.2158410000002	2.5519	sub-23	1	localizer	blank	interval	NaN	NaN	NaN	NaN	NaN	NaN	NaN	NaN	NaN	NaN	NaN	NaN
711.0689831999998	0.4993	sub-23	1	localizer	stimulus	Katze	NaN	180	2.3852436999995916	0.5055302999999185	True	NaN	NaN	NaN	NaN	NaN	NaN	NaN
711.5519431000002	2.3852	sub-23	1	localizer	blank	interval	NaN	NaN	NaN	NaN	NaN	NaN	NaN	NaN	NaN	NaN	NaN	NaN
714.2382263	0.4996	sub-23	1	localizer	stimulus	Schuh	NaN	0	3.1522184000004927	NaN	True	NaN	NaN	NaN	NaN	NaN	NaN	NaN
714.7212701999997	3.1522	sub-23	1	localizer	blank	interval	NaN	NaN	NaN	NaN	NaN	NaN	NaN	NaN	NaN	NaN	NaN	NaN
718.1746741999996	0.4994	sub-23	1	localizer	stimulus	Gesicht	NaN	180	2.418460399999276	0.5038045999999667	True	NaN	NaN	NaN	NaN	NaN	NaN	NaN
718.6575909000003	2.4185	sub-23	1	localizer	blank	interval	NaN	NaN	NaN	NaN	NaN	NaN	NaN	NaN	NaN	NaN	NaN	NaN
721.3771458000001	0.4995	sub-23	1	localizer	stimulus	Gesicht	NaN	0	3.135690799999793	NaN	True	NaN	NaN	NaN	NaN	NaN	NaN	NaN
721.8601430999997	3.1357	sub-23	1	localizer	blank	interval	NaN	NaN	NaN	NaN	NaN	NaN	NaN	NaN	NaN	NaN	NaN	NaN
725.2969721999998	0.4995	sub-23	1	localizer	stimulus	Stuhl	NaN	0	2.651907200000096	NaN	True	NaN	NaN	NaN	NaN	NaN	NaN	NaN
725.7799917000002	2.6519	sub-23	1	localizer	blank	interval	NaN	NaN	NaN	NaN	NaN	NaN	NaN	NaN	NaN	NaN	NaN	NaN
728.7330996999999	0.4994	sub-23	1	localizer	stimulus	Katze	NaN	0	3.1357545999999274	NaN	True	NaN	NaN	NaN	NaN	NaN	NaN	NaN
729.2161339000004	3.1358	sub-23	1	localizer	blank	interval	NaN	NaN	NaN	NaN	NaN	NaN	NaN	NaN	NaN	NaN	NaN	NaN
732.6530031000002	0.4995	sub-23	1	localizer	stimulus	Stuhl	NaN	0	1.9848680000004606	NaN	True	NaN	NaN	NaN	NaN	NaN	NaN	NaN
733.1359468999999	1.9849	sub-23	1	localizer	blank	interval	NaN	NaN	NaN	NaN	NaN	NaN	NaN	NaN	NaN	NaN	NaN	NaN
735.4220420000001	0.4994	sub-23	1	localizer	stimulus	Schuh	NaN	0	2.568483699999888	NaN	True	NaN	NaN	NaN	NaN	NaN	NaN	NaN
735.9049207999997	2.5685	sub-23	1	localizer	blank	interval	NaN	NaN	NaN	NaN	NaN	NaN	NaN	NaN	NaN	NaN	NaN	NaN
738.7745157999998	0.4995	sub-23	1	localizer	stimulus	Haus	NaN	0	2.218283500000325	NaN	True	NaN	NaN	NaN	NaN	NaN	NaN	NaN
739.2574955999999	2.2183	sub-23	1	localizer	blank	interval	NaN	NaN	NaN	NaN	NaN	NaN	NaN	NaN	NaN	NaN	NaN	NaN
741.7769720999995	0.4996	sub-23	1	localizer	stimulus	Haus	NaN	180	1.3341836999998122	0.5335149000002275	True	NaN	NaN	NaN	NaN	NaN	NaN	NaN
742.2600272	1.3342	sub-23	1	localizer	blank	interval	NaN	NaN	NaN	NaN	NaN	NaN	NaN	NaN	NaN	NaN	NaN	NaN
743.8952878	0.4995	sub-23	1	localizer	stimulus	Schuh	NaN	0	3.0690051000001404	NaN	True	NaN	NaN	NaN	NaN	NaN	NaN	NaN
744.3783733	3.069	sub-23	1	localizer	blank	interval	NaN	NaN	NaN	NaN	NaN	NaN	NaN	NaN	NaN	NaN	NaN	NaN
747.7483855999999	0.4995	sub-23	1	localizer	stimulus	Katze	NaN	0	3.0523690999998507	NaN	True	NaN	NaN	NaN	NaN	NaN	NaN	NaN
748.2313456000002	3.0524	sub-23	1	localizer	blank	interval	NaN	NaN	NaN	NaN	NaN	NaN	NaN	NaN	NaN	NaN	NaN	NaN
751.5848712999996	0.4996	sub-23	1	localizer	stimulus	Haus	NaN	0	3.202649500000007	NaN	True	NaN	NaN	NaN	NaN	NaN	NaN	NaN
752.0677943999999	3.2026	sub-23	1	localizer	blank	interval	NaN	NaN	NaN	NaN	NaN	NaN	NaN	NaN	NaN	NaN	NaN	NaN
755.5715166	0.4995	sub-23	1	localizer	stimulus	Katze	NaN	0	3.1689445000001797	NaN	True	NaN	NaN	NaN	NaN	NaN	NaN	NaN
756.0546039999999	3.1689	sub-23	1	localizer	blank	interval	NaN	NaN	NaN	NaN	NaN	NaN	NaN	NaN	NaN	NaN	NaN	NaN
759.5245922000004	0.4995	sub-23	1	localizer	stimulus	Katze	NaN	0	2.8189625000004526	NaN	True	NaN	NaN	NaN	NaN	NaN	NaN	NaN
760.0075264999996	2.819	sub-23	1	localizer	blank	interval	NaN	NaN	NaN	NaN	NaN	NaN	NaN	NaN	NaN	NaN	NaN	NaN
763.1274739	0.4995	sub-23	1	localizer	stimulus	Gesicht	NaN	0	2.718763800000488	NaN	True	NaN	NaN	NaN	NaN	NaN	NaN	NaN
763.6104171999996	2.7188	sub-23	1	localizer	blank	interval	NaN	NaN	NaN	NaN	NaN	NaN	NaN	NaN	NaN	NaN	NaN	NaN
766.6303175000003	0.4995	sub-23	1	localizer	stimulus	Schuh	NaN	180	2.7353987999995297	0.4881040999998731	True	NaN	NaN	NaN	NaN	NaN	NaN	NaN
767.1133952	2.7354	sub-23	1	localizer	blank	interval	NaN	NaN	NaN	NaN	NaN	NaN	NaN	NaN	NaN	NaN	NaN	NaN
773.3352358000002	1.0006	sub-23	1	sequence	cue	Stuhl	NaN	NaN	NaN	NaN	NaN	NaN	NaN	NaN	NaN	NaN	NaN	NaN
774.3358323000002	2.0016	sub-23	1	sequence	blank	blank	NaN	NaN	NaN	NaN	NaN	NaN	NaN	NaN	NaN	NaN	NaN	NaN
776.3374114999997	0.3002	sub-23	1	sequence	fixation	dot	NaN	NaN	NaN	NaN	NaN	NaN	NaN	NaN	NaN	NaN	NaN	NaN
776.6559787999995	0.1151	sub-23	1	sequence	stimulus	Schuh	NaN	NaN	512.0	NaN	NaN	4.0	1.0	NaN	NaN	NaN	NaN	NaN
776.7710531000002	0.5173	sub-23	1	sequence	interval	dot	NaN	NaN	NaN	NaN	NaN	NaN	NaN	NaN	NaN	NaN	NaN	NaN
777.2883535000001	0.1001	sub-23	1	sequence	stimulus	Haus	NaN	NaN	512.0	NaN	NaN	2.0	2.0	NaN	NaN	NaN	NaN	NaN
777.3884390000003	0.517	sub-23	1	sequence	interval	dot	NaN	NaN	NaN	NaN	NaN	NaN	NaN	NaN	NaN	NaN	NaN	NaN
777.9054740000001	0.0999	sub-23	1	sequence	stimulus	Katze	NaN	NaN	512.0	NaN	NaN	3.0	3.0	NaN	NaN	NaN	NaN	NaN
778.0054221	0.5172	sub-23	1	sequence	interval	dot	NaN	NaN	NaN	NaN	NaN	NaN	NaN	NaN	NaN	NaN	NaN	NaN
778.5226352999998	0.0998	sub-23	1	sequence	stimulus	Gesicht	NaN	NaN	512.0	NaN	NaN	1.0	4.0	NaN	NaN	NaN	NaN	NaN
778.6224412000001	0.5172	sub-23	1	sequence	interval	dot	NaN	NaN	NaN	NaN	NaN	NaN	NaN	NaN	NaN	NaN	NaN	NaN
779.1396601999995	0.1	sub-23	1	sequence	stimulus	Stuhl	NaN	NaN	512.0	NaN	NaN	5.0	5.0	NaN	NaN	NaN	NaN	NaN
779.2396157000003	0.5172	sub-23	1	sequence	interval	dot	NaN	NaN	NaN	NaN	NaN	NaN	NaN	NaN	NaN	NaN	NaN	NaN
779.7568166000001	6.1532	sub-23	1	sequence	delay	dot	NaN	NaN	NaN	NaN	NaN	NaN	NaN	NaN	NaN	NaN	NaN	NaN
785.8988286000003	0.6635	sub-23	1	sequence	choice	choice	right	NaN	NaN	0.6483909999997195	True	NaN	NaN	right	True	2.0	5.0	5.0
786.5625091000002	0.5002	sub-23	1	sequence	feedback	NaN	NaN	NaN	NaN	NaN	NaN	NaN	NaN	NaN	NaN	NaN	NaN	NaN
787.0628821999999	1.0007	sub-23	1	sequence	cue	Stuhl	NaN	NaN	NaN	NaN	NaN	NaN	NaN	NaN	NaN	NaN	NaN	NaN
788.063596	2.0014	sub-23	1	sequence	blank	blank	NaN	NaN	NaN	NaN	NaN	NaN	NaN	NaN	NaN	NaN	NaN	NaN
790.0650441999996	0.3003	sub-23	1	sequence	fixation	dot	NaN	NaN	NaN	NaN	NaN	NaN	NaN	NaN	NaN	NaN	NaN	NaN
790.3828050000002	0.0992	sub-23	1	sequence	stimulus	Gesicht	NaN	NaN	32.0	NaN	NaN	1.0	1.0	NaN	NaN	NaN	NaN	NaN
790.4820134000001	0.0335	sub-23	1	sequence	interval	dot	NaN	NaN	NaN	NaN	NaN	NaN	NaN	NaN	NaN	NaN	NaN	NaN
790.5154851999996	0.1	sub-23	1	sequence	stimulus	Katze	NaN	NaN	32.0	NaN	NaN	3.0	2.0	NaN	NaN	NaN	NaN	NaN
790.6154816999997	0.0335	sub-23	1	sequence	interval	dot	NaN	NaN	NaN	NaN	NaN	NaN	NaN	NaN	NaN	NaN	NaN	NaN
790.6489835000002	0.0999	sub-23	1	sequence	stimulus	Haus	NaN	NaN	32.0	NaN	NaN	2.0	3.0	NaN	NaN	NaN	NaN	NaN
790.7489329999999	0.0334	sub-23	1	sequence	interval	dot	NaN	NaN	NaN	NaN	NaN	NaN	NaN	NaN	NaN	NaN	NaN	NaN
790.7823811999997	0.1	sub-23	1	sequence	stimulus	Stuhl	NaN	NaN	32.0	NaN	NaN	5.0	4.0	NaN	NaN	NaN	NaN	NaN
790.8823621000001	0.0335	sub-23	1	sequence	interval	dot	NaN	NaN	NaN	NaN	NaN	NaN	NaN	NaN	NaN	NaN	NaN	NaN
790.9158322000003	0.1	sub-23	1	sequence	stimulus	Schuh	NaN	NaN	32.0	NaN	NaN	4.0	5.0	NaN	NaN	NaN	NaN	NaN
791.0157895000002	0.0334	sub-23	1	sequence	interval	dot	NaN	NaN	NaN	NaN	NaN	NaN	NaN	NaN	NaN	NaN	NaN	NaN
791.0491670000001	8.5385	sub-23	1	sequence	delay	dot	NaN	NaN	NaN	NaN	NaN	NaN	NaN	NaN	NaN	NaN	NaN	NaN
799.5743746999997	0.7325	sub-23	1	sequence	choice	choice	right	NaN	NaN	0.7069693000003099	True	NaN	NaN	right	True	3.0	4.0	4.0
800.3071770999995	0.5001	sub-23	1	sequence	feedback	NaN	NaN	NaN	NaN	NaN	NaN	NaN	NaN	NaN	NaN	NaN	NaN	NaN
800.8074250999998	1.0005	sub-23	1	sequence	cue	Gesicht	NaN	NaN	NaN	NaN	NaN	NaN	NaN	NaN	NaN	NaN	NaN	NaN
801.8078953000004	2.0017	sub-23	1	sequence	blank	blank	NaN	NaN	NaN	NaN	NaN	NaN	NaN	NaN	NaN	NaN	NaN	NaN
803.8095680999995	0.3003	sub-23	1	sequence	fixation	dot	NaN	NaN	NaN	NaN	NaN	NaN	NaN	NaN	NaN	NaN	NaN	NaN
804.1273036000002	0.0992	sub-23	1	sequence	stimulus	Gesicht	NaN	NaN	64.0	NaN	NaN	1.0	1.0	NaN	NaN	NaN	NaN	NaN
804.2264617999999	0.0668	sub-23	1	sequence	interval	dot	NaN	NaN	NaN	NaN	NaN	NaN	NaN	NaN	NaN	NaN	NaN	NaN
804.2932952000001	0.0999	sub-23	1	sequence	stimulus	Katze	NaN	NaN	64.0	NaN	NaN	3.0	2.0	NaN	NaN	NaN	NaN	NaN
804.3932425000003	0.0669	sub-23	1	sequence	interval	dot	NaN	NaN	NaN	NaN	NaN	NaN	NaN	NaN	NaN	NaN	NaN	NaN
804.4601155	0.0999	sub-23	1	sequence	stimulus	Schuh	NaN	NaN	64.0	NaN	NaN	4.0	3.0	NaN	NaN	NaN	NaN	NaN
804.5600349999995	0.0668	sub-23	1	sequence	interval	dot	NaN	NaN	NaN	NaN	NaN	NaN	NaN	NaN	NaN	NaN	NaN	NaN
804.6268768999998	0.1001	sub-23	1	sequence	stimulus	Stuhl	NaN	NaN	64.0	NaN	NaN	5.0	4.0	NaN	NaN	NaN	NaN	NaN
804.7269810999996	0.0668	sub-23	1	sequence	interval	dot	NaN	NaN	NaN	NaN	NaN	NaN	NaN	NaN	NaN	NaN	NaN	NaN
804.7938204000002	0.0999	sub-23	1	sequence	stimulus	Haus	NaN	NaN	64.0	NaN	NaN	2.0	5.0	NaN	NaN	NaN	NaN	NaN
804.8937484999997	0.0666	sub-23	1	sequence	interval	dot	NaN	NaN	NaN	NaN	NaN	NaN	NaN	NaN	NaN	NaN	NaN	NaN
804.9603889999999	8.3883	sub-23	1	sequence	delay	dot	NaN	NaN	NaN	NaN	NaN	NaN	NaN	NaN	NaN	NaN	NaN	NaN
813.3280746999999	0.6898	sub-23	1	sequence	choice	choice	left	NaN	NaN	0.6663164000001416	True	NaN	NaN	left	True	1.0	5.0	1.0
814.0181640999999	0.5002	sub-23	1	sequence	feedback	NaN	NaN	NaN	NaN	NaN	NaN	NaN	NaN	NaN	NaN	NaN	NaN	NaN
814.5185498999999	1.0005	sub-23	1	sequence	cue	Stuhl	NaN	NaN	NaN	NaN	NaN	NaN	NaN	NaN	NaN	NaN	NaN	NaN
815.5190194999996	2.0017	sub-23	1	sequence	blank	blank	NaN	NaN	NaN	NaN	NaN	NaN	NaN	NaN	NaN	NaN	NaN	NaN
817.5206928999996	0.3004	sub-23	1	sequence	fixation	dot	NaN	NaN	NaN	NaN	NaN	NaN	NaN	NaN	NaN	NaN	NaN	NaN
817.8391431	0.1152	sub-23	1	sequence	stimulus	Schuh	NaN	NaN	512.0	NaN	NaN	4.0	1.0	NaN	NaN	NaN	NaN	NaN
817.9543027	0.5173	sub-23	1	sequence	interval	dot	NaN	NaN	NaN	NaN	NaN	NaN	NaN	NaN	NaN	NaN	NaN	NaN
818.4716366000002	0.0998	sub-23	1	sequence	stimulus	Haus	NaN	NaN	512.0	NaN	NaN	2.0	2.0	NaN	NaN	NaN	NaN	NaN
818.5714638999998	0.5173	sub-23	1	sequence	interval	dot	NaN	NaN	NaN	NaN	NaN	NaN	NaN	NaN	NaN	NaN	NaN	NaN
819.0887739999998	0.1	sub-23	1	sequence	stimulus	Katze	NaN	NaN	512.0	NaN	NaN	3.0	3.0	NaN	NaN	NaN	NaN	NaN
819.1887343999997	0.5172	sub-23	1	sequence	interval	dot	NaN	NaN	NaN	NaN	NaN	NaN	NaN	NaN	NaN	NaN	NaN	NaN
819.7059497999999	0.1	sub-23	1	sequence	stimulus	Stuhl	NaN	NaN	512.0	NaN	NaN	5.0	4.0	NaN	NaN	NaN	NaN	NaN
819.8059044000001	0.5171	sub-23	1	sequence	interval	dot	NaN	NaN	NaN	NaN	NaN	NaN	NaN	NaN	NaN	NaN	NaN	NaN
820.3230424000003	0.0999	sub-23	1	sequence	stimulus	Gesicht	NaN	NaN	512.0	NaN	NaN	1.0	5.0	NaN	NaN	NaN	NaN	NaN
820.4229679	0.5171	sub-23	1	sequence	interval	dot	NaN	NaN	NaN	NaN	NaN	NaN	NaN	NaN	NaN	NaN	NaN	NaN
820.9400661	6.1364	sub-23	1	sequence	delay	dot	NaN	NaN	NaN	NaN	NaN	NaN	NaN	NaN	NaN	NaN	NaN	NaN
827.0557312000001	0.7733	sub-23	1	sequence	choice	choice	right	NaN	NaN	0.7379627000000255	True	NaN	NaN	right	True	5.0	4.0	4.0
827.8293027999998	0.5	sub-23	1	sequence	feedback	NaN	NaN	NaN	NaN	NaN	NaN	NaN	NaN	NaN	NaN	NaN	NaN	NaN
828.3294398999997	1.0008	sub-23	1	sequence	cue	Schuh	NaN	NaN	NaN	NaN	NaN	NaN	NaN	NaN	NaN	NaN	NaN	NaN
829.3302117000003	2.0015	sub-23	1	sequence	blank	blank	NaN	NaN	NaN	NaN	NaN	NaN	NaN	NaN	NaN	NaN	NaN	NaN
831.3316769000003	0.3003	sub-23	1	sequence	fixation	dot	NaN	NaN	NaN	NaN	NaN	NaN	NaN	NaN	NaN	NaN	NaN	NaN
831.6494606999995	0.0992	sub-23	1	sequence	stimulus	Gesicht	NaN	NaN	128.0	NaN	NaN	1.0	1.0	NaN	NaN	NaN	NaN	NaN
831.7486702999995	0.1336	sub-23	1	sequence	interval	dot	NaN	NaN	NaN	NaN	NaN	NaN	NaN	NaN	NaN	NaN	NaN	NaN
831.8822287000003	0.1	sub-23	1	sequence	stimulus	Katze	NaN	NaN	128.0	NaN	NaN	3.0	2.0	NaN	NaN	NaN	NaN	NaN
831.9822029999996	0.1336	sub-23	1	sequence	interval	dot	NaN	NaN	NaN	NaN	NaN	NaN	NaN	NaN	NaN	NaN	NaN	NaN
832.1157683000001	0.1	sub-23	1	sequence	stimulus	Schuh	NaN	NaN	128.0	NaN	NaN	4.0	3.0	NaN	NaN	NaN	NaN	NaN
832.2157374999997	0.1336	sub-23	1	sequence	interval	dot	NaN	NaN	NaN	NaN	NaN	NaN	NaN	NaN	NaN	NaN	NaN	NaN
832.3493003000003	0.0999	sub-23	1	sequence	stimulus	Haus	NaN	NaN	128.0	NaN	NaN	2.0	4.0	NaN	NaN	NaN	NaN	NaN
832.4492277999998	0.1335	sub-23	1	sequence	interval	dot	NaN	NaN	NaN	NaN	NaN	NaN	NaN	NaN	NaN	NaN	NaN	NaN
832.5827724999999	0.1	sub-23	1	sequence	stimulus	Stuhl	NaN	NaN	128.0	NaN	NaN	5.0	5.0	NaN	NaN	NaN	NaN	NaN
832.6827713000002	0.1334	sub-23	1	sequence	interval	dot	NaN	NaN	NaN	NaN	NaN	NaN	NaN	NaN	NaN	NaN	NaN	NaN
832.8161914000002	8.0717	sub-23	1	sequence	delay	dot	NaN	NaN	NaN	NaN	NaN	NaN	NaN	NaN	NaN	NaN	NaN	NaN
840.8614958999997	0.8955	sub-23	1	sequence	choice	choice	left	NaN	NaN	0.8625620000002527	True	NaN	NaN	left	True	3.0	4.0	3.0
841.7572110000001	0.5	sub-23	1	sequence	feedback	NaN	NaN	NaN	NaN	NaN	NaN	NaN	NaN	NaN	NaN	NaN	NaN	NaN
842.2573737000002	1.0007	sub-23	1	sequence	cue	Schuh	NaN	NaN	NaN	NaN	NaN	NaN	NaN	NaN	NaN	NaN	NaN	NaN
843.2581321999996	2.0015	sub-23	1	sequence	blank	blank	NaN	NaN	NaN	NaN	NaN	NaN	NaN	NaN	NaN	NaN	NaN	NaN
845.2596414999998	0.3002	sub-23	1	sequence	fixation	dot	NaN	NaN	NaN	NaN	NaN	NaN	NaN	NaN	NaN	NaN	NaN	NaN
845.5781950999999	0.1151	sub-23	1	sequence	stimulus	Gesicht	NaN	NaN	128.0	NaN	NaN	1.0	1.0	NaN	NaN	NaN	NaN	NaN
845.6932859999997	0.1335	sub-23	1	sequence	interval	dot	NaN	NaN	NaN	NaN	NaN	NaN	NaN	NaN	NaN	NaN	NaN	NaN
845.8268001999995	0.1	sub-23	1	sequence	stimulus	Katze	NaN	NaN	128.0	NaN	NaN	3.0	2.0	NaN	NaN	NaN	NaN	NaN
845.9267907000003	0.1336	sub-23	1	sequence	interval	dot	NaN	NaN	NaN	NaN	NaN	NaN	NaN	NaN	NaN	NaN	NaN	NaN
846.0603545000004	0.0999	sub-23	1	sequence	stimulus	Stuhl	NaN	NaN	128.0	NaN	NaN	5.0	3.0	NaN	NaN	NaN	NaN	NaN
846.1602991	0.1336	sub-23	1	sequence	interval	dot	NaN	NaN	NaN	NaN	NaN	NaN	NaN	NaN	NaN	NaN	NaN	NaN
846.2938938999996	0.1	sub-23	1	sequence	stimulus	Schuh	NaN	NaN	128.0	NaN	NaN	4.0	4.0	NaN	NaN	NaN	NaN	NaN
846.3938447999999	0.1336	sub-23	1	sequence	interval	dot	NaN	NaN	NaN	NaN	NaN	NaN	NaN	NaN	NaN	NaN	NaN	NaN
846.5274472000001	0.0999	sub-23	1	sequence	stimulus	Haus	NaN	NaN	128.0	NaN	NaN	2.0	5.0	NaN	NaN	NaN	NaN	NaN
846.6273822000003	0.1334	sub-23	1	sequence	interval	dot	NaN	NaN	NaN	NaN	NaN	NaN	NaN	NaN	NaN	NaN	NaN	NaN
846.7607826000003	8.0548	sub-23	1	sequence	delay	dot	NaN	NaN	NaN	NaN	NaN	NaN	NaN	NaN	NaN	NaN	NaN	NaN
854.7970870999998	0.7377	sub-23	1	sequence	choice	choice	left	NaN	NaN	0.7028239000001122	True	NaN	NaN	left	True	4.0	2.0	4.0
855.5350527	0.5	sub-23	1	sequence	feedback	NaN	NaN	NaN	NaN	NaN	NaN	NaN	NaN	NaN	NaN	NaN	NaN	NaN
856.0353128999996	1.0005	sub-23	1	sequence	cue	Katze	NaN	NaN	NaN	NaN	NaN	NaN	NaN	NaN	NaN	NaN	NaN	NaN
857.0358127999998	2.0017	sub-23	1	sequence	blank	blank	NaN	NaN	NaN	NaN	NaN	NaN	NaN	NaN	NaN	NaN	NaN	NaN
859.0375076	0.3002	sub-23	1	sequence	fixation	dot	NaN	NaN	NaN	NaN	NaN	NaN	NaN	NaN	NaN	NaN	NaN	NaN
859.3559699999996	0.1152	sub-23	1	sequence	stimulus	Stuhl	NaN	NaN	64.0	NaN	NaN	5.0	1.0	NaN	NaN	NaN	NaN	NaN
859.4711813000004	0.067	sub-23	1	sequence	interval	dot	NaN	NaN	NaN	NaN	NaN	NaN	NaN	NaN	NaN	NaN	NaN	NaN
859.5381519000002	0.0999	sub-23	1	sequence	stimulus	Katze	NaN	NaN	64.0	NaN	NaN	3.0	2.0	NaN	NaN	NaN	NaN	NaN
859.6380134000001	0.0669	sub-23	1	sequence	interval	dot	NaN	NaN	NaN	NaN	NaN	NaN	NaN	NaN	NaN	NaN	NaN	NaN
859.7048648999998	0.0999	sub-23	1	sequence	stimulus	Haus	NaN	NaN	64.0	NaN	NaN	2.0	3.0	NaN	NaN	NaN	NaN	NaN
859.8047649999999	0.0669	sub-23	1	sequence	interval	dot	NaN	NaN	NaN	NaN	NaN	NaN	NaN	NaN	NaN	NaN	NaN	NaN
859.8716162000001	0.1167	sub-23	1	sequence	stimulus	Gesicht	NaN	NaN	64.0	NaN	NaN	1.0	4.0	NaN	NaN	NaN	NaN	NaN
859.9882770000004	0.0648	sub-23	1	sequence	interval	dot	NaN	NaN	NaN	NaN	NaN	NaN	NaN	NaN	NaN	NaN	NaN	NaN
860.0530538000003	0.102	sub-23	1	sequence	stimulus	Schuh	NaN	NaN	64.0	NaN	NaN	4.0	5.0	NaN	NaN	NaN	NaN	NaN
860.1550551999999	0.0667	sub-23	1	sequence	interval	dot	NaN	NaN	NaN	NaN	NaN	NaN	NaN	NaN	NaN	NaN	NaN	NaN
860.2217864000004	8.3716	sub-23	1	sequence	delay	dot	NaN	NaN	NaN	NaN	NaN	NaN	NaN	NaN	NaN	NaN	NaN	NaN
868.5767223000003	0.7192	sub-23	1	sequence	choice	choice	left	NaN	NaN	0.6930590000001757	True	NaN	NaN	left	True	2.0	5.0	2.0
869.2961957999996	0.5001	sub-23	1	sequence	feedback	NaN	NaN	NaN	NaN	NaN	NaN	NaN	NaN	NaN	NaN	NaN	NaN	NaN
869.7964474999999	1.0006	sub-23	1	sequence	cue	Stuhl	NaN	NaN	NaN	NaN	NaN	NaN	NaN	NaN	NaN	NaN	NaN	NaN
870.7970578000004	2.0015	sub-23	1	sequence	blank	blank	NaN	NaN	NaN	NaN	NaN	NaN	NaN	NaN	NaN	NaN	NaN	NaN
872.7985284999995	0.3003	sub-23	1	sequence	fixation	dot	NaN	NaN	NaN	NaN	NaN	NaN	NaN	NaN	NaN	NaN	NaN	NaN
873.1163040000001	0.0992	sub-23	1	sequence	stimulus	Gesicht	NaN	NaN	32.0	NaN	NaN	1.0	1.0	NaN	NaN	NaN	NaN	NaN
873.2154602	0.0335	sub-23	1	sequence	interval	dot	NaN	NaN	NaN	NaN	NaN	NaN	NaN	NaN	NaN	NaN	NaN	NaN
873.2490011	0.0999	sub-23	1	sequence	stimulus	Haus	NaN	NaN	32.0	NaN	NaN	2.0	2.0	NaN	NaN	NaN	NaN	NaN
873.3489266999995	0.0335	sub-23	1	sequence	interval	dot	NaN	NaN	NaN	NaN	NaN	NaN	NaN	NaN	NaN	NaN	NaN	NaN
873.3824379999996	0.0999	sub-23	1	sequence	stimulus	Schuh	NaN	NaN	32.0	NaN	NaN	4.0	3.0	NaN	NaN	NaN	NaN	NaN
873.4823638999997	0.0335	sub-23	1	sequence	interval	dot	NaN	NaN	NaN	NaN	NaN	NaN	NaN	NaN	NaN	NaN	NaN	NaN
873.5158954999997	0.0999	sub-23	1	sequence	stimulus	Stuhl	NaN	NaN	32.0	NaN	NaN	5.0	4.0	NaN	NaN	NaN	NaN	NaN
873.6158174000002	0.0335	sub-23	1	sequence	interval	dot	NaN	NaN	NaN	NaN	NaN	NaN	NaN	NaN	NaN	NaN	NaN	NaN
873.6492783000003	0.1	sub-23	1	sequence	stimulus	Katze	NaN	NaN	32.0	NaN	NaN	3.0	5.0	NaN	NaN	NaN	NaN	NaN
873.7492543999997	0.0334	sub-23	1	sequence	interval	dot	NaN	NaN	NaN	NaN	NaN	NaN	NaN	NaN	NaN	NaN	NaN	NaN
873.7826065999998	8.5386	sub-23	1	sequence	delay	dot	NaN	NaN	NaN	NaN	NaN	NaN	NaN	NaN	NaN	NaN	NaN	NaN
882.3044985999995	0.6693	sub-23	1	sequence	choice	choice	right	NaN	NaN	0.6450913999997283	True	NaN	NaN	right	True	3.0	4.0	4.0
882.9740091000003	0.4998	sub-23	1	sequence	feedback	NaN	NaN	NaN	NaN	NaN	NaN	NaN	NaN	NaN	NaN	NaN	NaN	NaN
883.4741162	46.9544	sub-23	1	other	break	break	NaN	NaN	NaN	NaN	NaN	NaN	NaN	NaN	NaN	NaN	NaN	NaN
934.2489937	0.4995	sub-23	1	localizer	stimulus	Stuhl	NaN	0	2.952380599999742	NaN	True	NaN	NaN	NaN	NaN	NaN	NaN	NaN
934.748493	2.9524	sub-23	1	localizer	blank	interval	NaN	NaN	NaN	NaN	NaN	NaN	NaN	NaN	NaN	NaN	NaN	NaN
938.0020501999998	0.4995	sub-23	1	localizer	stimulus	Katze	NaN	0	1.9347550000004503	NaN	True	NaN	NaN	NaN	NaN	NaN	NaN	NaN
938.4849911	1.9348	sub-23	1	localizer	blank	interval	NaN	NaN	NaN	NaN	NaN	NaN	NaN	NaN	NaN	NaN	NaN	NaN
940.7211423	0.4993	sub-23	1	localizer	stimulus	Gesicht	NaN	180	2.168384999999944	0.4929641999997329	True	NaN	NaN	NaN	NaN	NaN	NaN	NaN
941.2038725000002	2.1684	sub-23	1	localizer	blank	interval	NaN	NaN	NaN	NaN	NaN	NaN	NaN	NaN	NaN	NaN	NaN	NaN
943.6741924999995	0.5154	sub-23	1	localizer	stimulus	Stuhl	NaN	0	2.8520383999996284	NaN	True	NaN	NaN	NaN	NaN	NaN	NaN	NaN
944.1563648	2.852	sub-23	1	localizer	blank	interval	NaN	NaN	NaN	NaN	NaN	NaN	NaN	NaN	NaN	NaN	NaN	NaN
947.3095702	0.4994	sub-23	1	localizer	stimulus	Stuhl	NaN	180	1.8513438999999607	0.4967219999998633	True	NaN	NaN	NaN	NaN	NaN	NaN	NaN
947.7924911	1.8513	sub-23	1	localizer	blank	interval	NaN	NaN	NaN	NaN	NaN	NaN	NaN	NaN	NaN	NaN	NaN	NaN
949.9450301999996	0.4995	sub-23	1	localizer	stimulus	Schuh	NaN	0	3.0356741999994483	NaN	True	NaN	NaN	NaN	NaN	NaN	NaN	NaN
950.4279407000004	3.0357	sub-23	1	localizer	blank	interval	NaN	NaN	NaN	NaN	NaN	NaN	NaN	NaN	NaN	NaN	NaN	NaN
953.7649149999996	0.4993	sub-23	1	localizer	stimulus	Schuh	NaN	0	2.1348319999998466	0.4814086999995197	False	NaN	NaN	NaN	NaN	NaN	NaN	NaN
954.2477914	2.1348	sub-23	1	localizer	blank	interval	NaN	NaN	NaN	NaN	NaN	NaN	NaN	NaN	NaN	NaN	NaN	NaN
956.6837772999996	0.4995	sub-23	1	localizer	stimulus	Katze	NaN	180	2.418488900000739	0.5703476999997292	True	NaN	NaN	NaN	NaN	NaN	NaN	NaN
957.1667750999997	2.4185	sub-23	1	localizer	blank	interval	NaN	NaN	NaN	NaN	NaN	NaN	NaN	NaN	NaN	NaN	NaN	NaN
959.8863828000004	0.4995	sub-23	1	localizer	stimulus	Stuhl	NaN	0	3.2192553999996107	NaN	True	NaN	NaN	NaN	NaN	NaN	NaN	NaN
960.3693167	3.2193	sub-23	1	localizer	blank	interval	NaN	NaN	NaN	NaN	NaN	NaN	NaN	NaN	NaN	NaN	NaN	NaN
963.8897663999996	0.4995	sub-23	1	localizer	stimulus	Haus	NaN	0	2.2684009000004153	NaN	True	NaN	NaN	NaN	NaN	NaN	NaN	NaN
964.3726829999996	2.2684	sub-23	1	localizer	blank	interval	NaN	NaN	NaN	NaN	NaN	NaN	NaN	NaN	NaN	NaN	NaN	NaN
966.9421541000002	0.4994	sub-23	1	localizer	stimulus	Schuh	NaN	0	2.3350912000005337	NaN	True	NaN	NaN	NaN	NaN	NaN	NaN	NaN
967.4249972999996	2.3351	sub-23	1	localizer	blank	interval	NaN	NaN	NaN	NaN	NaN	NaN	NaN	NaN	NaN	NaN	NaN	NaN
970.0612671	0.4995	sub-23	1	localizer	stimulus	Haus	NaN	180	2.784998199999677	0.5527765000006184	True	NaN	NaN	NaN	NaN	NaN	NaN	NaN
970.5446254	2.785	sub-23	1	localizer	blank	interval	NaN	NaN	NaN	NaN	NaN	NaN	NaN	NaN	NaN	NaN	NaN	NaN
973.6308375	0.4994	sub-23	1	localizer	stimulus	Haus	NaN	0	3.035613899999703	NaN	True	NaN	NaN	NaN	NaN	NaN	NaN	NaN
974.1137577	3.0356	sub-23	1	localizer	blank	interval	NaN	NaN	NaN	NaN	NaN	NaN	NaN	NaN	NaN	NaN	NaN	NaN
977.4505725	0.4995	sub-23	1	localizer	stimulus	Gesicht	NaN	0	2.7354082000001654	NaN	True	NaN	NaN	NaN	NaN	NaN	NaN	NaN
977.9335260999997	2.7354	sub-23	1	localizer	blank	interval	NaN	NaN	NaN	NaN	NaN	NaN	NaN	NaN	NaN	NaN	NaN	NaN
980.9700900999997	0.4995	sub-23	1	localizer	stimulus	Schuh	NaN	180	2.5186006000003545	0.491996100000506	True	NaN	NaN	NaN	NaN	NaN	NaN	NaN
981.4530195999996	2.5186	sub-23	1	localizer	blank	interval	NaN	NaN	NaN	NaN	NaN	NaN	NaN	NaN	NaN	NaN	NaN	NaN
984.272825	0.4995	sub-23	1	localizer	stimulus	Stuhl	NaN	0	2.6185828000005813	NaN	True	NaN	NaN	NaN	NaN	NaN	NaN	NaN
984.7559427999996	2.6186	sub-23	1	localizer	blank	interval	NaN	NaN	NaN	NaN	NaN	NaN	NaN	NaN	NaN	NaN	NaN	NaN
987.6756884999996	0.4994	sub-23	1	localizer	stimulus	Gesicht	NaN	0	2.235154599999987	NaN	True	NaN	NaN	NaN	NaN	NaN	NaN	NaN
988.1583979999996	2.2352	sub-23	1	localizer	blank	interval	NaN	NaN	NaN	NaN	NaN	NaN	NaN	NaN	NaN	NaN	NaN	NaN
990.6945593	0.4995	sub-23	1	localizer	stimulus	Gesicht	NaN	0	2.752104999999574	NaN	True	NaN	NaN	NaN	NaN	NaN	NaN	NaN
991.1775047	2.7521	sub-23	1	localizer	blank	interval	NaN	NaN	NaN	NaN	NaN	NaN	NaN	NaN	NaN	NaN	NaN	NaN
994.2308178000004	0.4996	sub-23	1	localizer	stimulus	Haus	NaN	0	2.8855072999995173	NaN	True	NaN	NaN	NaN	NaN	NaN	NaN	NaN
994.7137314	2.8855	sub-23	1	localizer	blank	interval	NaN	NaN	NaN	NaN	NaN	NaN	NaN	NaN	NaN	NaN	NaN	NaN
997.9004107	0.4996	sub-23	1	localizer	stimulus	Katze	NaN	0	2.5518462	NaN	True	NaN	NaN	NaN	NaN	NaN	NaN	NaN
998.383476	2.5518	sub-23	1	localizer	blank	interval	NaN	NaN	NaN	NaN	NaN	NaN	NaN	NaN	NaN	NaN	NaN	NaN
1001.2364323000002	0.4995	sub-23	1	localizer	stimulus	Katze	NaN	0	2.685359999999605	NaN	True	NaN	NaN	NaN	NaN	NaN	NaN	NaN
1001.7194736	2.6854	sub-23	1	localizer	blank	interval	NaN	NaN	NaN	NaN	NaN	NaN	NaN	NaN	NaN	NaN	NaN	NaN
1004.7060638000004	0.4994	sub-23	1	localizer	stimulus	Schuh	NaN	0	2.0349825000004103	NaN	True	NaN	NaN	NaN	NaN	NaN	NaN	NaN
1005.1889424	2.035	sub-23	1	localizer	blank	interval	NaN	NaN	NaN	NaN	NaN	NaN	NaN	NaN	NaN	NaN	NaN	NaN
1007.5250942000002	0.4995	sub-23	1	localizer	stimulus	Gesicht	NaN	0	2.118083600000432	NaN	True	NaN	NaN	NaN	NaN	NaN	NaN	NaN
1008.0079538	2.1181	sub-23	1	localizer	blank	interval	NaN	NaN	NaN	NaN	NaN	NaN	NaN	NaN	NaN	NaN	NaN	NaN
1010.4271933	0.4995	sub-23	1	localizer	stimulus	Katze	NaN	0	2.018213499999547	NaN	True	NaN	NaN	NaN	NaN	NaN	NaN	NaN
1010.9101091000002	2.0182	sub-23	1	localizer	blank	interval	NaN	NaN	NaN	NaN	NaN	NaN	NaN	NaN	NaN	NaN	NaN	NaN
1013.2294789999996	0.4995	sub-23	1	localizer	stimulus	Haus	NaN	0	3.0020230999998603	NaN	True	NaN	NaN	NaN	NaN	NaN	NaN	NaN
1013.7127767000002	3.002	sub-23	1	localizer	blank	interval	NaN	NaN	NaN	NaN	NaN	NaN	NaN	NaN	NaN	NaN	NaN	NaN
1020.2013285000004	1.0004	sub-23	1	sequence	cue	Gesicht	NaN	NaN	NaN	NaN	NaN	NaN	NaN	NaN	NaN	NaN	NaN	NaN
1021.2017654	2.0015	sub-23	1	sequence	blank	blank	NaN	NaN	NaN	NaN	NaN	NaN	NaN	NaN	NaN	NaN	NaN	NaN
1023.2032680000002	0.3003	sub-23	1	sequence	fixation	dot	NaN	NaN	NaN	NaN	NaN	NaN	NaN	NaN	NaN	NaN	NaN	NaN
1023.5211023000002	0.0992	sub-23	1	sequence	stimulus	Stuhl	NaN	NaN	64.0	NaN	NaN	5.0	1.0	NaN	NaN	NaN	NaN	NaN
1023.6202765999996	0.0669	sub-23	1	sequence	interval	dot	NaN	NaN	NaN	NaN	NaN	NaN	NaN	NaN	NaN	NaN	NaN	NaN
1023.6871267999996	0.1	sub-23	1	sequence	stimulus	Katze	NaN	NaN	64.0	NaN	NaN	3.0	2.0	NaN	NaN	NaN	NaN	NaN
1023.7870931999996	0.0669	sub-23	1	sequence	interval	dot	NaN	NaN	NaN	NaN	NaN	NaN	NaN	NaN	NaN	NaN	NaN	NaN
1023.8539523	0.0999	sub-23	1	sequence	stimulus	Haus	NaN	NaN	64.0	NaN	NaN	2.0	3.0	NaN	NaN	NaN	NaN	NaN
1023.9538965000002	0.0669	sub-23	1	sequence	interval	dot	NaN	NaN	NaN	NaN	NaN	NaN	NaN	NaN	NaN	NaN	NaN	NaN
1024.0208137	0.0999	sub-23	1	sequence	stimulus	Gesicht	NaN	NaN	64.0	NaN	NaN	1.0	4.0	NaN	NaN	NaN	NaN	NaN
1024.1206919999995	0.0668	sub-23	1	sequence	interval	dot	NaN	NaN	NaN	NaN	NaN	NaN	NaN	NaN	NaN	NaN	NaN	NaN
1024.1875381999998	0.1	sub-23	1	sequence	stimulus	Schuh	NaN	NaN	64.0	NaN	NaN	4.0	5.0	NaN	NaN	NaN	NaN	NaN
1024.2875108999997	0.0667	sub-23	1	sequence	interval	dot	NaN	NaN	NaN	NaN	NaN	NaN	NaN	NaN	NaN	NaN	NaN	NaN
1024.3542126000002	8.3717	sub-23	1	sequence	delay	dot	NaN	NaN	NaN	NaN	NaN	NaN	NaN	NaN	NaN	NaN	NaN	NaN
1032.7109600000003	0.7675	sub-23	1	sequence	choice	choice	left	NaN	NaN	0.7361275000002934	True	NaN	NaN	left	True	4.0	5.0	4.0
1033.4788404	0.5	sub-23	1	sequence	feedback	NaN	NaN	NaN	NaN	NaN	NaN	NaN	NaN	NaN	NaN	NaN	NaN	NaN
1033.9789639	1.0005	sub-23	1	sequence	cue	Katze	NaN	NaN	NaN	NaN	NaN	NaN	NaN	NaN	NaN	NaN	NaN	NaN
1034.9795119	2.0016	sub-23	1	sequence	blank	blank	NaN	NaN	NaN	NaN	NaN	NaN	NaN	NaN	NaN	NaN	NaN	NaN
1036.9810873999995	0.3002	sub-23	1	sequence	fixation	dot	NaN	NaN	NaN	NaN	NaN	NaN	NaN	NaN	NaN	NaN	NaN	NaN
1037.2998393999997	0.1149	sub-23	1	sequence	stimulus	Gesicht	NaN	NaN	64.0	NaN	NaN	1.0	1.0	NaN	NaN	NaN	NaN	NaN
1037.4147752	0.0668	sub-23	1	sequence	interval	dot	NaN	NaN	NaN	NaN	NaN	NaN	NaN	NaN	NaN	NaN	NaN	NaN
1037.4816116000002	0.0999	sub-23	1	sequence	stimulus	Katze	NaN	NaN	64.0	NaN	NaN	3.0	2.0	NaN	NaN	NaN	NaN	NaN
1037.5815598	0.0668	sub-23	1	sequence	interval	dot	NaN	NaN	NaN	NaN	NaN	NaN	NaN	NaN	NaN	NaN	NaN	NaN
1037.6483950000002	0.0999	sub-23	1	sequence	stimulus	Schuh	NaN	NaN	64.0	NaN	NaN	4.0	3.0	NaN	NaN	NaN	NaN	NaN
1037.7483438	0.0668	sub-23	1	sequence	interval	dot	NaN	NaN	NaN	NaN	NaN	NaN	NaN	NaN	NaN	NaN	NaN	NaN
1037.8151836999996	0.1	sub-23	1	sequence	stimulus	Stuhl	NaN	NaN	64.0	NaN	NaN	5.0	4.0	NaN	NaN	NaN	NaN	NaN
1037.9152113	0.0668	sub-23	1	sequence	interval	dot	NaN	NaN	NaN	NaN	NaN	NaN	NaN	NaN	NaN	NaN	NaN	NaN
1037.9820426999995	0.0999	sub-23	1	sequence	stimulus	Haus	NaN	NaN	64.0	NaN	NaN	2.0	5.0	NaN	NaN	NaN	NaN	NaN
1038.0819654999996	0.0667	sub-23	1	sequence	interval	dot	NaN	NaN	NaN	NaN	NaN	NaN	NaN	NaN	NaN	NaN	NaN	NaN
1038.1486885000004	8.3884	sub-23	1	sequence	delay	dot	NaN	NaN	NaN	NaN	NaN	NaN	NaN	NaN	NaN	NaN	NaN	NaN
1046.5165707999995	0.7232	sub-23	1	sequence	choice	choice	right	NaN	NaN	0.6929174000006242	True	NaN	NaN	right	True	5.0	2.0	2.0
1047.2400971999996	0.4999	sub-23	1	sequence	feedback	NaN	NaN	NaN	NaN	NaN	NaN	NaN	NaN	NaN	NaN	NaN	NaN	NaN
1047.7402585	1.0005	sub-23	1	sequence	cue	Gesicht	NaN	NaN	NaN	NaN	NaN	NaN	NaN	NaN	NaN	NaN	NaN	NaN
1048.7407635	2.0016	sub-23	1	sequence	blank	blank	NaN	NaN	NaN	NaN	NaN	NaN	NaN	NaN	NaN	NaN	NaN	NaN
1050.7423273000004	0.3001	sub-23	1	sequence	fixation	dot	NaN	NaN	NaN	NaN	NaN	NaN	NaN	NaN	NaN	NaN	NaN	NaN
1051.0607779000002	0.1151	sub-23	1	sequence	stimulus	Schuh	NaN	NaN	512.0	NaN	NaN	4.0	1.0	NaN	NaN	NaN	NaN	NaN
1051.1758443	0.5173	sub-23	1	sequence	interval	dot	NaN	NaN	NaN	NaN	NaN	NaN	NaN	NaN	NaN	NaN	NaN	NaN
1051.6931157	0.1	sub-23	1	sequence	stimulus	Haus	NaN	NaN	512.0	NaN	NaN	2.0	2.0	NaN	NaN	NaN	NaN	NaN
1051.7930832000002	0.5171	sub-23	1	sequence	interval	dot	NaN	NaN	NaN	NaN	NaN	NaN	NaN	NaN	NaN	NaN	NaN	NaN
1052.3102253999996	0.1	sub-23	1	sequence	stimulus	Katze	NaN	NaN	512.0	NaN	NaN	3.0	3.0	NaN	NaN	NaN	NaN	NaN
1052.4101973999996	0.5172	sub-23	1	sequence	interval	dot	NaN	NaN	NaN	NaN	NaN	NaN	NaN	NaN	NaN	NaN	NaN	NaN
1052.9273930999998	0.1	sub-23	1	sequence	stimulus	Gesicht	NaN	NaN	512.0	NaN	NaN	1.0	4.0	NaN	NaN	NaN	NaN	NaN
1053.0273583999997	0.5173	sub-23	1	sequence	interval	dot	NaN	NaN	NaN	NaN	NaN	NaN	NaN	NaN	NaN	NaN	NaN	NaN
1053.5446656000004	0.0999	sub-23	1	sequence	stimulus	Stuhl	NaN	NaN	512.0	NaN	NaN	5.0	5.0	NaN	NaN	NaN	NaN	NaN
1053.6445433999995	0.5171	sub-23	1	sequence	interval	dot	NaN	NaN	NaN	NaN	NaN	NaN	NaN	NaN	NaN	NaN	NaN	NaN
1054.1616752999998	6.1532	sub-23	1	sequence	delay	dot	NaN	NaN	NaN	NaN	NaN	NaN	NaN	NaN	NaN	NaN	NaN	NaN
1060.2963203999998	0.8212	sub-23	1	sequence	choice	choice	left	NaN	NaN	0.7952422999996998	True	NaN	NaN	left	True	4.0	3.0	4.0
1061.1178627	0.4999	sub-23	1	sequence	feedback	NaN	NaN	NaN	NaN	NaN	NaN	NaN	NaN	NaN	NaN	NaN	NaN	NaN
1061.6179314	1.0007	sub-23	1	sequence	cue	Stuhl	NaN	NaN	NaN	NaN	NaN	NaN	NaN	NaN	NaN	NaN	NaN	NaN
1062.6185907999998	2.0015	sub-23	1	sequence	blank	blank	NaN	NaN	NaN	NaN	NaN	NaN	NaN	NaN	NaN	NaN	NaN	NaN
1064.6201460000002	0.3003	sub-23	1	sequence	fixation	dot	NaN	NaN	NaN	NaN	NaN	NaN	NaN	NaN	NaN	NaN	NaN	NaN
1064.9379121000002	0.0992	sub-23	1	sequence	stimulus	Gesicht	NaN	NaN	32.0	NaN	NaN	1.0	1.0	NaN	NaN	NaN	NaN	NaN
1065.0370632000004	0.0335	sub-23	1	sequence	interval	dot	NaN	NaN	NaN	NaN	NaN	NaN	NaN	NaN	NaN	NaN	NaN	NaN
1065.0705289999996	0.0999	sub-23	1	sequence	stimulus	Katze	NaN	NaN	32.0	NaN	NaN	3.0	2.0	NaN	NaN	NaN	NaN	NaN
1065.1704774	0.0335	sub-23	1	sequence	interval	dot	NaN	NaN	NaN	NaN	NaN	NaN	NaN	NaN	NaN	NaN	NaN	NaN
1065.2039808	0.1001	sub-23	1	sequence	stimulus	Haus	NaN	NaN	32.0	NaN	NaN	2.0	3.0	NaN	NaN	NaN	NaN	NaN
1065.3040837999995	0.0333	sub-23	1	sequence	interval	dot	NaN	NaN	NaN	NaN	NaN	NaN	NaN	NaN	NaN	NaN	NaN	NaN
1065.3374206	0.1	sub-23	1	sequence	stimulus	Stuhl	NaN	NaN	32.0	NaN	NaN	5.0	4.0	NaN	NaN	NaN	NaN	NaN
1065.4373736999996	0.0335	sub-23	1	sequence	interval	dot	NaN	NaN	NaN	NaN	NaN	NaN	NaN	NaN	NaN	NaN	NaN	NaN
1065.4708422000003	0.1	sub-23	1	sequence	stimulus	Schuh	NaN	NaN	32.0	NaN	NaN	4.0	5.0	NaN	NaN	NaN	NaN	NaN
1065.5708050000003	0.0334	sub-23	1	sequence	interval	dot	NaN	NaN	NaN	NaN	NaN	NaN	NaN	NaN	NaN	NaN	NaN	NaN
1065.6041877999996	8.5384	sub-23	1	sequence	delay	dot	NaN	NaN	NaN	NaN	NaN	NaN	NaN	NaN	NaN	NaN	NaN	NaN
1074.1279481	0.7506	sub-23	1	sequence	choice	choice	right	NaN	NaN	0.7274554999994507	True	NaN	NaN	right	True	3.0	4.0	4.0
1074.8787794	0.5001	sub-23	1	sequence	feedback	NaN	NaN	NaN	NaN	NaN	NaN	NaN	NaN	NaN	NaN	NaN	NaN	NaN
1075.3789919	1.0006	sub-23	1	sequence	cue	Stuhl	NaN	NaN	NaN	NaN	NaN	NaN	NaN	NaN	NaN	NaN	NaN	NaN
1076.3795839000004	2.0016	sub-23	1	sequence	blank	blank	NaN	NaN	NaN	NaN	NaN	NaN	NaN	NaN	NaN	NaN	NaN	NaN
1078.3811675999996	0.3003	sub-23	1	sequence	fixation	dot	NaN	NaN	NaN	NaN	NaN	NaN	NaN	NaN	NaN	NaN	NaN	NaN
1078.700919	0.114	sub-23	1	sequence	stimulus	Gesicht	NaN	NaN	32.0	NaN	NaN	1.0	1.0	NaN	NaN	NaN	NaN	NaN
1078.8149436000003	0.0334	sub-23	1	sequence	interval	dot	NaN	NaN	NaN	NaN	NaN	NaN	NaN	NaN	NaN	NaN	NaN	NaN
1078.8483367999995	0.0999	sub-23	1	sequence	stimulus	Haus	NaN	NaN	32.0	NaN	NaN	2.0	2.0	NaN	NaN	NaN	NaN	NaN
1078.9482774999997	0.0335	sub-23	1	sequence	interval	dot	NaN	NaN	NaN	NaN	NaN	NaN	NaN	NaN	NaN	NaN	NaN	NaN
1078.9817524	0.1	sub-23	1	sequence	stimulus	Schuh	NaN	NaN	32.0	NaN	NaN	4.0	3.0	NaN	NaN	NaN	NaN	NaN
1079.0817256	0.0335	sub-23	1	sequence	interval	dot	NaN	NaN	NaN	NaN	NaN	NaN	NaN	NaN	NaN	NaN	NaN	NaN
1079.1152015999996	0.1	sub-23	1	sequence	stimulus	Stuhl	NaN	NaN	32.0	NaN	NaN	5.0	4.0	NaN	NaN	NaN	NaN	NaN
1079.2151814	0.0335	sub-23	1	sequence	interval	dot	NaN	NaN	NaN	NaN	NaN	NaN	NaN	NaN	NaN	NaN	NaN	NaN
1079.248635	0.1	sub-23	1	sequence	stimulus	Katze	NaN	NaN	32.0	NaN	NaN	3.0	5.0	NaN	NaN	NaN	NaN	NaN
1079.3485977	0.0334	sub-23	1	sequence	interval	dot	NaN	NaN	NaN	NaN	NaN	NaN	NaN	NaN	NaN	NaN	NaN	NaN
1079.3819695000002	8.5385	sub-23	1	sequence	delay	dot	NaN	NaN	NaN	NaN	NaN	NaN	NaN	NaN	NaN	NaN	NaN	NaN
1087.9075858999995	0.7154	sub-23	1	sequence	choice	choice	left	NaN	NaN	0.6935225999995964	True	NaN	NaN	left	True	4.0	5.0	4.0
1088.6232848999998	0.5	sub-23	1	sequence	feedback	NaN	NaN	NaN	NaN	NaN	NaN	NaN	NaN	NaN	NaN	NaN	NaN	NaN
1089.1234292999998	1.0007	sub-23	1	sequence	cue	Stuhl	NaN	NaN	NaN	NaN	NaN	NaN	NaN	NaN	NaN	NaN	NaN	NaN
1090.1241252999998	2.0016	sub-23	1	sequence	blank	blank	NaN	NaN	NaN	NaN	NaN	NaN	NaN	NaN	NaN	NaN	NaN	NaN
1092.1257758000002	0.3002	sub-23	1	sequence	fixation	dot	NaN	NaN	NaN	NaN	NaN	NaN	NaN	NaN	NaN	NaN	NaN	NaN
1092.4443804000002	0.115	sub-23	1	sequence	stimulus	Schuh	NaN	NaN	512.0	NaN	NaN	4.0	1.0	NaN	NaN	NaN	NaN	NaN
1092.5594052999995	0.5171	sub-23	1	sequence	interval	dot	NaN	NaN	NaN	NaN	NaN	NaN	NaN	NaN	NaN	NaN	NaN	NaN
1093.0764877	0.0999	sub-23	1	sequence	stimulus	Haus	NaN	NaN	512.0	NaN	NaN	2.0	2.0	NaN	NaN	NaN	NaN	NaN
1093.1764204	0.5172	sub-23	1	sequence	interval	dot	NaN	NaN	NaN	NaN	NaN	NaN	NaN	NaN	NaN	NaN	NaN	NaN
1093.6936407000003	0.1	sub-23	1	sequence	stimulus	Katze	NaN	NaN	512.0	NaN	NaN	3.0	3.0	NaN	NaN	NaN	NaN	NaN
1093.7935963	0.5172	sub-23	1	sequence	interval	dot	NaN	NaN	NaN	NaN	NaN	NaN	NaN	NaN	NaN	NaN	NaN	NaN
1094.3107760000005	0.1	sub-23	1	sequence	stimulus	Stuhl	NaN	NaN	512.0	NaN	NaN	5.0	4.0	NaN	NaN	NaN	NaN	NaN
1094.4107837	0.5172	sub-23	1	sequence	interval	dot	NaN	NaN	NaN	NaN	NaN	NaN	NaN	NaN	NaN	NaN	NaN	NaN
1094.9279608999996	0.1	sub-23	1	sequence	stimulus	Gesicht	NaN	NaN	512.0	NaN	NaN	1.0	5.0	NaN	NaN	NaN	NaN	NaN
1095.0279483000004	0.5171	sub-23	1	sequence	interval	dot	NaN	NaN	NaN	NaN	NaN	NaN	NaN	NaN	NaN	NaN	NaN	NaN
1095.5450141	6.1532	sub-23	1	sequence	delay	dot	NaN	NaN	NaN	NaN	NaN	NaN	NaN	NaN	NaN	NaN	NaN	NaN
1101.6872218	0.7303	sub-23	1	sequence	choice	choice	left	NaN	NaN	0.7077206000003571	True	NaN	NaN	left	True	4.0	3.0	4.0
1102.4178163999995	0.5	sub-23	1	sequence	feedback	NaN	NaN	NaN	NaN	NaN	NaN	NaN	NaN	NaN	NaN	NaN	NaN	NaN
1102.9179913999997	1.0005	sub-23	1	sequence	cue	Stuhl	NaN	NaN	NaN	NaN	NaN	NaN	NaN	NaN	NaN	NaN	NaN	NaN
1103.9184727000002	2.0016	sub-23	1	sequence	blank	blank	NaN	NaN	NaN	NaN	NaN	NaN	NaN	NaN	NaN	NaN	NaN	NaN
1105.9200807999996	0.3002	sub-23	1	sequence	fixation	dot	NaN	NaN	NaN	NaN	NaN	NaN	NaN	NaN	NaN	NaN	NaN	NaN
1106.2378762999997	0.0992	sub-23	1	sequence	stimulus	Gesicht	NaN	NaN	128.0	NaN	NaN	1.0	1.0	NaN	NaN	NaN	NaN	NaN
1106.3371195999998	0.1335	sub-23	1	sequence	interval	dot	NaN	NaN	NaN	NaN	NaN	NaN	NaN	NaN	NaN	NaN	NaN	NaN
1106.4706244999998	0.0999	sub-23	1	sequence	stimulus	Katze	NaN	NaN	128.0	NaN	NaN	3.0	2.0	NaN	NaN	NaN	NaN	NaN
1106.5705590999996	0.1335	sub-23	1	sequence	interval	dot	NaN	NaN	NaN	NaN	NaN	NaN	NaN	NaN	NaN	NaN	NaN	NaN
1106.7041089000004	0.1	sub-23	1	sequence	stimulus	Stuhl	NaN	NaN	128.0	NaN	NaN	5.0	3.0	NaN	NaN	NaN	NaN	NaN
1106.8040883000003	0.1337	sub-23	1	sequence	interval	dot	NaN	NaN	NaN	NaN	NaN	NaN	NaN	NaN	NaN	NaN	NaN	NaN
1106.937804	0.0999	sub-23	1	sequence	stimulus	Schuh	NaN	NaN	128.0	NaN	NaN	4.0	4.0	NaN	NaN	NaN	NaN	NaN
1107.0377038999995	0.1335	sub-23	1	sequence	interval	dot	NaN	NaN	NaN	NaN	NaN	NaN	NaN	NaN	NaN	NaN	NaN	NaN
1107.1711850000002	0.1	sub-23	1	sequence	stimulus	Haus	NaN	NaN	128.0	NaN	NaN	2.0	5.0	NaN	NaN	NaN	NaN	NaN
1107.2712186	0.1334	sub-23	1	sequence	interval	dot	NaN	NaN	NaN	NaN	NaN	NaN	NaN	NaN	NaN	NaN	NaN	NaN
1107.4046001999995	8.0882	sub-23	1	sequence	delay	dot	NaN	NaN	NaN	NaN	NaN	NaN	NaN	NaN	NaN	NaN	NaN	NaN
1115.4669371999998	0.6615	sub-23	1	sequence	choice	choice	right	NaN	NaN	0.6251431000000593	True	NaN	NaN	right	True	5.0	3.0	3.0
1116.1287083999996	0.5001	sub-23	1	sequence	feedback	NaN	NaN	NaN	NaN	NaN	NaN	NaN	NaN	NaN	NaN	NaN	NaN	NaN
1116.6289911000003	1.0006	sub-23	1	sequence	cue	Schuh	NaN	NaN	NaN	NaN	NaN	NaN	NaN	NaN	NaN	NaN	NaN	NaN
1117.6296033	2.0015	sub-23	1	sequence	blank	blank	NaN	NaN	NaN	NaN	NaN	NaN	NaN	NaN	NaN	NaN	NaN	NaN
1119.6311378	0.3003	sub-23	1	sequence	fixation	dot	NaN	NaN	NaN	NaN	NaN	NaN	NaN	NaN	NaN	NaN	NaN	NaN
1119.9498033999998	0.115	sub-23	1	sequence	stimulus	Gesicht	NaN	NaN	128.0	NaN	NaN	1.0	1.0	NaN	NaN	NaN	NaN	NaN
1120.0648356000002	0.1335	sub-23	1	sequence	interval	dot	NaN	NaN	NaN	NaN	NaN	NaN	NaN	NaN	NaN	NaN	NaN	NaN
1120.1983687000002	0.1	sub-23	1	sequence	stimulus	Katze	NaN	NaN	128.0	NaN	NaN	3.0	2.0	NaN	NaN	NaN	NaN	NaN
1120.2983238999996	0.1336	sub-23	1	sequence	interval	dot	NaN	NaN	NaN	NaN	NaN	NaN	NaN	NaN	NaN	NaN	NaN	NaN
1120.4319041	0.0999	sub-23	1	sequence	stimulus	Schuh	NaN	NaN	128.0	NaN	NaN	4.0	3.0	NaN	NaN	NaN	NaN	NaN
1120.5318282999997	0.1336	sub-23	1	sequence	interval	dot	NaN	NaN	NaN	NaN	NaN	NaN	NaN	NaN	NaN	NaN	NaN	NaN
1120.6654288	0.1	sub-23	1	sequence	stimulus	Haus	NaN	NaN	128.0	NaN	NaN	2.0	4.0	NaN	NaN	NaN	NaN	NaN
1120.7653911999996	0.1335	sub-23	1	sequence	interval	dot	NaN	NaN	NaN	NaN	NaN	NaN	NaN	NaN	NaN	NaN	NaN	NaN
1120.8989217999997	0.1	sub-23	1	sequence	stimulus	Stuhl	NaN	NaN	128.0	NaN	NaN	5.0	5.0	NaN	NaN	NaN	NaN	NaN
1120.9988863	0.1335	sub-23	1	sequence	interval	dot	NaN	NaN	NaN	NaN	NaN	NaN	NaN	NaN	NaN	NaN	NaN	NaN
1121.1323376	8.0549	sub-23	1	sequence	delay	dot	NaN	NaN	NaN	NaN	NaN	NaN	NaN	NaN	NaN	NaN	NaN	NaN
1129.1686743	0.7043	sub-23	1	sequence	choice	choice	right	NaN	NaN	0.6746854000002713	True	NaN	NaN	right	True	4.0	3.0	3.0
1129.8732737	0.5	sub-23	1	sequence	feedback	NaN	NaN	NaN	NaN	NaN	NaN	NaN	NaN	NaN	NaN	NaN	NaN	NaN
1134.1941539999998	0.4993	sub-23	1	localizer	stimulus	Stuhl	NaN	180	2.768807299999935	0.7077401000005921	True	NaN	NaN	NaN	NaN	NaN	NaN	NaN
1134.6767779000002	2.7688	sub-23	1	localizer	blank	interval	NaN	NaN	NaN	NaN	NaN	NaN	NaN	NaN	NaN	NaN	NaN	NaN
1137.7466627000003	0.4995	sub-23	1	localizer	stimulus	Stuhl	NaN	0	2.0681205999999293	NaN	True	NaN	NaN	NaN	NaN	NaN	NaN	NaN
1138.2297001999996	2.0681	sub-23	1	localizer	blank	interval	NaN	NaN	NaN	NaN	NaN	NaN	NaN	NaN	NaN	NaN	NaN	NaN
1140.5989879999995	0.4994	sub-23	1	localizer	stimulus	Gesicht	NaN	0	2.8021388999995906	NaN	True	NaN	NaN	NaN	NaN	NaN	NaN	NaN
1141.0819140000003	2.8021	sub-23	1	localizer	blank	interval	NaN	NaN	NaN	NaN	NaN	NaN	NaN	NaN	NaN	NaN	NaN	NaN
1144.1852228999996	0.4995	sub-23	1	localizer	stimulus	Gesicht	NaN	0	2.7354127999997218	NaN	True	NaN	NaN	NaN	NaN	NaN	NaN	NaN
1144.6681310000004	2.7354	sub-23	1	localizer	blank	interval	NaN	NaN	NaN	NaN	NaN	NaN	NaN	NaN	NaN	NaN	NaN	NaN
1147.7046726	0.4995	sub-23	1	localizer	stimulus	Schuh	NaN	0	2.1682921999999962	NaN	True	NaN	NaN	NaN	NaN	NaN	NaN	NaN
1148.1876498	2.1683	sub-23	1	localizer	blank	interval	NaN	NaN	NaN	NaN	NaN	NaN	NaN	NaN	NaN	NaN	NaN	NaN
1150.6572656999997	0.4993	sub-23	1	localizer	stimulus	Gesicht	NaN	180	2.1683732999999847	0.4605872000001909	True	NaN	NaN	NaN	NaN	NaN	NaN	NaN
1151.1400591	2.1684	sub-23	1	localizer	blank	interval	NaN	NaN	NaN	NaN	NaN	NaN	NaN	NaN	NaN	NaN	NaN	NaN
1153.6095782000002	0.4996	sub-23	1	localizer	stimulus	Haus	NaN	0	2.9186993000002985	NaN	True	NaN	NaN	NaN	NaN	NaN	NaN	NaN
1154.0925798999997	2.9187	sub-23	1	localizer	blank	interval	NaN	NaN	NaN	NaN	NaN	NaN	NaN	NaN	NaN	NaN	NaN	NaN
1157.3124345999995	0.4996	sub-23	1	localizer	stimulus	Gesicht	NaN	0	3.3692643000003955	NaN	True	NaN	NaN	NaN	NaN	NaN	NaN	NaN
1157.7953860999996	3.3693	sub-23	1	localizer	blank	interval	NaN	NaN	NaN	NaN	NaN	NaN	NaN	NaN	NaN	NaN	NaN	NaN
1161.4657974000002	0.4996	sub-23	1	localizer	stimulus	Stuhl	NaN	0	2.3516434000002846	NaN	True	NaN	NaN	NaN	NaN	NaN	NaN	NaN
1161.9488801999996	2.3516	sub-23	1	localizer	blank	interval	NaN	NaN	NaN	NaN	NaN	NaN	NaN	NaN	NaN	NaN	NaN	NaN
1164.6016983	0.4995	sub-23	1	localizer	stimulus	Haus	NaN	0	2.4684308999994755	NaN	True	NaN	NaN	NaN	NaN	NaN	NaN	NaN
1165.0848083	2.4684	sub-23	1	localizer	blank	interval	NaN	NaN	NaN	NaN	NaN	NaN	NaN	NaN	NaN	NaN	NaN	NaN
1167.8543025	0.4996	sub-23	1	localizer	stimulus	Schuh	NaN	0	2.3185106000000815	NaN	True	NaN	NaN	NaN	NaN	NaN	NaN	NaN
1168.3372461	2.3185	sub-23	1	localizer	blank	interval	NaN	NaN	NaN	NaN	NaN	NaN	NaN	NaN	NaN	NaN	NaN	NaN
1170.9567937000002	0.4996	sub-23	1	localizer	stimulus	Schuh	NaN	180	2.0684009999995396	0.481008999999176	True	NaN	NaN	NaN	NaN	NaN	NaN	NaN
1171.4398492	2.0684	sub-23	1	localizer	blank	interval	NaN	NaN	NaN	NaN	NaN	NaN	NaN	NaN	NaN	NaN	NaN	NaN
1173.8091188999997	0.4976	sub-23	1	localizer	stimulus	Stuhl	NaN	0	2.1183406000000105	NaN	True	NaN	NaN	NaN	NaN	NaN	NaN	NaN
1174.2921536000003	2.1183	sub-23	1	localizer	blank	interval	NaN	NaN	NaN	NaN	NaN	NaN	NaN	NaN	NaN	NaN	NaN	NaN
1176.7114668000004	0.4995	sub-23	1	localizer	stimulus	Katze	NaN	0	1.9680888000002597	NaN	True	NaN	NaN	NaN	NaN	NaN	NaN	NaN
1177.1944194999996	1.9681	sub-23	1	localizer	blank	interval	NaN	NaN	NaN	NaN	NaN	NaN	NaN	NaN	NaN	NaN	NaN	NaN
1179.4637845999996	0.4994	sub-23	1	localizer	stimulus	Katze	NaN	0	2.5185590999999476	NaN	True	NaN	NaN	NaN	NaN	NaN	NaN	NaN
1179.9466198	2.5186	sub-23	1	localizer	blank	interval	NaN	NaN	NaN	NaN	NaN	NaN	NaN	NaN	NaN	NaN	NaN	NaN
1182.7663504000002	0.4995	sub-23	1	localizer	stimulus	Schuh	NaN	0	2.5519295000003694	NaN	True	NaN	NaN	NaN	NaN	NaN	NaN	NaN
