onset	duration	subject	session	condition	trial_type	stim_label	key_down	orientation	interval_time	response_time	accuracy	stim_index	serial_position	key_expected	key_pressed	choice_left	choice_right	choice_correct
1.260211399999207	1.3803	sub-19	1	instruction	instruction	language_selection	german	NaN	NaN	NaN	NaN	NaN	NaN	NaN	NaN	NaN	NaN	NaN
50.19627769999988	0.4995	sub-19	1	localizer	stimulus	Haus	NaN	0	2.018096400000104	NaN	1.0	NaN	NaN	NaN	NaN	NaN	NaN	NaN
50.679320899999766	2.0181	sub-19	1	localizer	blank	interval	NaN	NaN	NaN	NaN	NaN	NaN	NaN	NaN	NaN	NaN	NaN	NaN
52.99844929999927	0.4996	sub-19	1	localizer	stimulus	Schuh	NaN	0	3.2691837000002053	NaN	True	NaN	NaN	NaN	NaN	NaN	NaN	NaN
53.48150029999943	3.2692	sub-19	1	localizer	blank	interval	NaN	NaN	NaN	NaN	NaN	NaN	NaN	NaN	NaN	NaN	NaN	NaN
57.05179079999925	0.4995	sub-19	1	localizer	stimulus	Stuhl	NaN	180	2.285192999999701	0.5916267000002335	True	NaN	NaN	NaN	NaN	NaN	NaN	NaN
57.534735700000056	2.2852	sub-19	1	localizer	blank	interval	NaN	NaN	NaN	NaN	NaN	NaN	NaN	NaN	NaN	NaN	NaN	NaN
60.12093149999964	0.4996	sub-19	1	localizer	stimulus	Gesicht	NaN	0	3.335899199999403	NaN	True	NaN	NaN	NaN	NaN	NaN	NaN	NaN
60.603955399999904	3.3359	sub-19	1	localizer	blank	interval	NaN	NaN	NaN	NaN	NaN	NaN	NaN	NaN	NaN	NaN	NaN	NaN
64.23898969999937	0.5016	sub-19	1	localizer	stimulus	Schuh	NaN	180	2.1516647999997076	0.5645015999998577	True	NaN	NaN	NaN	NaN	NaN	NaN	NaN
64.72409199999947	2.1517	sub-19	1	localizer	blank	interval	NaN	NaN	NaN	NaN	NaN	NaN	NaN	NaN	NaN	NaN	NaN	NaN
67.17813939999996	0.5149	sub-19	1	localizer	stimulus	Haus	NaN	0	2.9519467999998596	NaN	True	NaN	NaN	NaN	NaN	NaN	NaN	NaN
67.65995229999953	2.9519	sub-19	1	localizer	blank	interval	NaN	NaN	NaN	NaN	NaN	NaN	NaN	NaN	NaN	NaN	NaN	NaN
70.91300039999987	0.4995	sub-19	1	localizer	stimulus	Haus	NaN	0	1.8680827999996836	NaN	True	NaN	NaN	NaN	NaN	NaN	NaN	NaN
71.39601949999997	1.8681	sub-19	1	localizer	blank	interval	NaN	NaN	NaN	NaN	NaN	NaN	NaN	NaN	NaN	NaN	NaN	NaN
73.56513649999943	0.4997	sub-19	1	localizer	stimulus	Gesicht	NaN	0	2.718832599999587	NaN	True	NaN	NaN	NaN	NaN	NaN	NaN	NaN
74.04815659999986	2.7188	sub-19	1	localizer	blank	interval	NaN	NaN	NaN	NaN	NaN	NaN	NaN	NaN	NaN	NaN	NaN	NaN
77.06794349999927	0.4995	sub-19	1	localizer	stimulus	Katze	NaN	0	2.451833699999952	0.4637790999995559	False	NaN	NaN	NaN	NaN	NaN	NaN	NaN
77.55101359999935	2.4518	sub-19	1	localizer	blank	interval	NaN	NaN	NaN	NaN	NaN	NaN	NaN	NaN	NaN	NaN	NaN	NaN
80.30389719999948	0.4997	sub-19	1	localizer	stimulus	Stuhl	NaN	0	1.8513161999999284	NaN	True	NaN	NaN	NaN	NaN	NaN	NaN	NaN
80.78697939999984	1.8513	sub-19	1	localizer	blank	interval	NaN	NaN	NaN	NaN	NaN	NaN	NaN	NaN	NaN	NaN	NaN	NaN
82.93941649999942	0.4995	sub-19	1	localizer	stimulus	Schuh	NaN	0	1.9515085000002728	NaN	True	NaN	NaN	NaN	NaN	NaN	NaN	NaN
83.42233839999972	1.9515	sub-19	1	localizer	blank	interval	NaN	NaN	NaN	NaN	NaN	NaN	NaN	NaN	NaN	NaN	NaN	NaN
85.6750936999997	0.4995	sub-19	1	localizer	stimulus	Gesicht	NaN	0	2.70228010000028	NaN	True	NaN	NaN	NaN	NaN	NaN	NaN	NaN
86.15806269999939	2.7023	sub-19	1	localizer	blank	interval	NaN	NaN	NaN	NaN	NaN	NaN	NaN	NaN	NaN	NaN	NaN	NaN
89.16138389999924	0.4994	sub-19	1	localizer	stimulus	Gesicht	NaN	0	2.6685624000001553	NaN	True	NaN	NaN	NaN	NaN	NaN	NaN	NaN
89.64423549999992	2.6686	sub-19	1	localizer	blank	interval	NaN	NaN	NaN	NaN	NaN	NaN	NaN	NaN	NaN	NaN	NaN	NaN
92.6139094	0.4995	sub-19	1	localizer	stimulus	Haus	NaN	0	2.752082500000114	NaN	True	NaN	NaN	NaN	NaN	NaN	NaN	NaN
93.09690619999948	2.7521	sub-19	1	localizer	blank	interval	NaN	NaN	NaN	NaN	NaN	NaN	NaN	NaN	NaN	NaN	NaN	NaN
96.15010019999954	0.4996	sub-19	1	localizer	stimulus	Katze	NaN	0	2.0348997000000963	NaN	True	NaN	NaN	NaN	NaN	NaN	NaN	NaN
96.63318809999964	2.0349	sub-19	1	localizer	blank	interval	NaN	NaN	NaN	NaN	NaN	NaN	NaN	NaN	NaN	NaN	NaN	NaN
98.96899469999973	0.4996	sub-19	1	localizer	stimulus	Katze	NaN	180	1.8847623000001619	0.522513799999615	True	NaN	NaN	NaN	NaN	NaN	NaN	NaN
99.45204779999948	1.8848	sub-19	1	localizer	blank	interval	NaN	NaN	NaN	NaN	NaN	NaN	NaN	NaN	NaN	NaN	NaN	NaN
101.63794729999972	0.4995	sub-19	1	localizer	stimulus	Schuh	NaN	0	2.868880099999842	NaN	True	NaN	NaN	NaN	NaN	NaN	NaN	NaN
102.12084219999996	2.8689	sub-19	1	localizer	blank	interval	NaN	NaN	NaN	NaN	NaN	NaN	NaN	NaN	NaN	NaN	NaN	NaN
105.2908297999993	0.4995	sub-19	1	localizer	stimulus	Schuh	NaN	0	2.1183742000003036	NaN	True	NaN	NaN	NaN	NaN	NaN	NaN	NaN
105.77384249999976	2.1184	sub-19	1	localizer	blank	interval	NaN	NaN	NaN	NaN	NaN	NaN	NaN	NaN	NaN	NaN	NaN	NaN
108.19320359999983	0.4996	sub-19	1	localizer	stimulus	Katze	NaN	0	1.4511167999999088	NaN	True	NaN	NaN	NaN	NaN	NaN	NaN	NaN
108.67630809999991	1.4511	sub-19	1	localizer	blank	interval	NaN	NaN	NaN	NaN	NaN	NaN	NaN	NaN	NaN	NaN	NaN	NaN
110.42852249999942	0.4995	sub-19	1	localizer	stimulus	Gesicht	NaN	180	2.0515298999998777	0.574990600000092	True	NaN	NaN	NaN	NaN	NaN	NaN	NaN
110.91130669999984	2.0515	sub-19	1	localizer	blank	interval	NaN	NaN	NaN	NaN	NaN	NaN	NaN	NaN	NaN	NaN	NaN	NaN
113.26394149999942	0.4997	sub-19	1	localizer	stimulus	Stuhl	NaN	0	1.7012555999999819	NaN	True	NaN	NaN	NaN	NaN	NaN	NaN	NaN
113.74694409999938	1.7013	sub-19	1	localizer	blank	interval	NaN	NaN	NaN	NaN	NaN	NaN	NaN	NaN	NaN	NaN	NaN	NaN
115.74932539999918	0.4995	sub-19	1	localizer	stimulus	Katze	NaN	0	2.985656299999377	NaN	True	NaN	NaN	NaN	NaN	NaN	NaN	NaN
116.23227270000008	2.9857	sub-19	1	localizer	blank	interval	NaN	NaN	NaN	NaN	NaN	NaN	NaN	NaN	NaN	NaN	NaN	NaN
119.51903969999968	0.4995	sub-19	1	localizer	stimulus	Haus	NaN	180	2.000968199999974	0.5324706999999762	True	NaN	NaN	NaN	NaN	NaN	NaN	NaN
120.00251509999998	2.001	sub-19	1	localizer	blank	interval	NaN	NaN	NaN	NaN	NaN	NaN	NaN	NaN	NaN	NaN	NaN	NaN
122.30459659999995	0.4996	sub-19	1	localizer	stimulus	Stuhl	NaN	0	3.0523536999999124	NaN	True	NaN	NaN	NaN	NaN	NaN	NaN	NaN
122.78757789999965	3.0524	sub-19	1	localizer	blank	interval	NaN	NaN	NaN	NaN	NaN	NaN	NaN	NaN	NaN	NaN	NaN	NaN
126.14102699999968	0.4996	sub-19	1	localizer	stimulus	Stuhl	NaN	0	2.1351205999999365	NaN	True	NaN	NaN	NaN	NaN	NaN	NaN	NaN
126.62402539999948	2.1351	sub-19	1	localizer	blank	interval	NaN	NaN	NaN	NaN	NaN	NaN	NaN	NaN	NaN	NaN	NaN	NaN
132.2454633999996	1.0005	sub-19	1	sequence	cue	Stuhl	NaN	NaN	NaN	NaN	NaN	NaN	NaN	NaN	NaN	NaN	NaN	NaN
133.24600539999938	2.0016	sub-19	1	sequence	blank	blank	NaN	NaN	NaN	NaN	NaN	NaN	NaN	NaN	NaN	NaN	NaN	NaN
135.24760439999957	0.3003	sub-19	1	sequence	fixation	dot	NaN	NaN	NaN	NaN	NaN	NaN	NaN	NaN	NaN	NaN	NaN	NaN
135.61266109999997	0.1022	sub-19	1	sequence	stimulus	Schuh	NaN	NaN	128.0	NaN	NaN	4.0	1.0	NaN	NaN	NaN	NaN	NaN
135.71482669999932	0.1334	sub-19	1	sequence	interval	dot	NaN	NaN	NaN	NaN	NaN	NaN	NaN	NaN	NaN	NaN	NaN	NaN
135.84823369999958	0.1	sub-19	1	sequence	stimulus	Haus	NaN	NaN	128.0	NaN	NaN	2.0	2.0	NaN	NaN	NaN	NaN	NaN
135.94820829999935	0.1336	sub-19	1	sequence	interval	dot	NaN	NaN	NaN	NaN	NaN	NaN	NaN	NaN	NaN	NaN	NaN	NaN
136.0818531999994	0.0999	sub-19	1	sequence	stimulus	Stuhl	NaN	NaN	128.0	NaN	NaN	5.0	3.0	NaN	NaN	NaN	NaN	NaN
136.1817102999994	0.1337	sub-19	1	sequence	interval	dot	NaN	NaN	NaN	NaN	NaN	NaN	NaN	NaN	NaN	NaN	NaN	NaN
136.3153726999999	0.0998	sub-19	1	sequence	stimulus	Gesicht	NaN	NaN	128.0	NaN	NaN	1.0	4.0	NaN	NaN	NaN	NaN	NaN
136.41521699999976	0.1336	sub-19	1	sequence	interval	dot	NaN	NaN	NaN	NaN	NaN	NaN	NaN	NaN	NaN	NaN	NaN	NaN
136.54880609999964	0.0999	sub-19	1	sequence	stimulus	Katze	NaN	NaN	128.0	NaN	NaN	3.0	5.0	NaN	NaN	NaN	NaN	NaN
136.64873809999972	0.1334	sub-19	1	sequence	interval	dot	NaN	NaN	NaN	NaN	NaN	NaN	NaN	NaN	NaN	NaN	NaN	NaN
136.78216939999947	8.0712	sub-19	1	sequence	delay	dot	NaN	NaN	NaN	NaN	NaN	NaN	NaN	NaN	NaN	NaN	NaN	NaN
144.82739309999943	0.7788	sub-19	1	sequence	choice	choice	left	NaN	NaN	0.7421879000003173	True	NaN	NaN	left	1.0	3.0	1.0	3.0
145.60652149999987	0.4999	sub-19	1	sequence	feedback	NaN	NaN	NaN	NaN	NaN	NaN	NaN	NaN	NaN	NaN	NaN	NaN	NaN
146.10654759999943	1.0007	sub-19	1	sequence	cue	Stuhl	NaN	NaN	NaN	NaN	NaN	NaN	NaN	NaN	NaN	NaN	NaN	NaN
147.10720589999983	2.0017	sub-19	1	sequence	blank	blank	NaN	NaN	NaN	NaN	NaN	NaN	NaN	NaN	NaN	NaN	NaN	NaN
149.10894849999931	0.3002	sub-19	1	sequence	fixation	dot	NaN	NaN	NaN	NaN	NaN	NaN	NaN	NaN	NaN	NaN	NaN	NaN
149.4269844999999	0.1157	sub-19	1	sequence	stimulus	Schuh	NaN	NaN	32.0	NaN	NaN	4.0	1.0	NaN	NaN	NaN	NaN	NaN
149.5426586999993	0.0335	sub-19	1	sequence	interval	dot	NaN	NaN	NaN	NaN	NaN	NaN	NaN	NaN	NaN	NaN	NaN	NaN
149.57611279999946	0.0999	sub-19	1	sequence	stimulus	Gesicht	NaN	NaN	32.0	NaN	NaN	1.0	2.0	NaN	NaN	NaN	NaN	NaN
149.6760566999992	0.0335	sub-19	1	sequence	interval	dot	NaN	NaN	NaN	NaN	NaN	NaN	NaN	NaN	NaN	NaN	NaN	NaN
149.7095522999998	0.0999	sub-19	1	sequence	stimulus	Katze	NaN	NaN	32.0	NaN	NaN	3.0	3.0	NaN	NaN	NaN	NaN	NaN
149.80948929999977	0.0335	sub-19	1	sequence	interval	dot	NaN	NaN	NaN	NaN	NaN	NaN	NaN	NaN	NaN	NaN	NaN	NaN
149.84299139999985	0.1	sub-19	1	sequence	stimulus	Stuhl	NaN	NaN	32.0	NaN	NaN	5.0	4.0	NaN	NaN	NaN	NaN	NaN
149.94303089999994	0.0334	sub-19	1	sequence	interval	dot	NaN	NaN	NaN	NaN	NaN	NaN	NaN	NaN	NaN	NaN	NaN	NaN
149.97642749999977	0.0999	sub-19	1	sequence	stimulus	Haus	NaN	NaN	32.0	NaN	NaN	2.0	5.0	NaN	NaN	NaN	NaN	NaN
150.0763591999994	0.0334	sub-19	1	sequence	interval	dot	NaN	NaN	NaN	NaN	NaN	NaN	NaN	NaN	NaN	NaN	NaN	NaN
150.10974259999966	8.5214	sub-19	1	sequence	delay	dot	NaN	NaN	NaN	NaN	NaN	NaN	NaN	NaN	NaN	NaN	NaN	NaN
158.6070968999993	0.7436	sub-19	1	sequence	choice	choice	right	NaN	NaN	0.716369400000076	True	NaN	NaN	right	True	2.0	4.0	4.0
159.3509457	0.5	sub-19	1	sequence	feedback	NaN	NaN	NaN	NaN	NaN	NaN	NaN	NaN	NaN	NaN	NaN	NaN	NaN
159.8511985999994	1.0005	sub-19	1	sequence	cue	Schuh	NaN	NaN	NaN	NaN	NaN	NaN	NaN	NaN	NaN	NaN	NaN	NaN
160.8516843999996	2.0016	sub-19	1	sequence	blank	blank	NaN	NaN	NaN	NaN	NaN	NaN	NaN	NaN	NaN	NaN	NaN	NaN
162.85331330000008	0.3004	sub-19	1	sequence	fixation	dot	NaN	NaN	NaN	NaN	NaN	NaN	NaN	NaN	NaN	NaN	NaN	NaN
163.18671189999986	0.1003	sub-19	1	sequence	stimulus	Stuhl	NaN	NaN	512.0	NaN	NaN	5.0	1.0	NaN	NaN	NaN	NaN	NaN
163.28706049999982	0.5171	sub-19	1	sequence	interval	dot	NaN	NaN	NaN	NaN	NaN	NaN	NaN	NaN	NaN	NaN	NaN	NaN
163.8042003999999	0.0999	sub-19	1	sequence	stimulus	Haus	NaN	NaN	512.0	NaN	NaN	2.0	2.0	NaN	NaN	NaN	NaN	NaN
163.90409649999947	0.5172	sub-19	1	sequence	interval	dot	NaN	NaN	NaN	NaN	NaN	NaN	NaN	NaN	NaN	NaN	NaN	NaN
164.42131659999995	0.1	sub-19	1	sequence	stimulus	Katze	NaN	NaN	512.0	NaN	NaN	3.0	3.0	NaN	NaN	NaN	NaN	NaN
164.52127500000006	0.5171	sub-19	1	sequence	interval	dot	NaN	NaN	NaN	NaN	NaN	NaN	NaN	NaN	NaN	NaN	NaN	NaN
165.03841659999944	0.1	sub-19	1	sequence	stimulus	Gesicht	NaN	NaN	512.0	NaN	NaN	1.0	4.0	NaN	NaN	NaN	NaN	NaN
165.13838579999992	0.5174	sub-19	1	sequence	interval	dot	NaN	NaN	NaN	NaN	NaN	NaN	NaN	NaN	NaN	NaN	NaN	NaN
165.65577080000003	0.0998	sub-19	1	sequence	stimulus	Schuh	NaN	NaN	512.0	NaN	NaN	4.0	5.0	NaN	NaN	NaN	NaN	NaN
165.75560009999936	0.5171	sub-19	1	sequence	interval	dot	NaN	NaN	NaN	NaN	NaN	NaN	NaN	NaN	NaN	NaN	NaN	NaN
166.27269989999968	6.1531	sub-19	1	sequence	delay	dot	NaN	NaN	NaN	NaN	NaN	NaN	NaN	NaN	NaN	NaN	NaN	NaN
172.41273739999997	0.8327	sub-19	1	sequence	choice	choice	left	NaN	NaN	0.8178596999996444	True	NaN	NaN	left	True	5.0	3.0	5.0
173.24575389999973	0.4999	sub-19	1	sequence	feedback	NaN	NaN	NaN	NaN	NaN	NaN	NaN	NaN	NaN	NaN	NaN	NaN	NaN
173.74589039999955	1.0005	sub-19	1	sequence	cue	Schuh	NaN	NaN	NaN	NaN	NaN	NaN	NaN	NaN	NaN	NaN	NaN	NaN
174.74635839999974	2.0015	sub-19	1	sequence	blank	blank	NaN	NaN	NaN	NaN	NaN	NaN	NaN	NaN	NaN	NaN	NaN	NaN
176.74789449999935	0.3004	sub-19	1	sequence	fixation	dot	NaN	NaN	NaN	NaN	NaN	NaN	NaN	NaN	NaN	NaN	NaN	NaN
177.06646049999927	0.1152	sub-19	1	sequence	stimulus	Gesicht	NaN	NaN	32.0	NaN	NaN	1.0	1.0	NaN	NaN	NaN	NaN	NaN
177.18164780000006	0.0334	sub-19	1	sequence	interval	dot	NaN	NaN	NaN	NaN	NaN	NaN	NaN	NaN	NaN	NaN	NaN	NaN
177.2150376999998	0.0999	sub-19	1	sequence	stimulus	Stuhl	NaN	NaN	32.0	NaN	NaN	5.0	2.0	NaN	NaN	NaN	NaN	NaN
177.3149810999994	0.0335	sub-19	1	sequence	interval	dot	NaN	NaN	NaN	NaN	NaN	NaN	NaN	NaN	NaN	NaN	NaN	NaN
177.34852939999928	0.0999	sub-19	1	sequence	stimulus	Haus	NaN	NaN	32.0	NaN	NaN	2.0	3.0	NaN	NaN	NaN	NaN	NaN
177.4484192	0.0336	sub-19	1	sequence	interval	dot	NaN	NaN	NaN	NaN	NaN	NaN	NaN	NaN	NaN	NaN	NaN	NaN
177.48202270000002	0.0998	sub-19	1	sequence	stimulus	Katze	NaN	NaN	32.0	NaN	NaN	3.0	4.0	NaN	NaN	NaN	NaN	NaN
177.58185090000006	0.0336	sub-19	1	sequence	interval	dot	NaN	NaN	NaN	NaN	NaN	NaN	NaN	NaN	NaN	NaN	NaN	NaN
177.61549809999997	0.0998	sub-19	1	sequence	stimulus	Schuh	NaN	NaN	32.0	NaN	NaN	4.0	5.0	NaN	NaN	NaN	NaN	NaN
177.71532339999976	0.0334	sub-19	1	sequence	interval	dot	NaN	NaN	NaN	NaN	NaN	NaN	NaN	NaN	NaN	NaN	NaN	NaN
177.74875969999994	8.5384	sub-19	1	sequence	delay	dot	NaN	NaN	NaN	NaN	NaN	NaN	NaN	NaN	NaN	NaN	NaN	NaN
186.27057869999956	0.8692	sub-19	1	sequence	choice	choice	right	NaN	NaN	0.8364993000004688	True	NaN	NaN	right	True	4.0	5.0	5.0
187.14007739999943	0.5	sub-19	1	sequence	feedback	NaN	NaN	NaN	NaN	NaN	NaN	NaN	NaN	NaN	NaN	NaN	NaN	NaN
187.6402077999992	1.0007	sub-19	1	sequence	cue	Gesicht	NaN	NaN	NaN	NaN	NaN	NaN	NaN	NaN	NaN	NaN	NaN	NaN
188.6409225999996	2.0017	sub-19	1	sequence	blank	blank	NaN	NaN	NaN	NaN	NaN	NaN	NaN	NaN	NaN	NaN	NaN	NaN
190.6426176999994	0.3004	sub-19	1	sequence	fixation	dot	NaN	NaN	NaN	NaN	NaN	NaN	NaN	NaN	NaN	NaN	NaN	NaN
190.9603561999993	0.0992	sub-19	1	sequence	stimulus	Schuh	NaN	NaN	128.0	NaN	NaN	4.0	1.0	NaN	NaN	NaN	NaN	NaN
191.0595721	0.1336	sub-19	1	sequence	interval	dot	NaN	NaN	NaN	NaN	NaN	NaN	NaN	NaN	NaN	NaN	NaN	NaN
191.1931404999996	0.1	sub-19	1	sequence	stimulus	Haus	NaN	NaN	128.0	NaN	NaN	2.0	2.0	NaN	NaN	NaN	NaN	NaN
191.2931172999997	0.1336	sub-19	1	sequence	interval	dot	NaN	NaN	NaN	NaN	NaN	NaN	NaN	NaN	NaN	NaN	NaN	NaN
191.42670499999983	0.0999	sub-19	1	sequence	stimulus	Stuhl	NaN	NaN	128.0	NaN	NaN	5.0	3.0	NaN	NaN	NaN	NaN	NaN
191.52664419999928	0.1335	sub-19	1	sequence	interval	dot	NaN	NaN	NaN	NaN	NaN	NaN	NaN	NaN	NaN	NaN	NaN	NaN
191.6601940999999	0.1	sub-19	1	sequence	stimulus	Katze	NaN	NaN	128.0	NaN	NaN	3.0	4.0	NaN	NaN	NaN	NaN	NaN
191.76019	0.1335	sub-19	1	sequence	interval	dot	NaN	NaN	NaN	NaN	NaN	NaN	NaN	NaN	NaN	NaN	NaN	NaN
191.8936827999996	0.1	sub-19	1	sequence	stimulus	Gesicht	NaN	NaN	128.0	NaN	NaN	1.0	5.0	NaN	NaN	NaN	NaN	NaN
191.99367019999957	0.1334	sub-19	1	sequence	interval	dot	NaN	NaN	NaN	NaN	NaN	NaN	NaN	NaN	NaN	NaN	NaN	NaN
192.12710369999968	8.0713	sub-19	1	sequence	delay	dot	NaN	NaN	NaN	NaN	NaN	NaN	NaN	NaN	NaN	NaN	NaN	NaN
200.18027989999973	0.754	sub-19	1	sequence	choice	choice	left	NaN	NaN	0.7251250999997865	True	NaN	NaN	left	True	5.0	3.0	5.0
200.93456479999983	0.5	sub-19	1	sequence	feedback	NaN	NaN	NaN	NaN	NaN	NaN	NaN	NaN	NaN	NaN	NaN	NaN	NaN
201.43475519999996	1.0006	sub-19	1	sequence	cue	Stuhl	NaN	NaN	NaN	NaN	NaN	NaN	NaN	NaN	NaN	NaN	NaN	NaN
202.43536979999956	2.0016	sub-19	1	sequence	blank	blank	NaN	NaN	NaN	NaN	NaN	NaN	NaN	NaN	NaN	NaN	NaN	NaN
204.43698649999988	0.3002	sub-19	1	sequence	fixation	dot	NaN	NaN	NaN	NaN	NaN	NaN	NaN	NaN	NaN	NaN	NaN	NaN
204.75576899999945	0.1149	sub-19	1	sequence	stimulus	Haus	NaN	NaN	64.0	NaN	NaN	2.0	1.0	NaN	NaN	NaN	NaN	NaN
204.87062789999985	0.0668	sub-19	1	sequence	interval	dot	NaN	NaN	NaN	NaN	NaN	NaN	NaN	NaN	NaN	NaN	NaN	NaN
204.9374558999998	0.1	sub-19	1	sequence	stimulus	Katze	NaN	NaN	64.0	NaN	NaN	3.0	2.0	NaN	NaN	NaN	NaN	NaN
205.03744759999967	0.0668	sub-19	1	sequence	interval	dot	NaN	NaN	NaN	NaN	NaN	NaN	NaN	NaN	NaN	NaN	NaN	NaN
205.1042566999995	0.1	sub-19	1	sequence	stimulus	Schuh	NaN	NaN	64.0	NaN	NaN	4.0	3.0	NaN	NaN	NaN	NaN	NaN
205.2042397999994	0.0668	sub-19	1	sequence	interval	dot	NaN	NaN	NaN	NaN	NaN	NaN	NaN	NaN	NaN	NaN	NaN	NaN
205.2710367	0.1001	sub-19	1	sequence	stimulus	Gesicht	NaN	NaN	64.0	NaN	NaN	1.0	4.0	NaN	NaN	NaN	NaN	NaN
205.37111529999947	0.0668	sub-19	1	sequence	interval	dot	NaN	NaN	NaN	NaN	NaN	NaN	NaN	NaN	NaN	NaN	NaN	NaN
205.43788159999983	0.1	sub-19	1	sequence	stimulus	Stuhl	NaN	NaN	64.0	NaN	NaN	5.0	5.0	NaN	NaN	NaN	NaN	NaN
205.5378522000001	0.0667	sub-19	1	sequence	interval	dot	NaN	NaN	NaN	NaN	NaN	NaN	NaN	NaN	NaN	NaN	NaN	NaN
205.6045729999996	8.3718	sub-19	1	sequence	delay	dot	NaN	NaN	NaN	NaN	NaN	NaN	NaN	NaN	NaN	NaN	NaN	NaN
213.9598363999994	1.0027	sub-19	1	sequence	choice	choice	right	NaN	NaN	0.9792813000003662	True	NaN	NaN	right	True	4.0	5.0	5.0
214.96276089999992	0.5	sub-19	1	sequence	feedback	NaN	NaN	NaN	NaN	NaN	NaN	NaN	NaN	NaN	NaN	NaN	NaN	NaN
215.46289669999987	1.0005	sub-19	1	sequence	cue	Stuhl	NaN	NaN	NaN	NaN	NaN	NaN	NaN	NaN	NaN	NaN	NaN	NaN
216.46339989999976	2.0017	sub-19	1	sequence	blank	blank	NaN	NaN	NaN	NaN	NaN	NaN	NaN	NaN	NaN	NaN	NaN	NaN
218.46508539999925	0.3002	sub-19	1	sequence	fixation	dot	NaN	NaN	NaN	NaN	NaN	NaN	NaN	NaN	NaN	NaN	NaN	NaN
218.78353029999928	0.115	sub-19	1	sequence	stimulus	Haus	NaN	NaN	512.0	NaN	NaN	2.0	1.0	NaN	NaN	NaN	NaN	NaN
218.89857559999928	0.5174	sub-19	1	sequence	interval	dot	NaN	NaN	NaN	NaN	NaN	NaN	NaN	NaN	NaN	NaN	NaN	NaN
219.4159841000001	0.0999	sub-19	1	sequence	stimulus	Stuhl	NaN	NaN	512.0	NaN	NaN	5.0	2.0	NaN	NaN	NaN	NaN	NaN
219.5158439999996	0.5173	sub-19	1	sequence	interval	dot	NaN	NaN	NaN	NaN	NaN	NaN	NaN	NaN	NaN	NaN	NaN	NaN
220.0331213999998	0.1	sub-19	1	sequence	stimulus	Katze	NaN	NaN	512.0	NaN	NaN	3.0	3.0	NaN	NaN	NaN	NaN	NaN
220.1331135999999	0.5171	sub-19	1	sequence	interval	dot	NaN	NaN	NaN	NaN	NaN	NaN	NaN	NaN	NaN	NaN	NaN	NaN
220.65026149999997	0.1	sub-19	1	sequence	stimulus	Gesicht	NaN	NaN	512.0	NaN	NaN	1.0	4.0	NaN	NaN	NaN	NaN	NaN
220.75024570000005	0.5172	sub-19	1	sequence	interval	dot	NaN	NaN	NaN	NaN	NaN	NaN	NaN	NaN	NaN	NaN	NaN	NaN
221.2674817999996	0.0999	sub-19	1	sequence	stimulus	Schuh	NaN	NaN	512.0	NaN	NaN	4.0	5.0	NaN	NaN	NaN	NaN	NaN
221.36738439999957	0.5171	sub-19	1	sequence	interval	dot	NaN	NaN	NaN	NaN	NaN	NaN	NaN	NaN	NaN	NaN	NaN	NaN
221.88445629999933	6.1367	sub-19	1	sequence	delay	dot	NaN	NaN	NaN	NaN	NaN	NaN	NaN	NaN	NaN	NaN	NaN	NaN
227.99964	0.8739	sub-19	1	sequence	choice	choice	right	NaN	NaN	0.8385232000000542	True	NaN	NaN	right	True	5.0	2.0	2.0
228.8738403999996	0.5001	sub-19	1	sequence	feedback	NaN	NaN	NaN	NaN	NaN	NaN	NaN	NaN	NaN	NaN	NaN	NaN	NaN
229.3741676	1.0005	sub-19	1	sequence	cue	Stuhl	NaN	NaN	NaN	NaN	NaN	NaN	NaN	NaN	NaN	NaN	NaN	NaN
230.3746293999993	2.0018	sub-19	1	sequence	blank	blank	NaN	NaN	NaN	NaN	NaN	NaN	NaN	NaN	NaN	NaN	NaN	NaN
232.3764408999996	0.3003	sub-19	1	sequence	fixation	dot	NaN	NaN	NaN	NaN	NaN	NaN	NaN	NaN	NaN	NaN	NaN	NaN
232.6941487999993	0.0992	sub-19	1	sequence	stimulus	Haus	NaN	NaN	64.0	NaN	NaN	2.0	1.0	NaN	NaN	NaN	NaN	NaN
232.7933648999997	0.0668	sub-19	1	sequence	interval	dot	NaN	NaN	NaN	NaN	NaN	NaN	NaN	NaN	NaN	NaN	NaN	NaN
232.86020779999944	0.1	sub-19	1	sequence	stimulus	Gesicht	NaN	NaN	64.0	NaN	NaN	1.0	2.0	NaN	NaN	NaN	NaN	NaN
232.96020559999943	0.0669	sub-19	1	sequence	interval	dot	NaN	NaN	NaN	NaN	NaN	NaN	NaN	NaN	NaN	NaN	NaN	NaN
233.0270800999997	0.0999	sub-19	1	sequence	stimulus	Katze	NaN	NaN	64.0	NaN	NaN	3.0	3.0	NaN	NaN	NaN	NaN	NaN
233.1269695000001	0.0668	sub-19	1	sequence	interval	dot	NaN	NaN	NaN	NaN	NaN	NaN	NaN	NaN	NaN	NaN	NaN	NaN
233.19381209999935	0.1	sub-19	1	sequence	stimulus	Stuhl	NaN	NaN	64.0	NaN	NaN	5.0	4.0	NaN	NaN	NaN	NaN	NaN
233.29376839999983	0.0669	sub-19	1	sequence	interval	dot	NaN	NaN	NaN	NaN	NaN	NaN	NaN	NaN	NaN	NaN	NaN	NaN
233.3606878999999	0.0999	sub-19	1	sequence	stimulus	Schuh	NaN	NaN	64.0	NaN	NaN	4.0	5.0	NaN	NaN	NaN	NaN	NaN
233.46060299999957	0.0667	sub-19	1	sequence	interval	dot	NaN	NaN	NaN	NaN	NaN	NaN	NaN	NaN	NaN	NaN	NaN	NaN
233.5273362999997	8.3715	sub-19	1	sequence	delay	dot	NaN	NaN	NaN	NaN	NaN	NaN	NaN	NaN	NaN	NaN	NaN	NaN
241.8833316	0.7013	sub-19	1	sequence	choice	choice	left	NaN	NaN	0.6807745000005525	True	NaN	NaN	left	True	4.0	2.0	4.0
242.58491129999948	0.5	sub-19	1	sequence	feedback	NaN	NaN	NaN	NaN	NaN	NaN	NaN	NaN	NaN	NaN	NaN	NaN	NaN
246.9056714999997	0.4994	sub-19	1	localizer	stimulus	Schuh	NaN	0	2.3183539000001474	NaN	True	NaN	NaN	NaN	NaN	NaN	NaN	NaN
247.38859969999976	2.3184	sub-19	1	localizer	blank	interval	NaN	NaN	NaN	NaN	NaN	NaN	NaN	NaN	NaN	NaN	NaN	NaN
250.00805339999988	0.4999	sub-19	1	localizer	stimulus	Haus	NaN	0	2.2181860000000313	NaN	True	NaN	NaN	NaN	NaN	NaN	NaN	NaN
250.4911599999996	2.2182	sub-19	1	localizer	blank	interval	NaN	NaN	NaN	NaN	NaN	NaN	NaN	NaN	NaN	NaN	NaN	NaN
253.0105943999997	0.4995	sub-19	1	localizer	stimulus	Stuhl	NaN	0	3.3860110999994504	NaN	True	NaN	NaN	NaN	NaN	NaN	NaN	NaN
253.49359749999985	3.386	sub-19	1	localizer	blank	interval	NaN	NaN	NaN	NaN	NaN	NaN	NaN	NaN	NaN	NaN	NaN	NaN
257.1807020999995	0.4993	sub-19	1	localizer	stimulus	Haus	NaN	180	2.9522563999998965	NaN	False	NaN	NaN	NaN	NaN	NaN	NaN	NaN
257.66350669999974	2.9523	sub-19	1	localizer	blank	interval	NaN	NaN	NaN	NaN	NaN	NaN	NaN	NaN	NaN	NaN	NaN	NaN
260.9171554999993	0.4992	sub-19	1	localizer	stimulus	Katze	NaN	0	2.8690026000003854	NaN	True	NaN	NaN	NaN	NaN	NaN	NaN	NaN
261.3998490999993	2.869	sub-19	1	localizer	blank	interval	NaN	NaN	NaN	NaN	NaN	NaN	NaN	NaN	NaN	NaN	NaN	NaN
264.5698211999997	0.4996	sub-19	1	localizer	stimulus	Katze	NaN	0	2.568517900000188	NaN	True	NaN	NaN	NaN	NaN	NaN	NaN	NaN
265.0529442999996	2.5685	sub-19	1	localizer	blank	interval	NaN	NaN	NaN	NaN	NaN	NaN	NaN	NaN	NaN	NaN	NaN	NaN
267.9225397	0.4996	sub-19	1	localizer	stimulus	Haus	NaN	0	2.7687943000000814	NaN	True	NaN	NaN	NaN	NaN	NaN	NaN	NaN
268.4055445999993	2.7688	sub-19	1	localizer	blank	interval	NaN	NaN	NaN	NaN	NaN	NaN	NaN	NaN	NaN	NaN	NaN	NaN
271.47540579999986	0.4997	sub-19	1	localizer	stimulus	Gesicht	NaN	0	2.385338799999772	NaN	True	NaN	NaN	NaN	NaN	NaN	NaN	NaN
271.95839669999987	2.3853	sub-19	1	localizer	blank	interval	NaN	NaN	NaN	NaN	NaN	NaN	NaN	NaN	NaN	NaN	NaN	NaN
274.64481909999995	0.4996	sub-19	1	localizer	stimulus	Haus	NaN	0	2.5521269000000757	NaN	True	NaN	NaN	NaN	NaN	NaN	NaN	NaN
275.1277793999998	2.5521	sub-19	1	localizer	blank	interval	NaN	NaN	NaN	NaN	NaN	NaN	NaN	NaN	NaN	NaN	NaN	NaN
277.9809071	0.4993	sub-19	1	localizer	stimulus	Haus	NaN	0	1.9514493000006041	NaN	True	NaN	NaN	NaN	NaN	NaN	NaN	NaN
278.4636926999992	1.9514	sub-19	1	localizer	blank	interval	NaN	NaN	NaN	NaN	NaN	NaN	NaN	NaN	NaN	NaN	NaN	NaN
280.7162172999997	0.4995	sub-19	1	localizer	stimulus	Schuh	NaN	0	2.7522320999997305	NaN	True	NaN	NaN	NaN	NaN	NaN	NaN	NaN
281.1992393999999	2.7522	sub-19	1	localizer	blank	interval	NaN	NaN	NaN	NaN	NaN	NaN	NaN	NaN	NaN	NaN	NaN	NaN
284.25243279999995	0.4995	sub-19	1	localizer	stimulus	Gesicht	NaN	180	2.685367099999894	0.5351040999994439	True	NaN	NaN	NaN	NaN	NaN	NaN	NaN
284.7354179999993	2.6854	sub-19	1	localizer	blank	interval	NaN	NaN	NaN	NaN	NaN	NaN	NaN	NaN	NaN	NaN	NaN	NaN
287.7218907999995	0.4995	sub-19	1	localizer	stimulus	Stuhl	NaN	0	2.3684990000001562	NaN	True	NaN	NaN	NaN	NaN	NaN	NaN	NaN
288.20498729999963	2.3685	sub-19	1	localizer	blank	interval	NaN	NaN	NaN	NaN	NaN	NaN	NaN	NaN	NaN	NaN	NaN	NaN
290.87442999999985	0.4996	sub-19	1	localizer	stimulus	Katze	NaN	0	2.3851230999998734	NaN	True	NaN	NaN	NaN	NaN	NaN	NaN	NaN
291.35756219999985	2.3851	sub-19	1	localizer	blank	interval	NaN	NaN	NaN	NaN	NaN	NaN	NaN	NaN	NaN	NaN	NaN	NaN
294.04369270000007	0.4995	sub-19	1	localizer	stimulus	Gesicht	NaN	0	2.1182532999991963	0.4878747000002477	False	NaN	NaN	NaN	NaN	NaN	NaN	NaN
294.5267973	2.1183	sub-19	1	localizer	blank	interval	NaN	NaN	NaN	NaN	NaN	NaN	NaN	NaN	NaN	NaN	NaN	NaN
296.9460623999994	0.5164	sub-19	1	localizer	stimulus	Gesicht	NaN	0	2.003455600000052	NaN	True	NaN	NaN	NaN	NaN	NaN	NaN	NaN
297.42718539999987	2.0035	sub-19	1	localizer	blank	interval	NaN	NaN	NaN	NaN	NaN	NaN	NaN	NaN	NaN	NaN	NaN	NaN
299.73157509999965	0.4997	sub-19	1	localizer	stimulus	Schuh	NaN	180	2.5851778999995076	0.6719637000005605	True	NaN	NaN	NaN	NaN	NaN	NaN	NaN
300.2147710999998	2.5852	sub-19	1	localizer	blank	interval	NaN	NaN	NaN	NaN	NaN	NaN	NaN	NaN	NaN	NaN	NaN	NaN
303.10102800000004	0.4996	sub-19	1	localizer	stimulus	Katze	NaN	0	1.9015105999997104	NaN	True	NaN	NaN	NaN	NaN	NaN	NaN	NaN
303.5839933999996	1.9015	sub-19	1	localizer	blank	interval	NaN	NaN	NaN	NaN	NaN	NaN	NaN	NaN	NaN	NaN	NaN	NaN
305.78647920000003	0.4996	sub-19	1	localizer	stimulus	Stuhl	NaN	180	1.68474519999927	0.5850424999998722	True	NaN	NaN	NaN	NaN	NaN	NaN	NaN
306.2694867	1.6847	sub-19	1	localizer	blank	interval	NaN	NaN	NaN	NaN	NaN	NaN	NaN	NaN	NaN	NaN	NaN	NaN
308.2551917999999	0.4996	sub-19	1	localizer	stimulus	Stuhl	NaN	0	3.469300800000383	NaN	True	NaN	NaN	NaN	NaN	NaN	NaN	NaN
308.7382831999994	3.4693	sub-19	1	localizer	blank	interval	NaN	NaN	NaN	NaN	NaN	NaN	NaN	NaN	NaN	NaN	NaN	NaN
312.5087279999998	0.4995	sub-19	1	localizer	stimulus	Gesicht	NaN	0	2.218358299999636	NaN	True	NaN	NaN	NaN	NaN	NaN	NaN	NaN
312.9916156999998	2.2184	sub-19	1	localizer	blank	interval	NaN	NaN	NaN	NaN	NaN	NaN	NaN	NaN	NaN	NaN	NaN	NaN
315.51122399999986	0.4995	sub-19	1	localizer	stimulus	Katze	NaN	180	2.0016057000002547	0.6043061000000307	True	NaN	NaN	NaN	NaN	NaN	NaN	NaN
315.9942168999996	2.0016	sub-19	1	localizer	blank	interval	NaN	NaN	NaN	NaN	NaN	NaN	NaN	NaN	NaN	NaN	NaN	NaN
318.29674559999967	0.5143	sub-19	1	localizer	stimulus	Schuh	NaN	0	2.5538610000003246	NaN	True	NaN	NaN	NaN	NaN	NaN	NaN	NaN
318.77772789999926	2.5539	sub-19	1	localizer	blank	interval	NaN	NaN	NaN	NaN	NaN	NaN	NaN	NaN	NaN	NaN	NaN	NaN
321.6326646999996	0.4995	sub-19	1	localizer	stimulus	Schuh	NaN	0	2.4851943000003303	NaN	True	NaN	NaN	NaN	NaN	NaN	NaN	NaN
322.1157287999995	2.4852	sub-19	1	localizer	blank	interval	NaN	NaN	NaN	NaN	NaN	NaN	NaN	NaN	NaN	NaN	NaN	NaN
324.9019785999999	0.4996	sub-19	1	localizer	stimulus	Stuhl	NaN	0	1.9848611000006713	NaN	True	NaN	NaN	NaN	NaN	NaN	NaN	NaN
325.3849470999994	1.9849	sub-19	1	localizer	blank	interval	NaN	NaN	NaN	NaN	NaN	NaN	NaN	NaN	NaN	NaN	NaN	NaN
330.85628369999995	1.0005	sub-19	1	sequence	cue	Katze	NaN	NaN	NaN	NaN	NaN	NaN	NaN	NaN	NaN	NaN	NaN	NaN
331.85682989999987	2.0016	sub-19	1	sequence	blank	blank	NaN	NaN	NaN	NaN	NaN	NaN	NaN	NaN	NaN	NaN	NaN	NaN
333.85844689999976	0.3002	sub-19	1	sequence	fixation	dot	NaN	NaN	NaN	NaN	NaN	NaN	NaN	NaN	NaN	NaN	NaN	NaN
334.1761945999997	0.0992	sub-19	1	sequence	stimulus	Haus	NaN	NaN	64.0	NaN	NaN	2.0	1.0	NaN	NaN	NaN	NaN	NaN
334.2754385999997	0.0668	sub-19	1	sequence	interval	dot	NaN	NaN	NaN	NaN	NaN	NaN	NaN	NaN	NaN	NaN	NaN	NaN
334.3422774999999	0.0999	sub-19	1	sequence	stimulus	Gesicht	NaN	NaN	64.0	NaN	NaN	1.0	2.0	NaN	NaN	NaN	NaN	NaN
334.44222420000006	0.0668	sub-19	1	sequence	interval	dot	NaN	NaN	NaN	NaN	NaN	NaN	NaN	NaN	NaN	NaN	NaN	NaN
334.5090526999993	0.0999	sub-19	1	sequence	stimulus	Katze	NaN	NaN	64.0	NaN	NaN	3.0	3.0	NaN	NaN	NaN	NaN	NaN
334.60899939999945	0.0669	sub-19	1	sequence	interval	dot	NaN	NaN	NaN	NaN	NaN	NaN	NaN	NaN	NaN	NaN	NaN	NaN
334.6758667999993	0.0999	sub-19	1	sequence	stimulus	Stuhl	NaN	NaN	64.0	NaN	NaN	5.0	4.0	NaN	NaN	NaN	NaN	NaN
334.7758114999997	0.0669	sub-19	1	sequence	interval	dot	NaN	NaN	NaN	NaN	NaN	NaN	NaN	NaN	NaN	NaN	NaN	NaN
334.8426690999995	0.1	sub-19	1	sequence	stimulus	Schuh	NaN	NaN	64.0	NaN	NaN	4.0	5.0	NaN	NaN	NaN	NaN	NaN
334.9426466999994	0.0667	sub-19	1	sequence	interval	dot	NaN	NaN	NaN	NaN	NaN	NaN	NaN	NaN	NaN	NaN	NaN	NaN
335.0093315999993	8.3721	sub-19	1	sequence	delay	dot	NaN	NaN	NaN	NaN	NaN	NaN	NaN	NaN	NaN	NaN	NaN	NaN
343.35914179999963	0.7745	sub-19	1	sequence	choice	choice	left	NaN	NaN	0.7421592000000601	True	NaN	NaN	left	True	3.0	2.0	3.0
344.13397949999944	0.4999	sub-19	1	sequence	feedback	NaN	NaN	NaN	NaN	NaN	NaN	NaN	NaN	NaN	NaN	NaN	NaN	NaN
344.6341259999999	1.0006	sub-19	1	sequence	cue	Schuh	NaN	NaN	NaN	NaN	NaN	NaN	NaN	NaN	NaN	NaN	NaN	NaN
345.6346974999997	2.0016	sub-19	1	sequence	blank	blank	NaN	NaN	NaN	NaN	NaN	NaN	NaN	NaN	NaN	NaN	NaN	NaN
347.6362663	0.3004	sub-19	1	sequence	fixation	dot	NaN	NaN	NaN	NaN	NaN	NaN	NaN	NaN	NaN	NaN	NaN	NaN
347.9549490999998	0.1149	sub-19	1	sequence	stimulus	Gesicht	NaN	NaN	32.0	NaN	NaN	1.0	1.0	NaN	NaN	NaN	NaN	NaN
348.0698990000001	0.0335	sub-19	1	sequence	interval	dot	NaN	NaN	NaN	NaN	NaN	NaN	NaN	NaN	NaN	NaN	NaN	NaN
348.10339209999984	0.1	sub-19	1	sequence	stimulus	Stuhl	NaN	NaN	32.0	NaN	NaN	5.0	2.0	NaN	NaN	NaN	NaN	NaN
348.20335199999954	0.0335	sub-19	1	sequence	interval	dot	NaN	NaN	NaN	NaN	NaN	NaN	NaN	NaN	NaN	NaN	NaN	NaN
348.2368755999996	0.0999	sub-19	1	sequence	stimulus	Haus	NaN	NaN	32.0	NaN	NaN	2.0	3.0	NaN	NaN	NaN	NaN	NaN
348.33681759999945	0.0335	sub-19	1	sequence	interval	dot	NaN	NaN	NaN	NaN	NaN	NaN	NaN	NaN	NaN	NaN	NaN	NaN
348.3702942	0.0999	sub-19	1	sequence	stimulus	Katze	NaN	NaN	32.0	NaN	NaN	3.0	4.0	NaN	NaN	NaN	NaN	NaN
348.47023349999927	0.0335	sub-19	1	sequence	interval	dot	NaN	NaN	NaN	NaN	NaN	NaN	NaN	NaN	NaN	NaN	NaN	NaN
348.5036969999992	0.1	sub-19	1	sequence	stimulus	Schuh	NaN	NaN	32.0	NaN	NaN	4.0	5.0	NaN	NaN	NaN	NaN	NaN
348.60367119999955	0.0334	sub-19	1	sequence	interval	dot	NaN	NaN	NaN	NaN	NaN	NaN	NaN	NaN	NaN	NaN	NaN	NaN
348.63705149999987	8.5218	sub-19	1	sequence	delay	dot	NaN	NaN	NaN	NaN	NaN	NaN	NaN	NaN	NaN	NaN	NaN	NaN
357.13880269999936	0.8228	sub-19	1	sequence	choice	choice	right	NaN	NaN	0.7887581000004502	True	NaN	NaN	right	True	3.0	5.0	5.0
357.9618461	0.5	sub-19	1	sequence	feedback	NaN	NaN	NaN	NaN	NaN	NaN	NaN	NaN	NaN	NaN	NaN	NaN	NaN
358.4619606999995	1.0007	sub-19	1	sequence	cue	Gesicht	NaN	NaN	NaN	NaN	NaN	NaN	NaN	NaN	NaN	NaN	NaN	NaN
359.4626441999999	2.0017	sub-19	1	sequence	blank	blank	NaN	NaN	NaN	NaN	NaN	NaN	NaN	NaN	NaN	NaN	NaN	NaN
361.46437849999984	0.3002	sub-19	1	sequence	fixation	dot	NaN	NaN	NaN	NaN	NaN	NaN	NaN	NaN	NaN	NaN	NaN	NaN
361.782851	0.1152	sub-19	1	sequence	stimulus	Stuhl	NaN	NaN	512.0	NaN	NaN	5.0	1.0	NaN	NaN	NaN	NaN	NaN
361.89802169999984	0.517	sub-19	1	sequence	interval	dot	NaN	NaN	NaN	NaN	NaN	NaN	NaN	NaN	NaN	NaN	NaN	NaN
362.4150057999996	0.1	sub-19	1	sequence	stimulus	Haus	NaN	NaN	512.0	NaN	NaN	2.0	2.0	NaN	NaN	NaN	NaN	NaN
362.5150438999999	0.5172	sub-19	1	sequence	interval	dot	NaN	NaN	NaN	NaN	NaN	NaN	NaN	NaN	NaN	NaN	NaN	NaN
363.0322434	0.1	sub-19	1	sequence	stimulus	Katze	NaN	NaN	512.0	NaN	NaN	3.0	3.0	NaN	NaN	NaN	NaN	NaN
363.1322163999994	0.5171	sub-19	1	sequence	interval	dot	NaN	NaN	NaN	NaN	NaN	NaN	NaN	NaN	NaN	NaN	NaN	NaN
363.64931569999953	0.0999	sub-19	1	sequence	stimulus	Gesicht	NaN	NaN	512.0	NaN	NaN	1.0	4.0	NaN	NaN	NaN	NaN	NaN
363.7492637999994	0.5172	sub-19	1	sequence	interval	dot	NaN	NaN	NaN	NaN	NaN	NaN	NaN	NaN	NaN	NaN	NaN	NaN
364.2664933999995	0.1	sub-19	1	sequence	stimulus	Schuh	NaN	NaN	512.0	NaN	NaN	4.0	5.0	NaN	NaN	NaN	NaN	NaN
364.36645319999934	0.5171	sub-19	1	sequence	interval	dot	NaN	NaN	NaN	NaN	NaN	NaN	NaN	NaN	NaN	NaN	NaN	NaN
364.88352739999937	6.1532	sub-19	1	sequence	delay	dot	NaN	NaN	NaN	NaN	NaN	NaN	NaN	NaN	NaN	NaN	NaN	NaN
371.02253569999993	0.9002	sub-19	1	sequence	choice	choice	right	NaN	NaN	0.870907100000295	True	NaN	NaN	right	True	2.0	4.0	4.0
371.9230300999998	0.5001	sub-19	1	sequence	feedback	NaN	NaN	NaN	NaN	NaN	NaN	NaN	NaN	NaN	NaN	NaN	NaN	NaN
372.42326950000006	1.0006	sub-19	1	sequence	cue	Gesicht	NaN	NaN	NaN	NaN	NaN	NaN	NaN	NaN	NaN	NaN	NaN	NaN
373.4238700999995	2.0016	sub-19	1	sequence	blank	blank	NaN	NaN	NaN	NaN	NaN	NaN	NaN	NaN	NaN	NaN	NaN	NaN
375.4254838999996	0.3002	sub-19	1	sequence	fixation	dot	NaN	NaN	NaN	NaN	NaN	NaN	NaN	NaN	NaN	NaN	NaN	NaN
375.7432218999993	0.0992	sub-19	1	sequence	stimulus	Schuh	NaN	NaN	128.0	NaN	NaN	4.0	1.0	NaN	NaN	NaN	NaN	NaN
375.8424123999994	0.1337	sub-19	1	sequence	interval	dot	NaN	NaN	NaN	NaN	NaN	NaN	NaN	NaN	NaN	NaN	NaN	NaN
375.9761572999996	0.0999	sub-19	1	sequence	stimulus	Haus	NaN	NaN	128.0	NaN	NaN	2.0	2.0	NaN	NaN	NaN	NaN	NaN
376.0760489999993	0.1336	sub-19	1	sequence	interval	dot	NaN	NaN	NaN	NaN	NaN	NaN	NaN	NaN	NaN	NaN	NaN	NaN
376.2096363999999	0.0998	sub-19	1	sequence	stimulus	Stuhl	NaN	NaN	128.0	NaN	NaN	5.0	3.0	NaN	NaN	NaN	NaN	NaN
376.3094617999996	0.1336	sub-19	1	sequence	interval	dot	NaN	NaN	NaN	NaN	NaN	NaN	NaN	NaN	NaN	NaN	NaN	NaN
376.4430287999994	0.1001	sub-19	1	sequence	stimulus	Gesicht	NaN	NaN	128.0	NaN	NaN	1.0	4.0	NaN	NaN	NaN	NaN	NaN
376.5431265999996	0.1335	sub-19	1	sequence	interval	dot	NaN	NaN	NaN	NaN	NaN	NaN	NaN	NaN	NaN	NaN	NaN	NaN
376.67664629999945	0.1	sub-19	1	sequence	stimulus	Katze	NaN	NaN	128.0	NaN	NaN	3.0	5.0	NaN	NaN	NaN	NaN	NaN
376.7766182999994	0.1334	sub-19	1	sequence	interval	dot	NaN	NaN	NaN	NaN	NaN	NaN	NaN	NaN	NaN	NaN	NaN	NaN
376.91005959999984	8.0713	sub-19	1	sequence	delay	dot	NaN	NaN	NaN	NaN	NaN	NaN	NaN	NaN	NaN	NaN	NaN	NaN
384.9582213999993	0.9592	sub-19	1	sequence	choice	choice	left	NaN	NaN	0.9343344999997498	True	NaN	NaN	left	True	4.0	2.0	4.0
385.9176889999999	0.5001	sub-19	1	sequence	feedback	NaN	NaN	NaN	NaN	NaN	NaN	NaN	NaN	NaN	NaN	NaN	NaN	NaN
386.4179375999993	1.0006	sub-19	1	sequence	cue	Gesicht	NaN	NaN	NaN	NaN	NaN	NaN	NaN	NaN	NaN	NaN	NaN	NaN
387.4185127999999	2.0017	sub-19	1	sequence	blank	blank	NaN	NaN	NaN	NaN	NaN	NaN	NaN	NaN	NaN	NaN	NaN	NaN
389.4202274999998	0.3002	sub-19	1	sequence	fixation	dot	NaN	NaN	NaN	NaN	NaN	NaN	NaN	NaN	NaN	NaN	NaN	NaN
389.7378824999996	0.0992	sub-19	1	sequence	stimulus	Haus	NaN	NaN	64.0	NaN	NaN	2.0	1.0	NaN	NaN	NaN	NaN	NaN
389.8370895999997	0.0668	sub-19	1	sequence	interval	dot	NaN	NaN	NaN	NaN	NaN	NaN	NaN	NaN	NaN	NaN	NaN	NaN
389.9039335999996	0.1	sub-19	1	sequence	stimulus	Katze	NaN	NaN	64.0	NaN	NaN	3.0	2.0	NaN	NaN	NaN	NaN	NaN
390.00389839999934	0.0668	sub-19	1	sequence	interval	dot	NaN	NaN	NaN	NaN	NaN	NaN	NaN	NaN	NaN	NaN	NaN	NaN
390.0707109999994	0.1	sub-19	1	sequence	stimulus	Schuh	NaN	NaN	64.0	NaN	NaN	4.0	3.0	NaN	NaN	NaN	NaN	NaN
390.1706761999994	0.0669	sub-19	1	sequence	interval	dot	NaN	NaN	NaN	NaN	NaN	NaN	NaN	NaN	NaN	NaN	NaN	NaN
390.2375360999995	0.1	sub-19	1	sequence	stimulus	Gesicht	NaN	NaN	64.0	NaN	NaN	1.0	4.0	NaN	NaN	NaN	NaN	NaN
390.3374889999996	0.0668	sub-19	1	sequence	interval	dot	NaN	NaN	NaN	NaN	NaN	NaN	NaN	NaN	NaN	NaN	NaN	NaN
390.4043118	0.1	sub-19	1	sequence	stimulus	Stuhl	NaN	NaN	64.0	NaN	NaN	5.0	5.0	NaN	NaN	NaN	NaN	NaN
390.5042790999996	0.0668	sub-19	1	sequence	interval	dot	NaN	NaN	NaN	NaN	NaN	NaN	NaN	NaN	NaN	NaN	NaN	NaN
390.57107689999975	8.3717	sub-19	1	sequence	delay	dot	NaN	NaN	NaN	NaN	NaN	NaN	NaN	NaN	NaN	NaN	NaN	NaN
398.9199057999994	1.0256	sub-19	1	sequence	choice	choice	right	NaN	NaN	0.996998600000552	True	NaN	NaN	right	True	5.0	4.0	4.0
399.9457886999999	0.5	sub-19	1	sequence	feedback	NaN	NaN	NaN	NaN	NaN	NaN	NaN	NaN	NaN	NaN	NaN	NaN	NaN
400.4459595999997	1.0007	sub-19	1	sequence	cue	Haus	NaN	NaN	NaN	NaN	NaN	NaN	NaN	NaN	NaN	NaN	NaN	NaN
401.44663859999946	2.0017	sub-19	1	sequence	blank	blank	NaN	NaN	NaN	NaN	NaN	NaN	NaN	NaN	NaN	NaN	NaN	NaN
403.4483958999999	0.3002	sub-19	1	sequence	fixation	dot	NaN	NaN	NaN	NaN	NaN	NaN	NaN	NaN	NaN	NaN	NaN	NaN
403.76680549999946	0.1151	sub-19	1	sequence	stimulus	Schuh	NaN	NaN	128.0	NaN	NaN	4.0	1.0	NaN	NaN	NaN	NaN	NaN
403.8819098999993	0.1335	sub-19	1	sequence	interval	dot	NaN	NaN	NaN	NaN	NaN	NaN	NaN	NaN	NaN	NaN	NaN	NaN
404.01541409999936	0.0999	sub-19	1	sequence	stimulus	Haus	NaN	NaN	128.0	NaN	NaN	2.0	2.0	NaN	NaN	NaN	NaN	NaN
404.1153102999997	0.1335	sub-19	1	sequence	interval	dot	NaN	NaN	NaN	NaN	NaN	NaN	NaN	NaN	NaN	NaN	NaN	NaN
404.2488515999994	0.1	sub-19	1	sequence	stimulus	Stuhl	NaN	NaN	128.0	NaN	NaN	5.0	3.0	NaN	NaN	NaN	NaN	NaN
404.3488749999997	0.1335	sub-19	1	sequence	interval	dot	NaN	NaN	NaN	NaN	NaN	NaN	NaN	NaN	NaN	NaN	NaN	NaN
404.4824000999997	0.0999	sub-19	1	sequence	stimulus	Katze	NaN	NaN	128.0	NaN	NaN	3.0	4.0	NaN	NaN	NaN	NaN	NaN
404.5823305999993	0.1336	sub-19	1	sequence	interval	dot	NaN	NaN	NaN	NaN	NaN	NaN	NaN	NaN	NaN	NaN	NaN	NaN
404.71590059999926	0.1001	sub-19	1	sequence	stimulus	Gesicht	NaN	NaN	128.0	NaN	NaN	1.0	5.0	NaN	NaN	NaN	NaN	NaN
404.81597280000005	0.1335	sub-19	1	sequence	interval	dot	NaN	NaN	NaN	NaN	NaN	NaN	NaN	NaN	NaN	NaN	NaN	NaN
404.9494281999996	8.0881	sub-19	1	sequence	delay	dot	NaN	NaN	NaN	NaN	NaN	NaN	NaN	NaN	NaN	NaN	NaN	NaN
413.0116398999999	0.695	sub-19	1	sequence	choice	choice	left	NaN	NaN	0.6623114999993049	True	NaN	NaN	left	True	2.0	4.0	2.0
413.70686919999935	0.5001	sub-19	1	sequence	feedback	NaN	NaN	NaN	NaN	NaN	NaN	NaN	NaN	NaN	NaN	NaN	NaN	NaN
414.2071527999997	1.0005	sub-19	1	sequence	cue	Katze	NaN	NaN	NaN	NaN	NaN	NaN	NaN	NaN	NaN	NaN	NaN	NaN
415.2077063999996	2.0016	sub-19	1	sequence	blank	blank	NaN	NaN	NaN	NaN	NaN	NaN	NaN	NaN	NaN	NaN	NaN	NaN
417.2093239999994	0.3002	sub-19	1	sequence	fixation	dot	NaN	NaN	NaN	NaN	NaN	NaN	NaN	NaN	NaN	NaN	NaN	NaN
417.5269806999995	0.0992	sub-19	1	sequence	stimulus	Schuh	NaN	NaN	32.0	NaN	NaN	4.0	1.0	NaN	NaN	NaN	NaN	NaN
417.62621859999945	0.0335	sub-19	1	sequence	interval	dot	NaN	NaN	NaN	NaN	NaN	NaN	NaN	NaN	NaN	NaN	NaN	NaN
417.6597097999993	0.1	sub-19	1	sequence	stimulus	Gesicht	NaN	NaN	32.0	NaN	NaN	1.0	2.0	NaN	NaN	NaN	NaN	NaN
417.7596765999997	0.0335	sub-19	1	sequence	interval	dot	NaN	NaN	NaN	NaN	NaN	NaN	NaN	NaN	NaN	NaN	NaN	NaN
417.79312989999926	0.1001	sub-19	1	sequence	stimulus	Katze	NaN	NaN	32.0	NaN	NaN	3.0	3.0	NaN	NaN	NaN	NaN	NaN
417.89324619999934	0.0333	sub-19	1	sequence	interval	dot	NaN	NaN	NaN	NaN	NaN	NaN	NaN	NaN	NaN	NaN	NaN	NaN
417.9265878999995	0.1002	sub-19	1	sequence	stimulus	Stuhl	NaN	NaN	32.0	NaN	NaN	5.0	4.0	NaN	NaN	NaN	NaN	NaN
418.0267587999997	0.0333	sub-19	1	sequence	interval	dot	NaN	NaN	NaN	NaN	NaN	NaN	NaN	NaN	NaN	NaN	NaN	NaN
418.0600796999997	0.0999	sub-19	1	sequence	stimulus	Haus	NaN	NaN	32.0	NaN	NaN	2.0	5.0	NaN	NaN	NaN	NaN	NaN
418.1600198999995	0.0333	sub-19	1	sequence	interval	dot	NaN	NaN	NaN	NaN	NaN	NaN	NaN	NaN	NaN	NaN	NaN	NaN
418.1933650000001	8.5385	sub-19	1	sequence	delay	dot	NaN	NaN	NaN	NaN	NaN	NaN	NaN	NaN	NaN	NaN	NaN	NaN
426.7133199	0.7711	sub-19	1	sequence	choice	choice	left	NaN	NaN	0.7359362999995938	True	NaN	NaN	left	True	3.0	4.0	3.0
427.48470029999953	0.5001	sub-19	1	sequence	feedback	NaN	NaN	NaN	NaN	NaN	NaN	NaN	NaN	NaN	NaN	NaN	NaN	NaN
427.9849884999994	1.0005	sub-19	1	sequence	cue	Gesicht	NaN	NaN	NaN	NaN	NaN	NaN	NaN	NaN	NaN	NaN	NaN	NaN
428.9854688999994	2.0017	sub-19	1	sequence	blank	blank	NaN	NaN	NaN	NaN	NaN	NaN	NaN	NaN	NaN	NaN	NaN	NaN
430.98715399999946	0.3002	sub-19	1	sequence	fixation	dot	NaN	NaN	NaN	NaN	NaN	NaN	NaN	NaN	NaN	NaN	NaN	NaN
431.3050211999998	0.099	sub-19	1	sequence	stimulus	Haus	NaN	NaN	512.0	NaN	NaN	2.0	1.0	NaN	NaN	NaN	NaN	NaN
431.4040460999995	0.5174	sub-19	1	sequence	interval	dot	NaN	NaN	NaN	NaN	NaN	NaN	NaN	NaN	NaN	NaN	NaN	NaN
431.9214045999997	0.0999	sub-19	1	sequence	stimulus	Stuhl	NaN	NaN	512.0	NaN	NaN	5.0	2.0	NaN	NaN	NaN	NaN	NaN
432.0213102999997	0.5172	sub-19	1	sequence	interval	dot	NaN	NaN	NaN	NaN	NaN	NaN	NaN	NaN	NaN	NaN	NaN	NaN
432.5385217999992	0.0999	sub-19	1	sequence	stimulus	Katze	NaN	NaN	512.0	NaN	NaN	3.0	3.0	NaN	NaN	NaN	NaN	NaN
432.6383959999994	0.5172	sub-19	1	sequence	interval	dot	NaN	NaN	NaN	NaN	NaN	NaN	NaN	NaN	NaN	NaN	NaN	NaN
433.1555682999997	0.1	sub-19	1	sequence	stimulus	Gesicht	NaN	NaN	512.0	NaN	NaN	1.0	4.0	NaN	NaN	NaN	NaN	NaN
433.25555749999967	0.5173	sub-19	1	sequence	interval	dot	NaN	NaN	NaN	NaN	NaN	NaN	NaN	NaN	NaN	NaN	NaN	NaN
433.7728165999997	0.1	sub-19	1	sequence	stimulus	Schuh	NaN	NaN	512.0	NaN	NaN	4.0	5.0	NaN	NaN	NaN	NaN	NaN
433.8728192999997	0.5171	sub-19	1	sequence	interval	dot	NaN	NaN	NaN	NaN	NaN	NaN	NaN	NaN	NaN	NaN	NaN	NaN
434.3898851999993	6.1532	sub-19	1	sequence	delay	dot	NaN	NaN	NaN	NaN	NaN	NaN	NaN	NaN	NaN	NaN	NaN	NaN
440.5190950999995	0.6431	sub-19	1	sequence	choice	choice	right	NaN	NaN	0.6045659000001251	True	NaN	NaN	right	True	2.0	4.0	4.0
441.1624812999999	0.4999	sub-19	1	sequence	feedback	NaN	NaN	NaN	NaN	NaN	NaN	NaN	NaN	NaN	NaN	NaN	NaN	NaN
441.6627567999994	11.1254	sub-19	1	other	break	break	NaN	NaN	NaN	NaN	NaN	NaN	NaN	NaN	NaN	NaN	NaN	NaN
456.6253474999994	0.4997	sub-19	1	localizer	stimulus	Schuh	NaN	0	1.5843962999996961	NaN	True	NaN	NaN	NaN	NaN	NaN	NaN	NaN
457.1084142	1.5844	sub-19	1	localizer	blank	interval	NaN	NaN	NaN	NaN	NaN	NaN	NaN	NaN	NaN	NaN	NaN	NaN
458.99391639999976	0.4995	sub-19	1	localizer	stimulus	Katze	NaN	0	2.4351981999998316	NaN	True	NaN	NaN	NaN	NaN	NaN	NaN	NaN
459.4769993	2.4352	sub-19	1	localizer	blank	interval	NaN	NaN	NaN	NaN	NaN	NaN	NaN	NaN	NaN	NaN	NaN	NaN
462.2134400999994	0.4993	sub-19	1	localizer	stimulus	Haus	NaN	180	3.336025700000448	0.5664156000002549	True	NaN	NaN	NaN	NaN	NaN	NaN	NaN
462.6962521999994	3.336	sub-19	1	localizer	blank	interval	NaN	NaN	NaN	NaN	NaN	NaN	NaN	NaN	NaN	NaN	NaN	NaN
466.3334396	0.4994	sub-19	1	localizer	stimulus	Stuhl	NaN	0	2.3516552999999476	NaN	True	NaN	NaN	NaN	NaN	NaN	NaN	NaN
466.81627729999946	2.3517	sub-19	1	localizer	blank	interval	NaN	NaN	NaN	NaN	NaN	NaN	NaN	NaN	NaN	NaN	NaN	NaN
469.4690639999999	0.4996	sub-19	1	localizer	stimulus	Schuh	NaN	180	2.9189135999995415	0.5185148999999001	True	NaN	NaN	NaN	NaN	NaN	NaN	NaN
469.9520431000001	2.9189	sub-19	1	localizer	blank	interval	NaN	NaN	NaN	NaN	NaN	NaN	NaN	NaN	NaN	NaN	NaN	NaN
473.1720648	0.4995	sub-19	1	localizer	stimulus	Stuhl	NaN	0	2.902155700000492	NaN	True	NaN	NaN	NaN	NaN	NaN	NaN	NaN
473.6551211999995	2.9022	sub-19	1	localizer	blank	interval	NaN	NaN	NaN	NaN	NaN	NaN	NaN	NaN	NaN	NaN	NaN	NaN
476.8583487999995	0.4996	sub-19	1	localizer	stimulus	Stuhl	NaN	0	2.9355703000001085	NaN	True	NaN	NaN	NaN	NaN	NaN	NaN	NaN
477.3413722999994	2.9356	sub-19	1	localizer	blank	interval	NaN	NaN	NaN	NaN	NaN	NaN	NaN	NaN	NaN	NaN	NaN	NaN
480.57808169999953	0.4995	sub-19	1	localizer	stimulus	Gesicht	NaN	180	2.8355979999996066	0.6095069000002695	True	NaN	NaN	NaN	NaN	NaN	NaN	NaN
481.0610066999998	2.8356	sub-19	1	localizer	blank	interval	NaN	NaN	NaN	NaN	NaN	NaN	NaN	NaN	NaN	NaN	NaN	NaN
484.1977388999994	0.4996	sub-19	1	localizer	stimulus	Schuh	NaN	0	2.618668200000684	NaN	True	NaN	NaN	NaN	NaN	NaN	NaN	NaN
484.6808183999992	2.6187	sub-19	1	localizer	blank	interval	NaN	NaN	NaN	NaN	NaN	NaN	NaN	NaN	NaN	NaN	NaN	NaN
487.6006281999999	0.4994	sub-19	1	localizer	stimulus	Schuh	NaN	0	2.5686170999998126	NaN	True	NaN	NaN	NaN	NaN	NaN	NaN	NaN
488.0834101	2.5686	sub-19	1	localizer	blank	interval	NaN	NaN	NaN	NaN	NaN	NaN	NaN	NaN	NaN	NaN	NaN	NaN
490.9531400999995	0.4995	sub-19	1	localizer	stimulus	Gesicht	NaN	0	3.2525682999994388	NaN	True	NaN	NaN	NaN	NaN	NaN	NaN	NaN
491.436138	3.2526	sub-19	1	localizer	blank	interval	NaN	NaN	NaN	NaN	NaN	NaN	NaN	NaN	NaN	NaN	NaN	NaN
494.9898409999996	0.4996	sub-19	1	localizer	stimulus	Stuhl	NaN	180	2.3183546999998725	0.6058300000004238	True	NaN	NaN	NaN	NaN	NaN	NaN	NaN
495.4728384	2.3184	sub-19	1	localizer	blank	interval	NaN	NaN	NaN	NaN	NaN	NaN	NaN	NaN	NaN	NaN	NaN	NaN
498.0922498	0.4995	sub-19	1	localizer	stimulus	Haus	NaN	0	2.8689641999999367	NaN	True	NaN	NaN	NaN	NaN	NaN	NaN	NaN
498.5752378999996	2.869	sub-19	1	localizer	blank	interval	NaN	NaN	NaN	NaN	NaN	NaN	NaN	NaN	NaN	NaN	NaN	NaN
501.7451850999996	0.4997	sub-19	1	localizer	stimulus	Katze	NaN	0	2.7354795000001673	NaN	True	NaN	NaN	NaN	NaN	NaN	NaN	NaN
502.22823999999946	2.7355	sub-19	1	localizer	blank	interval	NaN	NaN	NaN	NaN	NaN	NaN	NaN	NaN	NaN	NaN	NaN	NaN
505.2648001999996	0.4996	sub-19	1	localizer	stimulus	Gesicht	NaN	0	2.5519222000003197	NaN	True	NaN	NaN	NaN	NaN	NaN	NaN	NaN
505.7479482999997	2.5519	sub-19	1	localizer	blank	interval	NaN	NaN	NaN	NaN	NaN	NaN	NaN	NaN	NaN	NaN	NaN	NaN
508.60100149999926	0.4993	sub-19	1	localizer	stimulus	Katze	NaN	180	1.8178928000006636	0.5146961000000374	True	NaN	NaN	NaN	NaN	NaN	NaN	NaN
509.0838485999993	1.8179	sub-19	1	localizer	blank	interval	NaN	NaN	NaN	NaN	NaN	NaN	NaN	NaN	NaN	NaN	NaN	NaN
511.20283709999967	0.4996	sub-19	1	localizer	stimulus	Stuhl	NaN	0	2.735478300000068	NaN	True	NaN	NaN	NaN	NaN	NaN	NaN	NaN
511.6858255999996	2.7355	sub-19	1	localizer	blank	interval	NaN	NaN	NaN	NaN	NaN	NaN	NaN	NaN	NaN	NaN	NaN	NaN
514.7223835999994	0.4996	sub-19	1	localizer	stimulus	Katze	NaN	0	2.819618800000171	NaN	True	NaN	NaN	NaN	NaN	NaN	NaN	NaN
515.2054068999996	2.8196	sub-19	1	localizer	blank	interval	NaN	NaN	NaN	NaN	NaN	NaN	NaN	NaN	NaN	NaN	NaN	NaN
518.3252527999994	0.4998	sub-19	1	localizer	stimulus	Katze	NaN	0	2.618572100000165	NaN	True	NaN	NaN	NaN	NaN	NaN	NaN	NaN
518.8084221999998	2.6186	sub-19	1	localizer	blank	interval	NaN	NaN	NaN	NaN	NaN	NaN	NaN	NaN	NaN	NaN	NaN	NaN
521.7280234999998	0.4997	sub-19	1	localizer	stimulus	Schuh	NaN	0	2.768687800000407	NaN	True	NaN	NaN	NaN	NaN	NaN	NaN	NaN
522.2111572999993	2.7687	sub-19	1	localizer	blank	interval	NaN	NaN	NaN	NaN	NaN	NaN	NaN	NaN	NaN	NaN	NaN	NaN
525.2811736999993	0.4994	sub-19	1	localizer	stimulus	Haus	NaN	0	2.4352631000001566	NaN	True	NaN	NaN	NaN	NaN	NaN	NaN	NaN
525.7640465999993	2.4353	sub-19	1	localizer	blank	interval	NaN	NaN	NaN	NaN	NaN	NaN	NaN	NaN	NaN	NaN	NaN	NaN
528.5005204999998	0.4995	sub-19	1	localizer	stimulus	Haus	NaN	0	2.1847229999993942	NaN	True	NaN	NaN	NaN	NaN	NaN	NaN	NaN
528.9834412999999	2.1847	sub-19	1	localizer	blank	interval	NaN	NaN	NaN	NaN	NaN	NaN	NaN	NaN	NaN	NaN	NaN	NaN
531.4692273999999	0.4997	sub-19	1	localizer	stimulus	Gesicht	NaN	0	2.4185945999997784	NaN	True	NaN	NaN	NaN	NaN	NaN	NaN	NaN
531.9522388999994	2.4186	sub-19	1	localizer	blank	interval	NaN	NaN	NaN	NaN	NaN	NaN	NaN	NaN	NaN	NaN	NaN	NaN
534.6718550999994	0.4995	sub-19	1	localizer	stimulus	Gesicht	NaN	0	3.6359593999995923	NaN	True	NaN	NaN	NaN	NaN	NaN	NaN	NaN
535.1550434999999	3.636	sub-19	1	localizer	blank	interval	NaN	NaN	NaN	NaN	NaN	NaN	NaN	NaN	NaN	NaN	NaN	NaN
539.0922253999997	0.4995	sub-19	1	localizer	stimulus	Haus	NaN	0	2.985581699999784	NaN	True	NaN	NaN	NaN	NaN	NaN	NaN	NaN
539.5751598999996	2.9856	sub-19	1	localizer	blank	interval	NaN	NaN	NaN	NaN	NaN	NaN	NaN	NaN	NaN	NaN	NaN	NaN
546.0472351999997	1.0007	sub-19	1	sequence	cue	Schuh	NaN	NaN	NaN	NaN	NaN	NaN	NaN	NaN	NaN	NaN	NaN	NaN
547.0479863999999	1.9994	sub-19	1	sequence	blank	blank	NaN	NaN	NaN	NaN	NaN	NaN	NaN	NaN	NaN	NaN	NaN	NaN
549.0474203999993	0.3003	sub-19	1	sequence	fixation	dot	NaN	NaN	NaN	NaN	NaN	NaN	NaN	NaN	NaN	NaN	NaN	NaN
549.3680663999994	0.1151	sub-19	1	sequence	stimulus	Gesicht	NaN	NaN	32.0	NaN	NaN	1.0	1.0	NaN	NaN	NaN	NaN	NaN
549.4831752999999	0.0335	sub-19	1	sequence	interval	dot	NaN	NaN	NaN	NaN	NaN	NaN	NaN	NaN	NaN	NaN	NaN	NaN
549.5166470999993	0.1	sub-19	1	sequence	stimulus	Stuhl	NaN	NaN	32.0	NaN	NaN	5.0	2.0	NaN	NaN	NaN	NaN	NaN
549.6166460999993	0.0335	sub-19	1	sequence	interval	dot	NaN	NaN	NaN	NaN	NaN	NaN	NaN	NaN	NaN	NaN	NaN	NaN
549.6501589999998	0.1	sub-19	1	sequence	stimulus	Haus	NaN	NaN	32.0	NaN	NaN	2.0	3.0	NaN	NaN	NaN	NaN	NaN
549.7501159999993	0.0334	sub-19	1	sequence	interval	dot	NaN	NaN	NaN	NaN	NaN	NaN	NaN	NaN	NaN	NaN	NaN	NaN
549.7835634999992	0.1	sub-19	1	sequence	stimulus	Katze	NaN	NaN	32.0	NaN	NaN	3.0	4.0	NaN	NaN	NaN	NaN	NaN
549.8835569999992	0.0335	sub-19	1	sequence	interval	dot	NaN	NaN	NaN	NaN	NaN	NaN	NaN	NaN	NaN	NaN	NaN	NaN
549.9170082	0.1	sub-19	1	sequence	stimulus	Schuh	NaN	NaN	32.0	NaN	NaN	4.0	5.0	NaN	NaN	NaN	NaN	NaN
550.0169636999999	0.0334	sub-19	1	sequence	interval	dot	NaN	NaN	NaN	NaN	NaN	NaN	NaN	NaN	NaN	NaN	NaN	NaN
550.0503599999993	8.5217	sub-19	1	sequence	delay	dot	NaN	NaN	NaN	NaN	NaN	NaN	NaN	NaN	NaN	NaN	NaN	NaN
558.5565412999995	0.8848	sub-19	1	sequence	choice	choice	left	NaN	NaN	0.8637128999998822	False	NaN	NaN	right	True	4.0	5.0	5.0
559.4416704999994	0.5	sub-19	1	sequence	feedback	NaN	NaN	NaN	NaN	NaN	NaN	NaN	NaN	NaN	NaN	NaN	NaN	NaN
559.9418206999999	1.0006	sub-19	1	sequence	cue	Gesicht	NaN	NaN	NaN	NaN	NaN	NaN	NaN	NaN	NaN	NaN	NaN	NaN
560.9424753999992	2.0014	sub-19	1	sequence	blank	blank	NaN	NaN	NaN	NaN	NaN	NaN	NaN	NaN	NaN	NaN	NaN	NaN
562.9439291999997	0.3004	sub-19	1	sequence	fixation	dot	NaN	NaN	NaN	NaN	NaN	NaN	NaN	NaN	NaN	NaN	NaN	NaN
563.2624244999997	0.1151	sub-19	1	sequence	stimulus	Stuhl	NaN	NaN	512.0	NaN	NaN	5.0	1.0	NaN	NaN	NaN	NaN	NaN
563.3775717999997	0.5174	sub-19	1	sequence	interval	dot	NaN	NaN	NaN	NaN	NaN	NaN	NaN	NaN	NaN	NaN	NaN	NaN
563.8949221999992	0.0998	sub-19	1	sequence	stimulus	Haus	NaN	NaN	512.0	NaN	NaN	2.0	2.0	NaN	NaN	NaN	NaN	NaN
563.9947649999995	0.5173	sub-19	1	sequence	interval	dot	NaN	NaN	NaN	NaN	NaN	NaN	NaN	NaN	NaN	NaN	NaN	NaN
564.5121079999999	0.0999	sub-19	1	sequence	stimulus	Katze	NaN	NaN	512.0	NaN	NaN	3.0	3.0	NaN	NaN	NaN	NaN	NaN
564.6120056	0.5171	sub-19	1	sequence	interval	dot	NaN	NaN	NaN	NaN	NaN	NaN	NaN	NaN	NaN	NaN	NaN	NaN
565.1291320999999	0.1001	sub-19	1	sequence	stimulus	Gesicht	NaN	NaN	512.0	NaN	NaN	1.0	4.0	NaN	NaN	NaN	NaN	NaN
565.2291918000001	0.5172	sub-19	1	sequence	interval	dot	NaN	NaN	NaN	NaN	NaN	NaN	NaN	NaN	NaN	NaN	NaN	NaN
565.7463621999996	0.0999	sub-19	1	sequence	stimulus	Schuh	NaN	NaN	512.0	NaN	NaN	4.0	5.0	NaN	NaN	NaN	NaN	NaN
565.8462796999993	0.5172	sub-19	1	sequence	interval	dot	NaN	NaN	NaN	NaN	NaN	NaN	NaN	NaN	NaN	NaN	NaN	NaN
566.363472	6.1532	sub-19	1	sequence	delay	dot	NaN	NaN	NaN	NaN	NaN	NaN	NaN	NaN	NaN	NaN	NaN	NaN
572.4921981999996	0.7269	sub-19	1	sequence	choice	choice	right	NaN	NaN	0.6869943000001513	True	NaN	NaN	right	True	5.0	4.0	4.0
573.2193441999998	0.5001	sub-19	1	sequence	feedback	NaN	NaN	NaN	NaN	NaN	NaN	NaN	NaN	NaN	NaN	NaN	NaN	NaN
573.7196291999999	1.0005	sub-19	1	sequence	cue	Katze	NaN	NaN	NaN	NaN	NaN	NaN	NaN	NaN	NaN	NaN	NaN	NaN
574.7201568	2.0016	sub-19	1	sequence	blank	blank	NaN	NaN	NaN	NaN	NaN	NaN	NaN	NaN	NaN	NaN	NaN	NaN
576.7217522999999	0.3003	sub-19	1	sequence	fixation	dot	NaN	NaN	NaN	NaN	NaN	NaN	NaN	NaN	NaN	NaN	NaN	NaN
577.0395190999998	0.0992	sub-19	1	sequence	stimulus	Haus	NaN	NaN	512.0	NaN	NaN	2.0	1.0	NaN	NaN	NaN	NaN	NaN
577.1387295999994	0.5172	sub-19	1	sequence	interval	dot	NaN	NaN	NaN	NaN	NaN	NaN	NaN	NaN	NaN	NaN	NaN	NaN
577.6559576	0.1	sub-19	1	sequence	stimulus	Stuhl	NaN	NaN	512.0	NaN	NaN	5.0	2.0	NaN	NaN	NaN	NaN	NaN
577.7559083999995	0.5172	sub-19	1	sequence	interval	dot	NaN	NaN	NaN	NaN	NaN	NaN	NaN	NaN	NaN	NaN	NaN	NaN
578.2731292999997	0.0999	sub-19	1	sequence	stimulus	Katze	NaN	NaN	512.0	NaN	NaN	3.0	3.0	NaN	NaN	NaN	NaN	NaN
578.3730670999994	0.5172	sub-19	1	sequence	interval	dot	NaN	NaN	NaN	NaN	NaN	NaN	NaN	NaN	NaN	NaN	NaN	NaN
578.8902979999993	0.1	sub-19	1	sequence	stimulus	Gesicht	NaN	NaN	512.0	NaN	NaN	1.0	4.0	NaN	NaN	NaN	NaN	NaN
578.9902733999998	0.5172	sub-19	1	sequence	interval	dot	NaN	NaN	NaN	NaN	NaN	NaN	NaN	NaN	NaN	NaN	NaN	NaN
579.5074650999995	0.0999	sub-19	1	sequence	stimulus	Schuh	NaN	NaN	512.0	NaN	NaN	4.0	5.0	NaN	NaN	NaN	NaN	NaN
579.6074054000001	0.5172	sub-19	1	sequence	interval	dot	NaN	NaN	NaN	NaN	NaN	NaN	NaN	NaN	NaN	NaN	NaN	NaN
580.1245798	6.1364	sub-19	1	sequence	delay	dot	NaN	NaN	NaN	NaN	NaN	NaN	NaN	NaN	NaN	NaN	NaN	NaN
586.2458947999994	0.7176	sub-19	1	sequence	choice	choice	right	NaN	NaN	0.6947448000000804	True	NaN	NaN	right	True	2.0	3.0	3.0
586.9637850999998	0.5	sub-19	1	sequence	feedback	NaN	NaN	NaN	NaN	NaN	NaN	NaN	NaN	NaN	NaN	NaN	NaN	NaN
587.4639155999994	1.0007	sub-19	1	sequence	cue	Haus	NaN	NaN	NaN	NaN	NaN	NaN	NaN	NaN	NaN	NaN	NaN	NaN
588.4646561999998	2.0017	sub-19	1	sequence	blank	blank	NaN	NaN	NaN	NaN	NaN	NaN	NaN	NaN	NaN	NaN	NaN	NaN
590.4664052999997	0.2983	sub-19	1	sequence	fixation	dot	NaN	NaN	NaN	NaN	NaN	NaN	NaN	NaN	NaN	NaN	NaN	NaN
590.7999597999997	0.1167	sub-19	1	sequence	stimulus	Schuh	NaN	NaN	128.0	NaN	NaN	4.0	1.0	NaN	NaN	NaN	NaN	NaN
590.9166896999996	0.1337	sub-19	1	sequence	interval	dot	NaN	NaN	NaN	NaN	NaN	NaN	NaN	NaN	NaN	NaN	NaN	NaN
591.0504129999999	0.0999	sub-19	1	sequence	stimulus	Haus	NaN	NaN	128.0	NaN	NaN	2.0	2.0	NaN	NaN	NaN	NaN	NaN
591.1503556999996	0.1335	sub-19	1	sequence	interval	dot	NaN	NaN	NaN	NaN	NaN	NaN	NaN	NaN	NaN	NaN	NaN	NaN
591.2838704999995	0.0999	sub-19	1	sequence	stimulus	Stuhl	NaN	NaN	128.0	NaN	NaN	5.0	3.0	NaN	NaN	NaN	NaN	NaN
591.3837856	0.1337	sub-19	1	sequence	interval	dot	NaN	NaN	NaN	NaN	NaN	NaN	NaN	NaN	NaN	NaN	NaN	NaN
591.5174717999998	0.0999	sub-19	1	sequence	stimulus	Katze	NaN	NaN	128.0	NaN	NaN	3.0	4.0	NaN	NaN	NaN	NaN	NaN
591.6173832999993	0.1336	sub-19	1	sequence	interval	dot	NaN	NaN	NaN	NaN	NaN	NaN	NaN	NaN	NaN	NaN	NaN	NaN
591.7510159999993	0.0998	sub-19	1	sequence	stimulus	Gesicht	NaN	NaN	128.0	NaN	NaN	1.0	5.0	NaN	NaN	NaN	NaN	NaN
591.8508471999994	0.1335	sub-19	1	sequence	interval	dot	NaN	NaN	NaN	NaN	NaN	NaN	NaN	NaN	NaN	NaN	NaN	NaN
591.9843015999995	8.0712	sub-19	1	sequence	delay	dot	NaN	NaN	NaN	NaN	NaN	NaN	NaN	NaN	NaN	NaN	NaN	NaN
600.0259510999995	0.7989	sub-19	1	sequence	choice	choice	left	NaN	NaN	0.7562271999995573	True	NaN	NaN	left	True	2.0	4.0	2.0
600.8251169999994	0.5	sub-19	1	sequence	feedback	NaN	NaN	NaN	NaN	NaN	NaN	NaN	NaN	NaN	NaN	NaN	NaN	NaN
601.3253626999995	1.0005	sub-19	1	sequence	cue	Schuh	NaN	NaN	NaN	NaN	NaN	NaN	NaN	NaN	NaN	NaN	NaN	NaN
602.3258329999999	2.0016	sub-19	1	sequence	blank	blank	NaN	NaN	NaN	NaN	NaN	NaN	NaN	NaN	NaN	NaN	NaN	NaN
604.3274289999999	0.3002	sub-19	1	sequence	fixation	dot	NaN	NaN	NaN	NaN	NaN	NaN	NaN	NaN	NaN	NaN	NaN	NaN
604.6459833999997	0.1151	sub-19	1	sequence	stimulus	Haus	NaN	NaN	64.0	NaN	NaN	2.0	1.0	NaN	NaN	NaN	NaN	NaN
604.7611008999993	0.0668	sub-19	1	sequence	interval	dot	NaN	NaN	NaN	NaN	NaN	NaN	NaN	NaN	NaN	NaN	NaN	NaN
604.8279330999994	0.1	sub-19	1	sequence	stimulus	Katze	NaN	NaN	64.0	NaN	NaN	3.0	2.0	NaN	NaN	NaN	NaN	NaN
604.9278890999994	0.0669	sub-19	1	sequence	interval	dot	NaN	NaN	NaN	NaN	NaN	NaN	NaN	NaN	NaN	NaN	NaN	NaN
604.9947611999996	0.0999	sub-19	1	sequence	stimulus	Schuh	NaN	NaN	64.0	NaN	NaN	4.0	3.0	NaN	NaN	NaN	NaN	NaN
605.0946957999995	0.0668	sub-19	1	sequence	interval	dot	NaN	NaN	NaN	NaN	NaN	NaN	NaN	NaN	NaN	NaN	NaN	NaN
605.1615321999998	0.0999	sub-19	1	sequence	stimulus	Gesicht	NaN	NaN	64.0	NaN	NaN	1.0	4.0	NaN	NaN	NaN	NaN	NaN
605.2614817999993	0.0669	sub-19	1	sequence	interval	dot	NaN	NaN	NaN	NaN	NaN	NaN	NaN	NaN	NaN	NaN	NaN	NaN
605.3283495999995	0.1	sub-19	1	sequence	stimulus	Stuhl	NaN	NaN	64.0	NaN	NaN	5.0	5.0	NaN	NaN	NaN	NaN	NaN
605.4283007999993	0.0667	sub-19	1	sequence	interval	dot	NaN	NaN	NaN	NaN	NaN	NaN	NaN	NaN	NaN	NaN	NaN	NaN
605.4950290999996	8.3884	sub-19	1	sequence	delay	dot	NaN	NaN	NaN	NaN	NaN	NaN	NaN	NaN	NaN	NaN	NaN	NaN
613.8573466999997	0.7619	sub-19	1	sequence	choice	choice	left	NaN	NaN	0.7202253999994355	True	NaN	NaN	left	True	3.0	4.0	3.0
614.6195432999993	0.5	sub-19	1	sequence	feedback	NaN	NaN	NaN	NaN	NaN	NaN	NaN	NaN	NaN	NaN	NaN	NaN	NaN
615.1198173999992	1.0006	sub-19	1	sequence	cue	Katze	NaN	NaN	NaN	NaN	NaN	NaN	NaN	NaN	NaN	NaN	NaN	NaN
616.1204654999992	2.0015	sub-19	1	sequence	blank	blank	NaN	NaN	NaN	NaN	NaN	NaN	NaN	NaN	NaN	NaN	NaN	NaN
618.1219348999994	0.3003	sub-19	1	sequence	fixation	dot	NaN	NaN	NaN	NaN	NaN	NaN	NaN	NaN	NaN	NaN	NaN	NaN
618.4396914999998	0.0992	sub-19	1	sequence	stimulus	Schuh	NaN	NaN	128.0	NaN	NaN	4.0	1.0	NaN	NaN	NaN	NaN	NaN
618.5389116999995	0.1336	sub-19	1	sequence	interval	dot	NaN	NaN	NaN	NaN	NaN	NaN	NaN	NaN	NaN	NaN	NaN	NaN
618.672525	0.0999	sub-19	1	sequence	stimulus	Haus	NaN	NaN	128.0	NaN	NaN	2.0	2.0	NaN	NaN	NaN	NaN	NaN
618.7724320999996	0.1336	sub-19	1	sequence	interval	dot	NaN	NaN	NaN	NaN	NaN	NaN	NaN	NaN	NaN	NaN	NaN	NaN
618.9059969999998	0.0999	sub-19	1	sequence	stimulus	Stuhl	NaN	NaN	128.0	NaN	NaN	5.0	3.0	NaN	NaN	NaN	NaN	NaN
619.0059371999996	0.1336	sub-19	1	sequence	interval	dot	NaN	NaN	NaN	NaN	NaN	NaN	NaN	NaN	NaN	NaN	NaN	NaN
619.1395331999993	0.1	sub-19	1	sequence	stimulus	Gesicht	NaN	NaN	128.0	NaN	NaN	1.0	4.0	NaN	NaN	NaN	NaN	NaN
619.2394834999996	0.1336	sub-19	1	sequence	interval	dot	NaN	NaN	NaN	NaN	NaN	NaN	NaN	NaN	NaN	NaN	NaN	NaN
619.3730439000001	0.1	sub-19	1	sequence	stimulus	Katze	NaN	NaN	128.0	NaN	NaN	3.0	5.0	NaN	NaN	NaN	NaN	NaN
619.4730286999993	0.1334	sub-19	1	sequence	interval	dot	NaN	NaN	NaN	NaN	NaN	NaN	NaN	NaN	NaN	NaN	NaN	NaN
619.6064338999995	8.0547	sub-19	1	sequence	delay	dot	NaN	NaN	NaN	NaN	NaN	NaN	NaN	NaN	NaN	NaN	NaN	NaN
627.6372523999999	1.2603	sub-19	1	sequence	choice	choice	right	NaN	NaN	1.2225586999993538	False	NaN	NaN	left	True	5.0	2.0	5.0
628.8978558999997	0.4999	sub-19	1	sequence	feedback	NaN	NaN	NaN	NaN	NaN	NaN	NaN	NaN	NaN	NaN	NaN	NaN	NaN
629.3979915999998	1.0006	sub-19	1	sequence	cue	Stuhl	NaN	NaN	NaN	NaN	NaN	NaN	NaN	NaN	NaN	NaN	NaN	NaN
630.3985911	2.0017	sub-19	1	sequence	blank	blank	NaN	NaN	NaN	NaN	NaN	NaN	NaN	NaN	NaN	NaN	NaN	NaN
632.4002554999997	0.2982	sub-19	1	sequence	fixation	dot	NaN	NaN	NaN	NaN	NaN	NaN	NaN	NaN	NaN	NaN	NaN	NaN
632.7188269999997	0.1131	sub-19	1	sequence	stimulus	Schuh	NaN	NaN	32.0	NaN	NaN	4.0	1.0	NaN	NaN	NaN	NaN	NaN
632.8319003999995	0.0336	sub-19	1	sequence	interval	dot	NaN	NaN	NaN	NaN	NaN	NaN	NaN	NaN	NaN	NaN	NaN	NaN
632.8654512999992	0.1	sub-19	1	sequence	stimulus	Gesicht	NaN	NaN	32.0	NaN	NaN	1.0	2.0	NaN	NaN	NaN	NaN	NaN
632.9654035999993	0.0335	sub-19	1	sequence	interval	dot	NaN	NaN	NaN	NaN	NaN	NaN	NaN	NaN	NaN	NaN	NaN	NaN
632.9989132000001	0.1021	sub-19	1	sequence	stimulus	Katze	NaN	NaN	32.0	NaN	NaN	3.0	3.0	NaN	NaN	NaN	NaN	NaN
633.1010032999993	0.0333	sub-19	1	sequence	interval	dot	NaN	NaN	NaN	NaN	NaN	NaN	NaN	NaN	NaN	NaN	NaN	NaN
633.1343385999999	0.1	sub-19	1	sequence	stimulus	Stuhl	NaN	NaN	32.0	NaN	NaN	5.0	4.0	NaN	NaN	NaN	NaN	NaN
633.2342988999999	0.0335	sub-19	1	sequence	interval	dot	NaN	NaN	NaN	NaN	NaN	NaN	NaN	NaN	NaN	NaN	NaN	NaN
633.2678159999996	0.1	sub-19	1	sequence	stimulus	Haus	NaN	NaN	32.0	NaN	NaN	2.0	5.0	NaN	NaN	NaN	NaN	NaN
633.3677846999999	0.0335	sub-19	1	sequence	interval	dot	NaN	NaN	NaN	NaN	NaN	NaN	NaN	NaN	NaN	NaN	NaN	NaN
633.4012602999992	8.5214	sub-19	1	sequence	delay	dot	NaN	NaN	NaN	NaN	NaN	NaN	NaN	NaN	NaN	NaN	NaN	NaN
641.9107332999993	1.4318	sub-19	1	sequence	choice	choice	right	NaN	NaN	1.4092006999999285	False	NaN	NaN	left	True	4.0	2.0	4.0
643.3428051999999	0.5001	sub-19	1	sequence	feedback	NaN	NaN	NaN	NaN	NaN	NaN	NaN	NaN	NaN	NaN	NaN	NaN	NaN
643.8430407999995	1.0007	sub-19	1	sequence	cue	Katze	NaN	NaN	NaN	NaN	NaN	NaN	NaN	NaN	NaN	NaN	NaN	NaN
644.8437098999993	2.0016	sub-19	1	sequence	blank	blank	NaN	NaN	NaN	NaN	NaN	NaN	NaN	NaN	NaN	NaN	NaN	NaN
646.8452896999997	0.3003	sub-19	1	sequence	fixation	dot	NaN	NaN	NaN	NaN	NaN	NaN	NaN	NaN	NaN	NaN	NaN	NaN
647.1638042999994	0.1151	sub-19	1	sequence	stimulus	Haus	NaN	NaN	64.0	NaN	NaN	2.0	1.0	NaN	NaN	NaN	NaN	NaN
647.2788635999996	0.0668	sub-19	1	sequence	interval	dot	NaN	NaN	NaN	NaN	NaN	NaN	NaN	NaN	NaN	NaN	NaN	NaN
647.3456953999994	0.1	sub-19	1	sequence	stimulus	Gesicht	NaN	NaN	64.0	NaN	NaN	1.0	2.0	NaN	NaN	NaN	NaN	NaN
647.4457178999992	0.0668	sub-19	1	sequence	interval	dot	NaN	NaN	NaN	NaN	NaN	NaN	NaN	NaN	NaN	NaN	NaN	NaN
647.5125533999999	0.0999	sub-19	1	sequence	stimulus	Katze	NaN	NaN	64.0	NaN	NaN	3.0	3.0	NaN	NaN	NaN	NaN	NaN
647.6124755999999	0.0669	sub-19	1	sequence	interval	dot	NaN	NaN	NaN	NaN	NaN	NaN	NaN	NaN	NaN	NaN	NaN	NaN
647.6793342000001	0.1001	sub-19	1	sequence	stimulus	Stuhl	NaN	NaN	64.0	NaN	NaN	5.0	4.0	NaN	NaN	NaN	NaN	NaN
647.7794221999993	0.0668	sub-19	1	sequence	interval	dot	NaN	NaN	NaN	NaN	NaN	NaN	NaN	NaN	NaN	NaN	NaN	NaN
647.8462148999997	0.0999	sub-19	1	sequence	stimulus	Schuh	NaN	NaN	64.0	NaN	NaN	4.0	5.0	NaN	NaN	NaN	NaN	NaN
647.9460845999993	0.0667	sub-19	1	sequence	interval	dot	NaN	NaN	NaN	NaN	NaN	NaN	NaN	NaN	NaN	NaN	NaN	NaN
648.0127840999994	8.4048	sub-19	1	sequence	delay	dot	NaN	NaN	NaN	NaN	NaN	NaN	NaN	NaN	NaN	NaN	NaN	NaN
656.3923448999994	0.7448	sub-19	1	sequence	choice	choice	right	NaN	NaN	0.7061626000004253	True	NaN	NaN	right	True	2.0	3.0	3.0
657.1374276999995	0.5	sub-19	1	sequence	feedback	NaN	NaN	NaN	NaN	NaN	NaN	NaN	NaN	NaN	NaN	NaN	NaN	NaN
661.4578722999995	0.4996	sub-19	1	localizer	stimulus	Katze	NaN	0	2.3851114999997662	NaN	True	NaN	NaN	NaN	NaN	NaN	NaN	NaN
661.9409778999998	2.3851	sub-19	1	localizer	blank	interval	NaN	NaN	NaN	NaN	NaN	NaN	NaN	NaN	NaN	NaN	NaN	NaN
664.6270709	0.4996	sub-19	1	localizer	stimulus	Gesicht	NaN	180	2.7020689999999377	0.6565919000004214	True	NaN	NaN	NaN	NaN	NaN	NaN	NaN
665.1101163999992	2.7021	sub-19	1	localizer	blank	interval	NaN	NaN	NaN	NaN	NaN	NaN	NaN	NaN	NaN	NaN	NaN	NaN
668.1133807999995	0.4994	sub-19	1	localizer	stimulus	Stuhl	NaN	0	2.0016164999997272	NaN	True	NaN	NaN	NaN	NaN	NaN	NaN	NaN
668.5962387	2.0016	sub-19	1	localizer	blank	interval	NaN	NaN	NaN	NaN	NaN	NaN	NaN	NaN	NaN	NaN	NaN	NaN
670.8988467999998	0.4995	sub-19	1	localizer	stimulus	Gesicht	NaN	0	1.9183302000001277	NaN	True	NaN	NaN	NaN	NaN	NaN	NaN	NaN
671.3819122999994	1.9183	sub-19	1	localizer	blank	interval	NaN	NaN	NaN	NaN	NaN	NaN	NaN	NaN	NaN	NaN	NaN	NaN
673.6010416999998	0.4998	sub-19	1	localizer	stimulus	Katze	NaN	0	1.8514124999992418	NaN	True	NaN	NaN	NaN	NaN	NaN	NaN	NaN
674.0842143	1.8514	sub-19	1	localizer	blank	interval	NaN	NaN	NaN	NaN	NaN	NaN	NaN	NaN	NaN	NaN	NaN	NaN
676.2367019999992	0.4995	sub-19	1	localizer	stimulus	Katze	NaN	0	2.3683941000008417	NaN	True	NaN	NaN	NaN	NaN	NaN	NaN	NaN
676.7195724999992	2.3684	sub-19	1	localizer	blank	interval	NaN	NaN	NaN	NaN	NaN	NaN	NaN	NaN	NaN	NaN	NaN	NaN
679.3890609999999	0.4996	sub-19	1	localizer	stimulus	Haus	NaN	0	2.6185324999996737	NaN	True	NaN	NaN	NaN	NaN	NaN	NaN	NaN
679.8721693999996	2.6185	sub-19	1	localizer	blank	interval	NaN	NaN	NaN	NaN	NaN	NaN	NaN	NaN	NaN	NaN	NaN	NaN
682.7917687999998	0.4997	sub-19	1	localizer	stimulus	Katze	NaN	180	1.7513315000005605	0.6999648000000889	True	NaN	NaN	NaN	NaN	NaN	NaN	NaN
683.2747807999995	1.7513	sub-19	1	localizer	blank	interval	NaN	NaN	NaN	NaN	NaN	NaN	NaN	NaN	NaN	NaN	NaN	NaN
685.3271895999997	0.4999	sub-19	1	localizer	stimulus	Schuh	NaN	0	2.218357599999763	NaN	True	NaN	NaN	NaN	NaN	NaN	NaN	NaN
685.8103302	2.2184	sub-19	1	localizer	blank	interval	NaN	NaN	NaN	NaN	NaN	NaN	NaN	NaN	NaN	NaN	NaN	NaN
688.3296309999996	0.4997	sub-19	1	localizer	stimulus	Haus	NaN	0	2.1515496000001804	NaN	True	NaN	NaN	NaN	NaN	NaN	NaN	NaN
688.8128037999995	2.1515	sub-19	1	localizer	blank	interval	NaN	NaN	NaN	NaN	NaN	NaN	NaN	NaN	NaN	NaN	NaN	NaN
691.2653252	0.4996	sub-19	1	localizer	stimulus	Schuh	NaN	0	2.3852147999996305	NaN	True	NaN	NaN	NaN	NaN	NaN	NaN	NaN
691.7483759999996	2.3852	sub-19	1	localizer	blank	interval	NaN	NaN	NaN	NaN	NaN	NaN	NaN	NaN	NaN	NaN	NaN	NaN
694.4346011999996	0.4996	sub-19	1	localizer	stimulus	Gesicht	NaN	0	1.8847772000008263	NaN	True	NaN	NaN	NaN	NaN	NaN	NaN	NaN
694.9177213999992	1.8848	sub-19	1	localizer	blank	interval	NaN	NaN	NaN	NaN	NaN	NaN	NaN	NaN	NaN	NaN	NaN	NaN
697.1035855	0.4993	sub-19	1	localizer	stimulus	Gesicht	NaN	0	2.7354138000000603	NaN	True	NaN	NaN	NaN	NaN	NaN	NaN	NaN
697.5863835999999	2.7354	sub-19	1	localizer	blank	interval	NaN	NaN	NaN	NaN	NaN	NaN	NaN	NaN	NaN	NaN	NaN	NaN
700.6229360999996	0.4996	sub-19	1	localizer	stimulus	Haus	NaN	0	1.9680874000005133	NaN	True	NaN	NaN	NaN	NaN	NaN	NaN	NaN
701.1059257999996	1.9681	sub-19	1	localizer	blank	interval	NaN	NaN	NaN	NaN	NaN	NaN	NaN	NaN	NaN	NaN	NaN	NaN
703.375102	0.4997	sub-19	1	localizer	stimulus	Stuhl	NaN	0	2.1849742999993396	NaN	True	NaN	NaN	NaN	NaN	NaN	NaN	NaN
703.8581205	2.185	sub-19	1	localizer	blank	interval	NaN	NaN	NaN	NaN	NaN	NaN	NaN	NaN	NaN	NaN	NaN	NaN
706.3442001999992	0.4996	sub-19	1	localizer	stimulus	Stuhl	NaN	0	2.0014115000003585	NaN	True	NaN	NaN	NaN	NaN	NaN	NaN	NaN
706.8272927999997	2.0014	sub-19	1	localizer	blank	interval	NaN	NaN	NaN	NaN	NaN	NaN	NaN	NaN	NaN	NaN	NaN	NaN
709.1298135999996	0.4995	sub-19	1	localizer	stimulus	Haus	NaN	0	1.8179056999997556	NaN	True	NaN	NaN	NaN	NaN	NaN	NaN	NaN
709.6129045999996	1.8179	sub-19	1	localizer	blank	interval	NaN	NaN	NaN	NaN	NaN	NaN	NaN	NaN	NaN	NaN	NaN	NaN
711.7318974	0.4995	sub-19	1	localizer	stimulus	Haus	NaN	180	2.218266100000619	0.5757970999993631	True	NaN	NaN	NaN	NaN	NaN	NaN	NaN
712.2150551999994	2.2183	sub-19	1	localizer	blank	interval	NaN	NaN	NaN	NaN	NaN	NaN	NaN	NaN	NaN	NaN	NaN	NaN
714.7344563999995	0.4996	sub-19	1	localizer	stimulus	Gesicht	NaN	0	2.4185561999993297	NaN	True	NaN	NaN	NaN	NaN	NaN	NaN	NaN
715.2174752999999	2.4186	sub-19	1	localizer	blank	interval	NaN	NaN	NaN	NaN	NaN	NaN	NaN	NaN	NaN	NaN	NaN	NaN
717.9371338000001	0.4994	sub-19	1	localizer	stimulus	Schuh	NaN	180	1.4677564000003258	0.6185537000001204	True	NaN	NaN	NaN	NaN	NaN	NaN	NaN
718.4200205999996	1.4678	sub-19	1	localizer	blank	interval	NaN	NaN	NaN	NaN	NaN	NaN	NaN	NaN	NaN	NaN	NaN	NaN
720.1887201999998	0.4996	sub-19	1	localizer	stimulus	Schuh	NaN	0	3.7360936000004585	NaN	True	NaN	NaN	NaN	NaN	NaN	NaN	NaN
720.6718727999996	3.7361	sub-19	1	localizer	blank	interval	NaN	NaN	NaN	NaN	NaN	NaN	NaN	NaN	NaN	NaN	NaN	NaN
724.7090963	0.4995	sub-19	1	localizer	stimulus	Stuhl	NaN	180	3.1358024999999543	0.8626727000000756	True	NaN	NaN	NaN	NaN	NaN	NaN	NaN
725.1921509999993	3.1358	sub-19	1	localizer	blank	interval	NaN	NaN	NaN	NaN	NaN	NaN	NaN	NaN	NaN	NaN	NaN	NaN
728.6289207	0.4996	sub-19	1	localizer	stimulus	Katze	NaN	0	2.468533899999784	NaN	True	NaN	NaN	NaN	NaN	NaN	NaN	NaN
729.1119165999999	2.4685	sub-19	1	localizer	blank	interval	NaN	NaN	NaN	NaN	NaN	NaN	NaN	NaN	NaN	NaN	NaN	NaN
731.8815034999998	0.4996	sub-19	1	localizer	stimulus	Stuhl	NaN	0	2.5519638000005216	NaN	True	NaN	NaN	NaN	NaN	NaN	NaN	NaN
732.3645339999994	2.552	sub-19	1	localizer	blank	interval	NaN	NaN	NaN	NaN	NaN	NaN	NaN	NaN	NaN	NaN	NaN	NaN
735.2177570999993	0.4995	sub-19	1	localizer	stimulus	Schuh	NaN	0	2.2330254999997123	NaN	True	NaN	NaN	NaN	NaN	NaN	NaN	NaN
735.7006801999996	2.233	sub-19	1	localizer	blank	interval	NaN	NaN	NaN	NaN	NaN	NaN	NaN	NaN	NaN	NaN	NaN	NaN
741.4220624999998	1.0005	sub-19	1	sequence	cue	Schuh	NaN	NaN	NaN	NaN	NaN	NaN	NaN	NaN	NaN	NaN	NaN	NaN
742.4226054000001	2.0018	sub-19	1	sequence	blank	blank	NaN	NaN	NaN	NaN	NaN	NaN	NaN	NaN	NaN	NaN	NaN	NaN
744.4243769999994	0.3001	sub-19	1	sequence	fixation	dot	NaN	NaN	NaN	NaN	NaN	NaN	NaN	NaN	NaN	NaN	NaN	NaN
744.7427364999994	0.1151	sub-19	1	sequence	stimulus	Gesicht	NaN	NaN	32.0	NaN	NaN	1.0	1.0	NaN	NaN	NaN	NaN	NaN
744.8578637999999	0.0335	sub-19	1	sequence	interval	dot	NaN	NaN	NaN	NaN	NaN	NaN	NaN	NaN	NaN	NaN	NaN	NaN
744.8913771999996	0.1	sub-19	1	sequence	stimulus	Stuhl	NaN	NaN	32.0	NaN	NaN	5.0	2.0	NaN	NaN	NaN	NaN	NaN
744.9914177	0.0334	sub-19	1	sequence	interval	dot	NaN	NaN	NaN	NaN	NaN	NaN	NaN	NaN	NaN	NaN	NaN	NaN
745.0248388999998	0.1	sub-19	1	sequence	stimulus	Haus	NaN	NaN	32.0	NaN	NaN	2.0	3.0	NaN	NaN	NaN	NaN	NaN
745.1248127999997	0.0334	sub-19	1	sequence	interval	dot	NaN	NaN	NaN	NaN	NaN	NaN	NaN	NaN	NaN	NaN	NaN	NaN
745.1582316999993	0.1	sub-19	1	sequence	stimulus	Katze	NaN	NaN	32.0	NaN	NaN	3.0	4.0	NaN	NaN	NaN	NaN	NaN
745.2581882999993	0.0335	sub-19	1	sequence	interval	dot	NaN	NaN	NaN	NaN	NaN	NaN	NaN	NaN	NaN	NaN	NaN	NaN
745.2917002999993	0.0999	sub-19	1	sequence	stimulus	Schuh	NaN	NaN	32.0	NaN	NaN	4.0	5.0	NaN	NaN	NaN	NaN	NaN
745.3916329999993	0.0334	sub-19	1	sequence	interval	dot	NaN	NaN	NaN	NaN	NaN	NaN	NaN	NaN	NaN	NaN	NaN	NaN
745.4249903	8.5384	sub-19	1	sequence	delay	dot	NaN	NaN	NaN	NaN	NaN	NaN	NaN	NaN	NaN	NaN	NaN	NaN
753.9422417999995	0.8572	sub-19	1	sequence	choice	choice	right	NaN	NaN	0.8243649999994886	True	NaN	NaN	right	True	4.0	5.0	5.0
754.7997952999995	0.4999	sub-19	1	sequence	feedback	NaN	NaN	NaN	NaN	NaN	NaN	NaN	NaN	NaN	NaN	NaN	NaN	NaN
755.2998795999993	1.0007	sub-19	1	sequence	cue	Stuhl	NaN	NaN	NaN	NaN	NaN	NaN	NaN	NaN	NaN	NaN	NaN	NaN
756.3005614999993	2.0017	sub-19	1	sequence	blank	blank	NaN	NaN	NaN	NaN	NaN	NaN	NaN	NaN	NaN	NaN	NaN	NaN
758.3022191999999	0.2983	sub-19	1	sequence	fixation	dot	NaN	NaN	NaN	NaN	NaN	NaN	NaN	NaN	NaN	NaN	NaN	NaN
758.6199954999993	0.1139	sub-19	1	sequence	stimulus	Schuh	NaN	NaN	32.0	NaN	NaN	4.0	1.0	NaN	NaN	NaN	NaN	NaN
758.7338747999993	0.0335	sub-19	1	sequence	interval	dot	NaN	NaN	NaN	NaN	NaN	NaN	NaN	NaN	NaN	NaN	NaN	NaN
758.7673961	0.102	sub-19	1	sequence	stimulus	Gesicht	NaN	NaN	32.0	NaN	NaN	1.0	2.0	NaN	NaN	NaN	NaN	NaN
758.8693557999995	0.0335	sub-19	1	sequence	interval	dot	NaN	NaN	NaN	NaN	NaN	NaN	NaN	NaN	NaN	NaN	NaN	NaN
758.9028284999995	0.1	sub-19	1	sequence	stimulus	Katze	NaN	NaN	32.0	NaN	NaN	3.0	3.0	NaN	NaN	NaN	NaN	NaN
759.0028395999998	0.0335	sub-19	1	sequence	interval	dot	NaN	NaN	NaN	NaN	NaN	NaN	NaN	NaN	NaN	NaN	NaN	NaN
759.0363127999999	0.1	sub-19	1	sequence	stimulus	Stuhl	NaN	NaN	32.0	NaN	NaN	5.0	4.0	NaN	NaN	NaN	NaN	NaN
759.1363095999995	0.0335	sub-19	1	sequence	interval	dot	NaN	NaN	NaN	NaN	NaN	NaN	NaN	NaN	NaN	NaN	NaN	NaN
759.1698330999998	0.1	sub-19	1	sequence	stimulus	Haus	NaN	NaN	32.0	NaN	NaN	2.0	5.0	NaN	NaN	NaN	NaN	NaN
759.2697922999996	0.0334	sub-19	1	sequence	interval	dot	NaN	NaN	NaN	NaN	NaN	NaN	NaN	NaN	NaN	NaN	NaN	NaN
759.3031809999993	8.5382	sub-19	1	sequence	delay	dot	NaN	NaN	NaN	NaN	NaN	NaN	NaN	NaN	NaN	NaN	NaN	NaN
767.8260442999999	0.918	sub-19	1	sequence	choice	choice	right	NaN	NaN	0.8984847000001537	True	NaN	NaN	right	True	5.0	4.0	4.0
768.7443332999992	0.5	sub-19	1	sequence	feedback	NaN	NaN	NaN	NaN	NaN	NaN	NaN	NaN	NaN	NaN	NaN	NaN	NaN
769.2445103	1.0008	sub-19	1	sequence	cue	Schuh	NaN	NaN	NaN	NaN	NaN	NaN	NaN	NaN	NaN	NaN	NaN	NaN
770.2452874999999	2.0015	sub-19	1	sequence	blank	blank	NaN	NaN	NaN	NaN	NaN	NaN	NaN	NaN	NaN	NaN	NaN	NaN
772.2468180999995	0.3002	sub-19	1	sequence	fixation	dot	NaN	NaN	NaN	NaN	NaN	NaN	NaN	NaN	NaN	NaN	NaN	NaN
772.5654445	0.115	sub-19	1	sequence	stimulus	Stuhl	NaN	NaN	512.0	NaN	NaN	5.0	1.0	NaN	NaN	NaN	NaN	NaN
772.6804311999995	0.5172	sub-19	1	sequence	interval	dot	NaN	NaN	NaN	NaN	NaN	NaN	NaN	NaN	NaN	NaN	NaN	NaN
773.1976519	0.1001	sub-19	1	sequence	stimulus	Haus	NaN	NaN	512.0	NaN	NaN	2.0	2.0	NaN	NaN	NaN	NaN	NaN
773.2977247999997	0.517	sub-19	1	sequence	interval	dot	NaN	NaN	NaN	NaN	NaN	NaN	NaN	NaN	NaN	NaN	NaN	NaN
773.8147709999994	0.1	sub-19	1	sequence	stimulus	Katze	NaN	NaN	512.0	NaN	NaN	3.0	3.0	NaN	NaN	NaN	NaN	NaN
773.9147227999993	0.5172	sub-19	1	sequence	interval	dot	NaN	NaN	NaN	NaN	NaN	NaN	NaN	NaN	NaN	NaN	NaN	NaN
774.4319523999993	0.1	sub-19	1	sequence	stimulus	Gesicht	NaN	NaN	512.0	NaN	NaN	1.0	4.0	NaN	NaN	NaN	NaN	NaN
774.5319067	0.5172	sub-19	1	sequence	interval	dot	NaN	NaN	NaN	NaN	NaN	NaN	NaN	NaN	NaN	NaN	NaN	NaN
775.0490903	0.1001	sub-19	1	sequence	stimulus	Schuh	NaN	NaN	512.0	NaN	NaN	4.0	5.0	NaN	NaN	NaN	NaN	NaN
775.1491894000001	0.5169	sub-19	1	sequence	interval	dot	NaN	NaN	NaN	NaN	NaN	NaN	NaN	NaN	NaN	NaN	NaN	NaN
775.6661385999996	6.1365	sub-19	1	sequence	delay	dot	NaN	NaN	NaN	NaN	NaN	NaN	NaN	NaN	NaN	NaN	NaN	NaN
781.7876957999997	0.7008	sub-19	1	sequence	choice	choice	left	NaN	NaN	0.6811894000002212	True	NaN	NaN	left	True	5.0	4.0	5.0
782.4887476999993	0.5001	sub-19	1	sequence	feedback	NaN	NaN	NaN	NaN	NaN	NaN	NaN	NaN	NaN	NaN	NaN	NaN	NaN
782.9890038999993	1.0006	sub-19	1	sequence	cue	Stuhl	NaN	NaN	NaN	NaN	NaN	NaN	NaN	NaN	NaN	NaN	NaN	NaN
783.9895840999998	2.0016	sub-19	1	sequence	blank	blank	NaN	NaN	NaN	NaN	NaN	NaN	NaN	NaN	NaN	NaN	NaN	NaN
785.9911979999997	0.3004	sub-19	1	sequence	fixation	dot	NaN	NaN	NaN	NaN	NaN	NaN	NaN	NaN	NaN	NaN	NaN	NaN
786.3097373999999	0.1151	sub-19	1	sequence	stimulus	Schuh	NaN	NaN	128.0	NaN	NaN	4.0	1.0	NaN	NaN	NaN	NaN	NaN
786.4248805999996	0.1335	sub-19	1	sequence	interval	dot	NaN	NaN	NaN	NaN	NaN	NaN	NaN	NaN	NaN	NaN	NaN	NaN
786.5584273999993	0.1002	sub-19	1	sequence	stimulus	Haus	NaN	NaN	128.0	NaN	NaN	2.0	2.0	NaN	NaN	NaN	NaN	NaN
786.6586176999999	0.1333	sub-19	1	sequence	interval	dot	NaN	NaN	NaN	NaN	NaN	NaN	NaN	NaN	NaN	NaN	NaN	NaN
786.7919440999995	0.1	sub-19	1	sequence	stimulus	Stuhl	NaN	NaN	128.0	NaN	NaN	5.0	3.0	NaN	NaN	NaN	NaN	NaN
786.8919034	0.1336	sub-19	1	sequence	interval	dot	NaN	NaN	NaN	NaN	NaN	NaN	NaN	NaN	NaN	NaN	NaN	NaN
787.0254910999993	0.0999	sub-19	1	sequence	stimulus	Katze	NaN	NaN	128.0	NaN	NaN	3.0	4.0	NaN	NaN	NaN	NaN	NaN
787.1254359999994	0.1336	sub-19	1	sequence	interval	dot	NaN	NaN	NaN	NaN	NaN	NaN	NaN	NaN	NaN	NaN	NaN	NaN
787.2589942999994	0.1	sub-19	1	sequence	stimulus	Gesicht	NaN	NaN	128.0	NaN	NaN	1.0	5.0	NaN	NaN	NaN	NaN	NaN
787.3589444999998	0.1335	sub-19	1	sequence	interval	dot	NaN	NaN	NaN	NaN	NaN	NaN	NaN	NaN	NaN	NaN	NaN	NaN
787.4923978999996	8.0714	sub-19	1	sequence	delay	dot	NaN	NaN	NaN	NaN	NaN	NaN	NaN	NaN	NaN	NaN	NaN	NaN
795.5413083999993	0.8084	sub-19	1	sequence	choice	choice	left	NaN	NaN	0.7840325999995912	True	NaN	NaN	left	True	3.0	4.0	3.0
796.3498283999998	0.5002	sub-19	1	sequence	feedback	NaN	NaN	NaN	NaN	NaN	NaN	NaN	NaN	NaN	NaN	NaN	NaN	NaN
796.8501372999999	1.0007	sub-19	1	sequence	cue	Katze	NaN	NaN	NaN	NaN	NaN	NaN	NaN	NaN	NaN	NaN	NaN	NaN
797.8508302999999	2.0018	sub-19	1	sequence	blank	blank	NaN	NaN	NaN	NaN	NaN	NaN	NaN	NaN	NaN	NaN	NaN	NaN
799.8526434999994	0.3001	sub-19	1	sequence	fixation	dot	NaN	NaN	NaN	NaN	NaN	NaN	NaN	NaN	NaN	NaN	NaN	NaN
800.1702724999996	0.0993	sub-19	1	sequence	stimulus	Haus	NaN	NaN	512.0	NaN	NaN	2.0	1.0	NaN	NaN	NaN	NaN	NaN
800.2695227999993	0.5172	sub-19	1	sequence	interval	dot	NaN	NaN	NaN	NaN	NaN	NaN	NaN	NaN	NaN	NaN	NaN	NaN
800.7867700999996	0.0999	sub-19	1	sequence	stimulus	Stuhl	NaN	NaN	512.0	NaN	NaN	5.0	2.0	NaN	NaN	NaN	NaN	NaN
800.8867192999996	0.5173	sub-19	1	sequence	interval	dot	NaN	NaN	NaN	NaN	NaN	NaN	NaN	NaN	NaN	NaN	NaN	NaN
801.4039705999994	0.1	sub-19	1	sequence	stimulus	Katze	NaN	NaN	512.0	NaN	NaN	3.0	3.0	NaN	NaN	NaN	NaN	NaN
801.5039604999993	0.5171	sub-19	1	sequence	interval	dot	NaN	NaN	NaN	NaN	NaN	NaN	NaN	NaN	NaN	NaN	NaN	NaN
802.0210748	0.1	sub-19	1	sequence	stimulus	Gesicht	NaN	NaN	512.0	NaN	NaN	1.0	4.0	NaN	NaN	NaN	NaN	NaN
802.1210410999993	0.5171	sub-19	1	sequence	interval	dot	NaN	NaN	NaN	NaN	NaN	NaN	NaN	NaN	NaN	NaN	NaN	NaN
802.6381025000001	0.1	sub-19	1	sequence	stimulus	Schuh	NaN	NaN	512.0	NaN	NaN	4.0	5.0	NaN	NaN	NaN	NaN	NaN
802.7380833999996	0.5171	sub-19	1	sequence	interval	dot	NaN	NaN	NaN	NaN	NaN	NaN	NaN	NaN	NaN	NaN	NaN	NaN
803.2551730999994	6.1365	sub-19	1	sequence	delay	dot	NaN	NaN	NaN	NaN	NaN	NaN	NaN	NaN	NaN	NaN	NaN	NaN
809.3731275999999	0.7545	sub-19	1	sequence	choice	choice	left	NaN	NaN	0.7241420000000289	True	NaN	NaN	left	True	3.0	4.0	3.0
810.1278428999995	0.5001	sub-19	1	sequence	feedback	NaN	NaN	NaN	NaN	NaN	NaN	NaN	NaN	NaN	NaN	NaN	NaN	NaN
810.6280449999995	1.0006	sub-19	1	sequence	cue	Stuhl	NaN	NaN	NaN	NaN	NaN	NaN	NaN	NaN	NaN	NaN	NaN	NaN
811.6286582999992	2.0016	sub-19	1	sequence	blank	blank	NaN	NaN	NaN	NaN	NaN	NaN	NaN	NaN	NaN	NaN	NaN	NaN
813.6302768999994	0.3002	sub-19	1	sequence	fixation	dot	NaN	NaN	NaN	NaN	NaN	NaN	NaN	NaN	NaN	NaN	NaN	NaN
813.9489555999999	0.115	sub-19	1	sequence	stimulus	Haus	NaN	NaN	64.0	NaN	NaN	2.0	1.0	NaN	NaN	NaN	NaN	NaN
814.0639266999997	0.0669	sub-19	1	sequence	interval	dot	NaN	NaN	NaN	NaN	NaN	NaN	NaN	NaN	NaN	NaN	NaN	NaN
814.1307794999993	0.0999	sub-19	1	sequence	stimulus	Gesicht	NaN	NaN	64.0	NaN	NaN	1.0	2.0	NaN	NaN	NaN	NaN	NaN
814.2307151999994	0.0668	sub-19	1	sequence	interval	dot	NaN	NaN	NaN	NaN	NaN	NaN	NaN	NaN	NaN	NaN	NaN	NaN
814.2975471999998	0.1	sub-19	1	sequence	stimulus	Katze	NaN	NaN	64.0	NaN	NaN	3.0	3.0	NaN	NaN	NaN	NaN	NaN
814.3975192999997	0.0668	sub-19	1	sequence	interval	dot	NaN	NaN	NaN	NaN	NaN	NaN	NaN	NaN	NaN	NaN	NaN	NaN
814.4643607999997	0.1001	sub-19	1	sequence	stimulus	Stuhl	NaN	NaN	64.0	NaN	NaN	5.0	4.0	NaN	NaN	NaN	NaN	NaN
814.5644171999993	0.0668	sub-19	1	sequence	interval	dot	NaN	NaN	NaN	NaN	NaN	NaN	NaN	NaN	NaN	NaN	NaN	NaN
814.6312165999998	0.0999	sub-19	1	sequence	stimulus	Schuh	NaN	NaN	64.0	NaN	NaN	4.0	5.0	NaN	NaN	NaN	NaN	NaN
814.7311168999995	0.0667	sub-19	1	sequence	interval	dot	NaN	NaN	NaN	NaN	NaN	NaN	NaN	NaN	NaN	NaN	NaN	NaN
814.7978544999996	8.3716	sub-19	1	sequence	delay	dot	NaN	NaN	NaN	NaN	NaN	NaN	NaN	NaN	NaN	NaN	NaN	NaN
823.1527724999996	0.7027	sub-19	1	sequence	choice	choice	right	NaN	NaN	0.6744104999997944	True	NaN	NaN	right	True	3.0	4.0	4.0
823.8557027999996	0.4999	sub-19	1	sequence	feedback	NaN	NaN	NaN	NaN	NaN	NaN	NaN	NaN	NaN	NaN	NaN	NaN	NaN
824.3557662999992	1.0008	sub-19	1	sequence	cue	Katze	NaN	NaN	NaN	NaN	NaN	NaN	NaN	NaN	NaN	NaN	NaN	NaN
825.3565249999992	2.0015	sub-19	1	sequence	blank	blank	NaN	NaN	NaN	NaN	NaN	NaN	NaN	NaN	NaN	NaN	NaN	NaN
827.3580677999998	0.3002	sub-19	1	sequence	fixation	dot	NaN	NaN	NaN	NaN	NaN	NaN	NaN	NaN	NaN	NaN	NaN	NaN
827.6915773000001	0.1003	sub-19	1	sequence	stimulus	Schuh	NaN	NaN	128.0	NaN	NaN	4.0	1.0	NaN	NaN	NaN	NaN	NaN
827.7918503999999	0.1335	sub-19	1	sequence	interval	dot	NaN	NaN	NaN	NaN	NaN	NaN	NaN	NaN	NaN	NaN	NaN	NaN
827.9253008999995	0.0999	sub-19	1	sequence	stimulus	Haus	NaN	NaN	128.0	NaN	NaN	2.0	2.0	NaN	NaN	NaN	NaN	NaN
828.0252281999992	0.1336	sub-19	1	sequence	interval	dot	NaN	NaN	NaN	NaN	NaN	NaN	NaN	NaN	NaN	NaN	NaN	NaN
828.1587811999998	0.1	sub-19	1	sequence	stimulus	Stuhl	NaN	NaN	128.0	NaN	NaN	5.0	3.0	NaN	NaN	NaN	NaN	NaN
828.2587797999995	0.1335	sub-19	1	sequence	interval	dot	NaN	NaN	NaN	NaN	NaN	NaN	NaN	NaN	NaN	NaN	NaN	NaN
828.3923025999993	0.0999	sub-19	1	sequence	stimulus	Gesicht	NaN	NaN	128.0	NaN	NaN	1.0	4.0	NaN	NaN	NaN	NaN	NaN
828.4921793999993	0.1336	sub-19	1	sequence	interval	dot	NaN	NaN	NaN	NaN	NaN	NaN	NaN	NaN	NaN	NaN	NaN	NaN
828.6258171	0.0999	sub-19	1	sequence	stimulus	Katze	NaN	NaN	128.0	NaN	NaN	3.0	5.0	NaN	NaN	NaN	NaN	NaN
828.7257653999995	0.1335	sub-19	1	sequence	interval	dot	NaN	NaN	NaN	NaN	NaN	NaN	NaN	NaN	NaN	NaN	NaN	NaN
828.8592206999992	8.0715	sub-19	1	sequence	delay	dot	NaN	NaN	NaN	NaN	NaN	NaN	NaN	NaN	NaN	NaN	NaN	NaN
836.9066272999999	0.7599	sub-19	1	sequence	choice	choice	left	NaN	NaN	0.729164800000035	False	NaN	NaN	right	True	4.0	5.0	5.0
837.6667787999995	0.5001	sub-19	1	sequence	feedback	NaN	NaN	NaN	NaN	NaN	NaN	NaN	NaN	NaN	NaN	NaN	NaN	NaN
838.1670274999997	1.0006	sub-19	1	sequence	cue	Stuhl	NaN	NaN	NaN	NaN	NaN	NaN	NaN	NaN	NaN	NaN	NaN	NaN
839.1676527	2.0017	sub-19	1	sequence	blank	blank	NaN	NaN	NaN	NaN	NaN	NaN	NaN	NaN	NaN	NaN	NaN	NaN
841.1693667	0.3002	sub-19	1	sequence	fixation	dot	NaN	NaN	NaN	NaN	NaN	NaN	NaN	NaN	NaN	NaN	NaN	NaN
841.4869570999999	0.0994	sub-19	1	sequence	stimulus	Haus	NaN	NaN	64.0	NaN	NaN	2.0	1.0	NaN	NaN	NaN	NaN	NaN
841.5863135999998	0.0668	sub-19	1	sequence	interval	dot	NaN	NaN	NaN	NaN	NaN	NaN	NaN	NaN	NaN	NaN	NaN	NaN
841.6531319999995	0.1	sub-19	1	sequence	stimulus	Katze	NaN	NaN	64.0	NaN	NaN	3.0	2.0	NaN	NaN	NaN	NaN	NaN
841.7531315999995	0.0668	sub-19	1	sequence	interval	dot	NaN	NaN	NaN	NaN	NaN	NaN	NaN	NaN	NaN	NaN	NaN	NaN
841.8199506000001	0.1	sub-19	1	sequence	stimulus	Schuh	NaN	NaN	64.0	NaN	NaN	4.0	3.0	NaN	NaN	NaN	NaN	NaN
841.9199314999996	0.0668	sub-19	1	sequence	interval	dot	NaN	NaN	NaN	NaN	NaN	NaN	NaN	NaN	NaN	NaN	NaN	NaN
841.9867242999999	0.1	sub-19	1	sequence	stimulus	Gesicht	NaN	NaN	64.0	NaN	NaN	1.0	4.0	NaN	NaN	NaN	NaN	NaN
842.0866977999995	0.0668	sub-19	1	sequence	interval	dot	NaN	NaN	NaN	NaN	NaN	NaN	NaN	NaN	NaN	NaN	NaN	NaN
842.1535281999995	0.1146	sub-19	1	sequence	stimulus	Stuhl	NaN	NaN	64.0	NaN	NaN	5.0	5.0	NaN	NaN	NaN	NaN	NaN
842.2681667999996	0.0667	sub-19	1	sequence	interval	dot	NaN	NaN	NaN	NaN	NaN	NaN	NaN	NaN	NaN	NaN	NaN	NaN
842.3348956999998	8.407	sub-19	1	sequence	delay	dot	NaN	NaN	NaN	NaN	NaN	NaN	NaN	NaN	NaN	NaN	NaN	NaN
850.7121241999994	0.8823	sub-19	1	sequence	choice	choice	left	NaN	NaN	0.8458574999995108	True	NaN	NaN	left	True	5.0	4.0	5.0
851.5947305999998	0.5001	sub-19	1	sequence	feedback	NaN	NaN	NaN	NaN	NaN	NaN	NaN	NaN	NaN	NaN	NaN	NaN	NaN
852.0952868999993	8.5066	sub-19	1	other	break	break	NaN	NaN	NaN	NaN	NaN	NaN	NaN	NaN	NaN	NaN	NaN	NaN
864.4390982999994	0.4994	sub-19	1	localizer	stimulus	Haus	NaN	0	1.8345460000000458	NaN	True	NaN	NaN	NaN	NaN	NaN	NaN	NaN
864.9220593	1.8345	sub-19	1	localizer	blank	interval	NaN	NaN	NaN	NaN	NaN	NaN	NaN	NaN	NaN	NaN	NaN	NaN
867.0576586999996	0.4996	sub-19	1	localizer	stimulus	Katze	NaN	0	2.084869499999513	NaN	True	NaN	NaN	NaN	NaN	NaN	NaN	NaN
867.5406770999998	2.0849	sub-19	1	localizer	blank	interval	NaN	NaN	NaN	NaN	NaN	NaN	NaN	NaN	NaN	NaN	NaN	NaN
869.9266676999996	0.4995	sub-19	1	localizer	stimulus	Schuh	NaN	180	3.085715100000016	0.6211247999999614	True	NaN	NaN	NaN	NaN	NaN	NaN	NaN
870.4096454	3.0857	sub-19	1	localizer	blank	interval	NaN	NaN	NaN	NaN	NaN	NaN	NaN	NaN	NaN	NaN	NaN	NaN
873.7964648999996	0.4995	sub-19	1	localizer	stimulus	Schuh	NaN	0	1.91813589999947	NaN	True	NaN	NaN	NaN	NaN	NaN	NaN	NaN
874.2794525999998	1.9181	sub-19	1	localizer	blank	interval	NaN	NaN	NaN	NaN	NaN	NaN	NaN	NaN	NaN	NaN	NaN	NaN
876.4986304999993	0.4995	sub-19	1	localizer	stimulus	Katze	NaN	180	3.0523167000001195	0.5451137000000017	True	NaN	NaN	NaN	NaN	NaN	NaN	NaN
876.9816639999999	3.0523	sub-19	1	localizer	blank	interval	NaN	NaN	NaN	NaN	NaN	NaN	NaN	NaN	NaN	NaN	NaN	NaN
880.3351583999993	0.4994	sub-19	1	localizer	stimulus	Katze	NaN	0	2.4186213999992106	NaN	True	NaN	NaN	NaN	NaN	NaN	NaN	NaN
880.81808	2.4186	sub-19	1	localizer	blank	interval	NaN	NaN	NaN	NaN	NaN	NaN	NaN	NaN	NaN	NaN	NaN	NaN
883.5377141999998	0.5163	sub-19	1	localizer	stimulus	Gesicht	NaN	0	3.3212266999998974	NaN	True	NaN	NaN	NaN	NaN	NaN	NaN	NaN
884.0187253999993	3.3212	sub-19	1	localizer	blank	interval	NaN	NaN	NaN	NaN	NaN	NaN	NaN	NaN	NaN	NaN	NaN	NaN
887.6410364999992	0.4996	sub-19	1	localizer	stimulus	Gesicht	NaN	0	2.2183654999998907	NaN	True	NaN	NaN	NaN	NaN	NaN	NaN	NaN
888.1239851999999	2.2184	sub-19	1	localizer	blank	interval	NaN	NaN	NaN	NaN	NaN	NaN	NaN	NaN	NaN	NaN	NaN	NaN
890.6434512999995	0.4995	sub-19	1	localizer	stimulus	Katze	NaN	0	2.9022743000004994	NaN	True	NaN	NaN	NaN	NaN	NaN	NaN	NaN
891.1264195999993	2.9023	sub-19	1	localizer	blank	interval	NaN	NaN	NaN	NaN	NaN	NaN	NaN	NaN	NaN	NaN	NaN	NaN
894.3297519999996	0.4995	sub-19	1	localizer	stimulus	Stuhl	NaN	0	2.4352206000003207	NaN	True	NaN	NaN	NaN	NaN	NaN	NaN	NaN
894.8127196999994	2.4352	sub-19	1	localizer	blank	interval	NaN	NaN	NaN	NaN	NaN	NaN	NaN	NaN	NaN	NaN	NaN	NaN
897.5490104999999	0.4996	sub-19	1	localizer	stimulus	Schuh	NaN	0	2.11821080000027	NaN	True	NaN	NaN	NaN	NaN	NaN	NaN	NaN
898.0321589999994	2.1182	sub-19	1	localizer	blank	interval	NaN	NaN	NaN	NaN	NaN	NaN	NaN	NaN	NaN	NaN	NaN	NaN
900.4513487999993	0.4998	sub-19	1	localizer	stimulus	Stuhl	NaN	0	2.8522603999999774	NaN	True	NaN	NaN	NaN	NaN	NaN	NaN	NaN
900.9344248999996	2.8523	sub-19	1	localizer	blank	interval	NaN	NaN	NaN	NaN	NaN	NaN	NaN	NaN	NaN	NaN	NaN	NaN
904.0876730999998	0.4997	sub-19	1	localizer	stimulus	Stuhl	NaN	0	2.068305400000213	NaN	True	NaN	NaN	NaN	NaN	NaN	NaN	NaN
904.5707293999994	2.0683	sub-19	1	localizer	blank	interval	NaN	NaN	NaN	NaN	NaN	NaN	NaN	NaN	NaN	NaN	NaN	NaN
906.9400472999996	0.4995	sub-19	1	localizer	stimulus	Gesicht	NaN	0	3.085815699999216	NaN	True	NaN	NaN	NaN	NaN	NaN	NaN	NaN
907.4229385	3.0858	sub-19	1	localizer	blank	interval	NaN	NaN	NaN	NaN	NaN	NaN	NaN	NaN	NaN	NaN	NaN	NaN
910.8097242999992	0.4996	sub-19	1	localizer	stimulus	Stuhl	NaN	0	1.884836699999255	NaN	True	NaN	NaN	NaN	NaN	NaN	NaN	NaN
911.2927761	1.8848	sub-19	1	localizer	blank	interval	NaN	NaN	NaN	NaN	NaN	NaN	NaN	NaN	NaN	NaN	NaN	NaN
913.4786684	0.4995	sub-19	1	localizer	stimulus	Haus	NaN	0	2.852168200000051	NaN	True	NaN	NaN	NaN	NaN	NaN	NaN	NaN
913.9616041999998	2.8522	sub-19	1	localizer	blank	interval	NaN	NaN	NaN	NaN	NaN	NaN	NaN	NaN	NaN	NaN	NaN	NaN
917.1148590999992	0.4997	sub-19	1	localizer	stimulus	Stuhl	NaN	180	2.5018047999999453	0.6330705999998827	True	NaN	NaN	NaN	NaN	NaN	NaN	NaN
917.5979578999996	2.5018	sub-19	1	localizer	blank	interval	NaN	NaN	NaN	NaN	NaN	NaN	NaN	NaN	NaN	NaN	NaN	NaN
920.4008537	0.4996	sub-19	1	localizer	stimulus	Katze	NaN	0	3.336012900000469	NaN	True	NaN	NaN	NaN	NaN	NaN	NaN	NaN
920.8838742999995	3.336	sub-19	1	localizer	blank	interval	NaN	NaN	NaN	NaN	NaN	NaN	NaN	NaN	NaN	NaN	NaN	NaN
924.5209460999996	0.4997	sub-19	1	localizer	stimulus	Haus	NaN	180	3.068860799999925	0.5788228000001254	True	NaN	NaN	NaN	NaN	NaN	NaN	NaN
925.0040280999992	3.0689	sub-19	1	localizer	blank	interval	NaN	NaN	NaN	NaN	NaN	NaN	NaN	NaN	NaN	NaN	NaN	NaN
928.3739817999996	0.4995	sub-19	1	localizer	stimulus	Gesicht	NaN	0	1.7514269000004106	NaN	True	NaN	NaN	NaN	NaN	NaN	NaN	NaN
928.8569971999996	1.7514	sub-19	1	localizer	blank	interval	NaN	NaN	NaN	NaN	NaN	NaN	NaN	NaN	NaN	NaN	NaN	NaN
930.9094109999996	0.4995	sub-19	1	localizer	stimulus	Haus	NaN	0	3.0856998999997813	NaN	True	NaN	NaN	NaN	NaN	NaN	NaN	NaN
931.3923845999998	3.0857	sub-19	1	localizer	blank	interval	NaN	NaN	NaN	NaN	NaN	NaN	NaN	NaN	NaN	NaN	NaN	NaN
934.7791871999998	0.4996	sub-19	1	localizer	stimulus	Schuh	NaN	0	2.3017481999995653	NaN	True	NaN	NaN	NaN	NaN	NaN	NaN	NaN
935.2621798	2.3017	sub-19	1	localizer	blank	interval	NaN	NaN	NaN	NaN	NaN	NaN	NaN	NaN	NaN	NaN	NaN	NaN
937.8650149999994	0.4996	sub-19	1	localizer	stimulus	Gesicht	NaN	180	2.3851518999999826	0.5867628000005425	True	NaN	NaN	NaN	NaN	NaN	NaN	NaN
938.3479896999996	2.3852	sub-19	1	localizer	blank	interval	NaN	NaN	NaN	NaN	NaN	NaN	NaN	NaN	NaN	NaN	NaN	NaN
941.0342173	0.4996	sub-19	1	localizer	stimulus	Schuh	NaN	0	2.7687760000000026	NaN	True	NaN	NaN	NaN	NaN	NaN	NaN	NaN
941.5172236999996	2.7688	sub-19	1	localizer	blank	interval	NaN	NaN	NaN	NaN	NaN	NaN	NaN	NaN	NaN	NaN	NaN	NaN
944.5873241	0.4994	sub-19	1	localizer	stimulus	Haus	NaN	0	3.3859902000003785	NaN	True	NaN	NaN	NaN	NaN	NaN	NaN	NaN
945.0702624999994	3.386	sub-19	1	localizer	blank	interval	NaN	NaN	NaN	NaN	NaN	NaN	NaN	NaN	NaN	NaN	NaN	NaN
951.9425767999992	1.0006	sub-19	1	sequence	cue	Gesicht	NaN	NaN	NaN	NaN	NaN	NaN	NaN	NaN	NaN	NaN	NaN	NaN
952.9432256	2.0014	sub-19	1	sequence	blank	blank	NaN	NaN	NaN	NaN	NaN	NaN	NaN	NaN	NaN	NaN	NaN	NaN
954.9446797	0.3004	sub-19	1	sequence	fixation	dot	NaN	NaN	NaN	NaN	NaN	NaN	NaN	NaN	NaN	NaN	NaN	NaN
955.2624157	0.0993	sub-19	1	sequence	stimulus	Schuh	NaN	NaN	128.0	NaN	NaN	4.0	1.0	NaN	NaN	NaN	NaN	NaN
955.3616883999994	0.1336	sub-19	1	sequence	interval	dot	NaN	NaN	NaN	NaN	NaN	NaN	NaN	NaN	NaN	NaN	NaN	NaN
955.4952618999996	0.0999	sub-19	1	sequence	stimulus	Haus	NaN	NaN	128.0	NaN	NaN	2.0	2.0	NaN	NaN	NaN	NaN	NaN
955.5951863	0.1336	sub-19	1	sequence	interval	dot	NaN	NaN	NaN	NaN	NaN	NaN	NaN	NaN	NaN	NaN	NaN	NaN
955.7287450999992	0.1	sub-19	1	sequence	stimulus	Stuhl	NaN	NaN	128.0	NaN	NaN	5.0	3.0	NaN	NaN	NaN	NaN	NaN
955.8287168999996	0.1336	sub-19	1	sequence	interval	dot	NaN	NaN	NaN	NaN	NaN	NaN	NaN	NaN	NaN	NaN	NaN	NaN
955.9623163999996	0.0999	sub-19	1	sequence	stimulus	Gesicht	NaN	NaN	128.0	NaN	NaN	1.0	4.0	NaN	NaN	NaN	NaN	NaN
956.0622380999994	0.1336	sub-19	1	sequence	interval	dot	NaN	NaN	NaN	NaN	NaN	NaN	NaN	NaN	NaN	NaN	NaN	NaN
956.1958111999992	0.1	sub-19	1	sequence	stimulus	Katze	NaN	NaN	128.0	NaN	NaN	3.0	5.0	NaN	NaN	NaN	NaN	NaN
956.2957721999992	0.1334	sub-19	1	sequence	interval	dot	NaN	NaN	NaN	NaN	NaN	NaN	NaN	NaN	NaN	NaN	NaN	NaN
956.4291915999992	8.0715	sub-19	1	sequence	delay	dot	NaN	NaN	NaN	NaN	NaN	NaN	NaN	NaN	NaN	NaN	NaN	NaN
964.4857580999995	0.7341	sub-19	1	sequence	choice	choice	left	NaN	NaN	0.7031820000001971	True	NaN	NaN	left	True	4.0	2.0	4.0
965.2202466999996	0.5	sub-19	1	sequence	feedback	NaN	NaN	NaN	NaN	NaN	NaN	NaN	NaN	NaN	NaN	NaN	NaN	NaN
965.7205039	1.0006	sub-19	1	sequence	cue	Stuhl	NaN	NaN	NaN	NaN	NaN	NaN	NaN	NaN	NaN	NaN	NaN	NaN
966.7211072	2.0016	sub-19	1	sequence	blank	blank	NaN	NaN	NaN	NaN	NaN	NaN	NaN	NaN	NaN	NaN	NaN	NaN
968.7227008999998	0.3003	sub-19	1	sequence	fixation	dot	NaN	NaN	NaN	NaN	NaN	NaN	NaN	NaN	NaN	NaN	NaN	NaN
969.0413337	0.115	sub-19	1	sequence	stimulus	Schuh	NaN	NaN	128.0	NaN	NaN	4.0	1.0	NaN	NaN	NaN	NaN	NaN
969.1563834	0.1336	sub-19	1	sequence	interval	dot	NaN	NaN	NaN	NaN	NaN	NaN	NaN	NaN	NaN	NaN	NaN	NaN
969.2899357999996	0.0999	sub-19	1	sequence	stimulus	Haus	NaN	NaN	128.0	NaN	NaN	2.0	2.0	NaN	NaN	NaN	NaN	NaN
969.389867	0.1335	sub-19	1	sequence	interval	dot	NaN	NaN	NaN	NaN	NaN	NaN	NaN	NaN	NaN	NaN	NaN	NaN
969.5234003999994	0.1	sub-19	1	sequence	stimulus	Stuhl	NaN	NaN	128.0	NaN	NaN	5.0	3.0	NaN	NaN	NaN	NaN	NaN
969.6233913999996	0.1334	sub-19	1	sequence	interval	dot	NaN	NaN	NaN	NaN	NaN	NaN	NaN	NaN	NaN	NaN	NaN	NaN
969.7568114999996	0.1	sub-19	1	sequence	stimulus	Katze	NaN	NaN	128.0	NaN	NaN	3.0	4.0	NaN	NaN	NaN	NaN	NaN
969.8567676999992	0.1335	sub-19	1	sequence	interval	dot	NaN	NaN	NaN	NaN	NaN	NaN	NaN	NaN	NaN	NaN	NaN	NaN
969.9903078999996	0.1	sub-19	1	sequence	stimulus	Gesicht	NaN	NaN	128.0	NaN	NaN	1.0	5.0	NaN	NaN	NaN	NaN	NaN
970.0902882	0.1335	sub-19	1	sequence	interval	dot	NaN	NaN	NaN	NaN	NaN	NaN	NaN	NaN	NaN	NaN	NaN	NaN
970.2237718999996	8.0547	sub-19	1	sequence	delay	dot	NaN	NaN	NaN	NaN	NaN	NaN	NaN	NaN	NaN	NaN	NaN	NaN
978.2653911999996	0.7489	sub-19	1	sequence	choice	choice	right	NaN	NaN	0.7334034999994401	True	NaN	NaN	right	True	5.0	3.0	3.0
979.0146118999992	0.5	sub-19	1	sequence	feedback	NaN	NaN	NaN	NaN	NaN	NaN	NaN	NaN	NaN	NaN	NaN	NaN	NaN
979.5147417999996	1.0006	sub-19	1	sequence	cue	Haus	NaN	NaN	NaN	NaN	NaN	NaN	NaN	NaN	NaN	NaN	NaN	NaN
980.5153787	2.0017	sub-19	1	sequence	blank	blank	NaN	NaN	NaN	NaN	NaN	NaN	NaN	NaN	NaN	NaN	NaN	NaN
982.5170752999992	0.3002	sub-19	1	sequence	fixation	dot	NaN	NaN	NaN	NaN	NaN	NaN	NaN	NaN	NaN	NaN	NaN	NaN
982.8355334999997	0.1151	sub-19	1	sequence	stimulus	Schuh	NaN	NaN	32.0	NaN	NaN	4.0	1.0	NaN	NaN	NaN	NaN	NaN
982.9506659	0.0335	sub-19	1	sequence	interval	dot	NaN	NaN	NaN	NaN	NaN	NaN	NaN	NaN	NaN	NaN	NaN	NaN
982.9841503999996	0.1	sub-19	1	sequence	stimulus	Gesicht	NaN	NaN	32.0	NaN	NaN	1.0	2.0	NaN	NaN	NaN	NaN	NaN
983.0841207999993	0.0335	sub-19	1	sequence	interval	dot	NaN	NaN	NaN	NaN	NaN	NaN	NaN	NaN	NaN	NaN	NaN	NaN
983.1175924	0.1	sub-19	1	sequence	stimulus	Katze	NaN	NaN	32.0	NaN	NaN	3.0	3.0	NaN	NaN	NaN	NaN	NaN
983.2175660999992	0.0334	sub-19	1	sequence	interval	dot	NaN	NaN	NaN	NaN	NaN	NaN	NaN	NaN	NaN	NaN	NaN	NaN
983.2510007	0.1001	sub-19	1	sequence	stimulus	Stuhl	NaN	NaN	32.0	NaN	NaN	5.0	4.0	NaN	NaN	NaN	NaN	NaN
983.3511307999996	0.0334	sub-19	1	sequence	interval	dot	NaN	NaN	NaN	NaN	NaN	NaN	NaN	NaN	NaN	NaN	NaN	NaN
983.3845186	0.103	sub-19	1	sequence	stimulus	Haus	NaN	NaN	32.0	NaN	NaN	2.0	5.0	NaN	NaN	NaN	NaN	NaN
983.4875359999996	0.0471	sub-19	1	sequence	interval	dot	NaN	NaN	NaN	NaN	NaN	NaN	NaN	NaN	NaN	NaN	NaN	NaN
983.5346033999996	8.5383	sub-19	1	sequence	delay	dot	NaN	NaN	NaN	NaN	NaN	NaN	NaN	NaN	NaN	NaN	NaN	NaN
992.0453819999992	1.0137	sub-19	1	sequence	choice	choice	left	NaN	NaN	0.978922899999816	True	NaN	NaN	left	True	5.0	4.0	5.0
993.0593378999992	0.5	sub-19	1	sequence	feedback	NaN	NaN	NaN	NaN	NaN	NaN	NaN	NaN	NaN	NaN	NaN	NaN	NaN
993.5594863999996	1.0006	sub-19	1	sequence	cue	Stuhl	NaN	NaN	NaN	NaN	NaN	NaN	NaN	NaN	NaN	NaN	NaN	NaN
994.5601086999995	2.0016	sub-19	1	sequence	blank	blank	NaN	NaN	NaN	NaN	NaN	NaN	NaN	NaN	NaN	NaN	NaN	NaN
996.5617094999998	0.3003	sub-19	1	sequence	fixation	dot	NaN	NaN	NaN	NaN	NaN	NaN	NaN	NaN	NaN	NaN	NaN	NaN
996.8794657999996	0.0992	sub-19	1	sequence	stimulus	Haus	NaN	NaN	64.0	NaN	NaN	2.0	1.0	NaN	NaN	NaN	NaN	NaN
996.9787012999996	0.0668	sub-19	1	sequence	interval	dot	NaN	NaN	NaN	NaN	NaN	NaN	NaN	NaN	NaN	NaN	NaN	NaN
997.0455426999996	0.1	sub-19	1	sequence	stimulus	Gesicht	NaN	NaN	64.0	NaN	NaN	1.0	2.0	NaN	NaN	NaN	NaN	NaN
997.1455060999996	0.0668	sub-19	1	sequence	interval	dot	NaN	NaN	NaN	NaN	NaN	NaN	NaN	NaN	NaN	NaN	NaN	NaN
997.2123427999996	0.1	sub-19	1	sequence	stimulus	Katze	NaN	NaN	64.0	NaN	NaN	3.0	3.0	NaN	NaN	NaN	NaN	NaN
997.3123370999992	0.0668	sub-19	1	sequence	interval	dot	NaN	NaN	NaN	NaN	NaN	NaN	NaN	NaN	NaN	NaN	NaN	NaN
997.3791394999998	0.1	sub-19	1	sequence	stimulus	Stuhl	NaN	NaN	64.0	NaN	NaN	5.0	4.0	NaN	NaN	NaN	NaN	NaN
997.4791035999996	0.0669	sub-19	1	sequence	interval	dot	NaN	NaN	NaN	NaN	NaN	NaN	NaN	NaN	NaN	NaN	NaN	NaN
997.5459561999996	0.1	sub-19	1	sequence	stimulus	Schuh	NaN	NaN	64.0	NaN	NaN	4.0	5.0	NaN	NaN	NaN	NaN	NaN
997.645915	0.0667	sub-19	1	sequence	interval	dot	NaN	NaN	NaN	NaN	NaN	NaN	NaN	NaN	NaN	NaN	NaN	NaN
997.7126157999992	8.3883	sub-19	1	sequence	delay	dot	NaN	NaN	NaN	NaN	NaN	NaN	NaN	NaN	NaN	NaN	NaN	NaN
1006.0847973	0.9356	sub-19	1	sequence	choice	choice	left	NaN	NaN	0.9190144000003784	True	NaN	NaN	left	True	4.0	5.0	4.0
1007.0206685999992	0.5	sub-19	1	sequence	feedback	NaN	NaN	NaN	NaN	NaN	NaN	NaN	NaN	NaN	NaN	NaN	NaN	NaN
1007.5207868999996	1.0008	sub-19	1	sequence	cue	Stuhl	NaN	NaN	NaN	NaN	NaN	NaN	NaN	NaN	NaN	NaN	NaN	NaN
1008.521554	2.0016	sub-19	1	sequence	blank	blank	NaN	NaN	NaN	NaN	NaN	NaN	NaN	NaN	NaN	NaN	NaN	NaN
1010.5231877999996	0.3003	sub-19	1	sequence	fixation	dot	NaN	NaN	NaN	NaN	NaN	NaN	NaN	NaN	NaN	NaN	NaN	NaN
1010.8421504999995	0.1147	sub-19	1	sequence	stimulus	Haus	NaN	NaN	64.0	NaN	NaN	2.0	1.0	NaN	NaN	NaN	NaN	NaN
1010.9568954999996	0.0668	sub-19	1	sequence	interval	dot	NaN	NaN	NaN	NaN	NaN	NaN	NaN	NaN	NaN	NaN	NaN	NaN
1011.0237109999998	0.1	sub-19	1	sequence	stimulus	Katze	NaN	NaN	64.0	NaN	NaN	3.0	2.0	NaN	NaN	NaN	NaN	NaN
1011.1236908	0.0668	sub-19	1	sequence	interval	dot	NaN	NaN	NaN	NaN	NaN	NaN	NaN	NaN	NaN	NaN	NaN	NaN
1011.1905069999992	0.1	sub-19	1	sequence	stimulus	Schuh	NaN	NaN	64.0	NaN	NaN	4.0	3.0	NaN	NaN	NaN	NaN	NaN
1011.2904890999998	0.0669	sub-19	1	sequence	interval	dot	NaN	NaN	NaN	NaN	NaN	NaN	NaN	NaN	NaN	NaN	NaN	NaN
1011.3573893999992	0.1	sub-19	1	sequence	stimulus	Gesicht	NaN	NaN	64.0	NaN	NaN	1.0	4.0	NaN	NaN	NaN	NaN	NaN
1011.4573421999994	0.0668	sub-19	1	sequence	interval	dot	NaN	NaN	NaN	NaN	NaN	NaN	NaN	NaN	NaN	NaN	NaN	NaN
1011.5241121999998	0.1	sub-19	1	sequence	stimulus	Stuhl	NaN	NaN	64.0	NaN	NaN	5.0	5.0	NaN	NaN	NaN	NaN	NaN
1011.6241059999992	0.0666	sub-19	1	sequence	interval	dot	NaN	NaN	NaN	NaN	NaN	NaN	NaN	NaN	NaN	NaN	NaN	NaN
1011.6906891999996	8.3716	sub-19	1	sequence	delay	dot	NaN	NaN	NaN	NaN	NaN	NaN	NaN	NaN	NaN	NaN	NaN	NaN
1020.0464720999998	0.7017	sub-19	1	sequence	choice	choice	right	NaN	NaN	0.669597099999919	True	NaN	NaN	right	True	4.0	5.0	5.0
1020.7484184999994	0.5001	sub-19	1	sequence	feedback	NaN	NaN	NaN	NaN	NaN	NaN	NaN	NaN	NaN	NaN	NaN	NaN	NaN
1021.2486942999994	1.0006	sub-19	1	sequence	cue	Haus	NaN	NaN	NaN	NaN	NaN	NaN	NaN	NaN	NaN	NaN	NaN	NaN
1022.249288	2.0015	sub-19	1	sequence	blank	blank	NaN	NaN	NaN	NaN	NaN	NaN	NaN	NaN	NaN	NaN	NaN	NaN
1024.2507484999996	0.3003	sub-19	1	sequence	fixation	dot	NaN	NaN	NaN	NaN	NaN	NaN	NaN	NaN	NaN	NaN	NaN	NaN
1024.5693339999998	0.1152	sub-19	1	sequence	stimulus	Stuhl	NaN	NaN	512.0	NaN	NaN	5.0	1.0	NaN	NaN	NaN	NaN	NaN
1024.684553	0.5171	sub-19	1	sequence	interval	dot	NaN	NaN	NaN	NaN	NaN	NaN	NaN	NaN	NaN	NaN	NaN	NaN
1025.2016562999995	0.0999	sub-19	1	sequence	stimulus	Haus	NaN	NaN	512.0	NaN	NaN	2.0	2.0	NaN	NaN	NaN	NaN	NaN
1025.3015968	0.5173	sub-19	1	sequence	interval	dot	NaN	NaN	NaN	NaN	NaN	NaN	NaN	NaN	NaN	NaN	NaN	NaN
1025.8188958	0.0999	sub-19	1	sequence	stimulus	Katze	NaN	NaN	512.0	NaN	NaN	3.0	3.0	NaN	NaN	NaN	NaN	NaN
1025.9187831	0.5172	sub-19	1	sequence	interval	dot	NaN	NaN	NaN	NaN	NaN	NaN	NaN	NaN	NaN	NaN	NaN	NaN
1026.4360011	0.1001	sub-19	1	sequence	stimulus	Gesicht	NaN	NaN	512.0	NaN	NaN	1.0	4.0	NaN	NaN	NaN	NaN	NaN
1026.5360750999998	0.5171	sub-19	1	sequence	interval	dot	NaN	NaN	NaN	NaN	NaN	NaN	NaN	NaN	NaN	NaN	NaN	NaN
1027.053160099999	0.0999	sub-19	1	sequence	stimulus	Schuh	NaN	NaN	512.0	NaN	NaN	4.0	5.0	NaN	NaN	NaN	NaN	NaN
1027.1530976999993	0.5171	sub-19	1	sequence	interval	dot	NaN	NaN	NaN	NaN	NaN	NaN	NaN	NaN	NaN	NaN	NaN	NaN
1027.6702028	6.1533	sub-19	1	sequence	delay	dot	NaN	NaN	NaN	NaN	NaN	NaN	NaN	NaN	NaN	NaN	NaN	NaN
1033.8001909999994	0.6924	sub-19	1	sequence	choice	choice	right	NaN	NaN	0.6603873999993084	True	NaN	NaN	right	True	5.0	2.0	2.0
1034.4928425999997	0.5	sub-19	1	sequence	feedback	NaN	NaN	NaN	NaN	NaN	NaN	NaN	NaN	NaN	NaN	NaN	NaN	NaN
1034.9930744999992	1.0006	sub-19	1	sequence	cue	Katze	NaN	NaN	NaN	NaN	NaN	NaN	NaN	NaN	NaN	NaN	NaN	NaN
1035.9936484	2.0016	sub-19	1	sequence	blank	blank	NaN	NaN	NaN	NaN	NaN	NaN	NaN	NaN	NaN	NaN	NaN	NaN
1037.9952414	0.3002	sub-19	1	sequence	fixation	dot	NaN	NaN	NaN	NaN	NaN	NaN	NaN	NaN	NaN	NaN	NaN	NaN
1038.3129532999992	0.0993	sub-19	1	sequence	stimulus	Gesicht	NaN	NaN	32.0	NaN	NaN	1.0	1.0	NaN	NaN	NaN	NaN	NaN
1038.412247599999	0.0334	sub-19	1	sequence	interval	dot	NaN	NaN	NaN	NaN	NaN	NaN	NaN	NaN	NaN	NaN	NaN	NaN
1038.4456949999994	0.1	sub-19	1	sequence	stimulus	Stuhl	NaN	NaN	32.0	NaN	NaN	5.0	2.0	NaN	NaN	NaN	NaN	NaN
1038.5456887	0.0335	sub-19	1	sequence	interval	dot	NaN	NaN	NaN	NaN	NaN	NaN	NaN	NaN	NaN	NaN	NaN	NaN
1038.5791457999994	0.1	sub-19	1	sequence	stimulus	Haus	NaN	NaN	32.0	NaN	NaN	2.0	3.0	NaN	NaN	NaN	NaN	NaN
1038.6791537999998	0.0334	sub-19	1	sequence	interval	dot	NaN	NaN	NaN	NaN	NaN	NaN	NaN	NaN	NaN	NaN	NaN	NaN
1038.7125822999997	0.1	sub-19	1	sequence	stimulus	Katze	NaN	NaN	32.0	NaN	NaN	3.0	4.0	NaN	NaN	NaN	NaN	NaN
1038.8125843999997	0.0334	sub-19	1	sequence	interval	dot	NaN	NaN	NaN	NaN	NaN	NaN	NaN	NaN	NaN	NaN	NaN	NaN
1038.8460219999995	0.1	sub-19	1	sequence	stimulus	Schuh	NaN	NaN	32.0	NaN	NaN	4.0	5.0	NaN	NaN	NaN	NaN	NaN
1038.946016	0.0334	sub-19	1	sequence	interval	dot	NaN	NaN	NaN	NaN	NaN	NaN	NaN	NaN	NaN	NaN	NaN	NaN
1038.9793664999995	8.5385	sub-19	1	sequence	delay	dot	NaN	NaN	NaN	NaN	NaN	NaN	NaN	NaN	NaN	NaN	NaN	NaN
1047.501883	1.002	sub-19	1	sequence	choice	choice	right	NaN	NaN	0.9740983000001506	True	NaN	NaN	right	True	3.0	4.0	4.0
1048.5041536	0.5	sub-19	1	sequence	feedback	NaN	NaN	NaN	NaN	NaN	NaN	NaN	NaN	NaN	NaN	NaN	NaN	NaN
1049.0043209999994	1.0008	sub-19	1	sequence	cue	Gesicht	NaN	NaN	NaN	NaN	NaN	NaN	NaN	NaN	NaN	NaN	NaN	NaN
1050.0051078999995	2.0017	sub-19	1	sequence	blank	blank	NaN	NaN	NaN	NaN	NaN	NaN	NaN	NaN	NaN	NaN	NaN	NaN
1052.0068163999997	0.3002	sub-19	1	sequence	fixation	dot	NaN	NaN	NaN	NaN	NaN	NaN	NaN	NaN	NaN	NaN	NaN	NaN
1052.3253366999998	0.1151	sub-19	1	sequence	stimulus	Haus	NaN	NaN	512.0	NaN	NaN	2.0	1.0	NaN	NaN	NaN	NaN	NaN
1052.4404613999995	0.5172	sub-19	1	sequence	interval	dot	NaN	NaN	NaN	NaN	NaN	NaN	NaN	NaN	NaN	NaN	NaN	NaN
1052.9576929999994	0.1	sub-19	1	sequence	stimulus	Stuhl	NaN	NaN	512.0	NaN	NaN	5.0	2.0	NaN	NaN	NaN	NaN	NaN
1053.0577116999991	0.517	sub-19	1	sequence	interval	dot	NaN	NaN	NaN	NaN	NaN	NaN	NaN	NaN	NaN	NaN	NaN	NaN
1053.5747511	0.1	sub-19	1	sequence	stimulus	Katze	NaN	NaN	512.0	NaN	NaN	3.0	3.0	NaN	NaN	NaN	NaN	NaN
1053.6747331999995	0.5171	sub-19	1	sequence	interval	dot	NaN	NaN	NaN	NaN	NaN	NaN	NaN	NaN	NaN	NaN	NaN	NaN
1054.1918645999997	0.1	sub-19	1	sequence	stimulus	Gesicht	NaN	NaN	512.0	NaN	NaN	1.0	4.0	NaN	NaN	NaN	NaN	NaN
1054.2918997999996	0.5172	sub-19	1	sequence	interval	dot	NaN	NaN	NaN	NaN	NaN	NaN	NaN	NaN	NaN	NaN	NaN	NaN
1054.809078599999	0.1	sub-19	1	sequence	stimulus	Schuh	NaN	NaN	512.0	NaN	NaN	4.0	5.0	NaN	NaN	NaN	NaN	NaN
1054.9090444999993	0.517	sub-19	1	sequence	interval	dot	NaN	NaN	NaN	NaN	NaN	NaN	NaN	NaN	NaN	NaN	NaN	NaN
1055.4260426	6.1366	sub-19	1	sequence	delay	dot	NaN	NaN	NaN	NaN	NaN	NaN	NaN	NaN	NaN	NaN	NaN	NaN
1061.5416396	0.8069	sub-19	1	sequence	choice	choice	left	NaN	NaN	0.7852589000003718	True	NaN	NaN	left	True	4.0	3.0	4.0
1062.348744999999	0.5	sub-19	1	sequence	feedback	NaN	NaN	NaN	NaN	NaN	NaN	NaN	NaN	NaN	NaN	NaN	NaN	NaN
1066.6693160999994	0.4995	sub-19	1	localizer	stimulus	Schuh	NaN	180	2.268362099999649	NaN	False	NaN	NaN	NaN	NaN	NaN	NaN	NaN
1067.1523011	2.2684	sub-19	1	localizer	blank	interval	NaN	NaN	NaN	NaN	NaN	NaN	NaN	NaN	NaN	NaN	NaN	NaN
1069.7219073999995	0.4994	sub-19	1	localizer	stimulus	Gesicht	NaN	0	2.956855599999699	NaN	True	NaN	NaN	NaN	NaN	NaN	NaN	NaN
1070.2049644999995	2.9569	sub-19	1	localizer	blank	interval	NaN	NaN	NaN	NaN	NaN	NaN	NaN	NaN	NaN	NaN	NaN	NaN
1073.4751401999993	0.4994	sub-19	1	localizer	stimulus	Haus	NaN	0	2.9854158000000552	NaN	True	NaN	NaN	NaN	NaN	NaN	NaN	NaN
1073.9413379999996	2.9854	sub-19	1	localizer	blank	interval	NaN	NaN	NaN	NaN	NaN	NaN	NaN	NaN	NaN	NaN	NaN	NaN
1077.2278124999991	0.4996	sub-19	1	localizer	stimulus	Stuhl	NaN	0	2.8523033999999825	NaN	True	NaN	NaN	NaN	NaN	NaN	NaN	NaN
1077.7108703999993	2.8523	sub-19	1	localizer	blank	interval	NaN	NaN	NaN	NaN	NaN	NaN	NaN	NaN	NaN	NaN	NaN	NaN
1080.864114	0.4996	sub-19	1	localizer	stimulus	Schuh	NaN	0	3.252537100000154	NaN	True	NaN	NaN	NaN	NaN	NaN	NaN	NaN
1081.3471252999998	3.2525	sub-19	1	localizer	blank	interval	NaN	NaN	NaN	NaN	NaN	NaN	NaN	NaN	NaN	NaN	NaN	NaN
1084.9007265	0.4996	sub-19	1	localizer	stimulus	Schuh	NaN	0	3.0023684999996476	NaN	True	NaN	NaN	NaN	NaN	NaN	NaN	NaN
1085.3836912999996	3.0024	sub-19	1	localizer	blank	interval	NaN	NaN	NaN	NaN	NaN	NaN	NaN	NaN	NaN	NaN	NaN	NaN
1088.6871386999992	0.4995	sub-19	1	localizer	stimulus	Haus	NaN	0	3.686385099999825	NaN	True	NaN	NaN	NaN	NaN	NaN	NaN	NaN
1089.1701404999994	3.6864	sub-19	1	localizer	blank	interval	NaN	NaN	NaN	NaN	NaN	NaN	NaN	NaN	NaN	NaN	NaN	NaN
1093.1575138999997	0.5142	sub-19	1	localizer	stimulus	Haus	NaN	0	3.0709200999999666	NaN	True	NaN	NaN	NaN	NaN	NaN	NaN	NaN
1093.6385278999996	3.0709	sub-19	1	localizer	blank	interval	NaN	NaN	NaN	NaN	NaN	NaN	NaN	NaN	NaN	NaN	NaN	NaN
1097.0105162999998	0.4997	sub-19	1	localizer	stimulus	Katze	NaN	0	2.1516445000008844	NaN	True	NaN	NaN	NaN	NaN	NaN	NaN	NaN
1097.493514299999	2.1516	sub-19	1	localizer	blank	interval	NaN	NaN	NaN	NaN	NaN	NaN	NaN	NaN	NaN	NaN	NaN	NaN
1099.9462447999997	0.4996	sub-19	1	localizer	stimulus	Katze	NaN	0	2.601958199999899	NaN	True	NaN	NaN	NaN	NaN	NaN	NaN	NaN
1100.4292478999996	2.602	sub-19	1	localizer	blank	interval	NaN	NaN	NaN	NaN	NaN	NaN	NaN	NaN	NaN	NaN	NaN	NaN
1103.3323432999996	0.4997	sub-19	1	localizer	stimulus	Haus	NaN	180	1.517606500000511	0.5355202999999165	True	NaN	NaN	NaN	NaN	NaN	NaN	NaN
1103.8154780999994	1.5176	sub-19	1	localizer	blank	interval	NaN	NaN	NaN	NaN	NaN	NaN	NaN	NaN	NaN	NaN	NaN	NaN
1105.6341899999998	0.4995	sub-19	1	localizer	stimulus	Schuh	NaN	0	3.069038999999975	NaN	True	NaN	NaN	NaN	NaN	NaN	NaN	NaN
1106.1171986999998	3.069	sub-19	1	localizer	blank	interval	NaN	NaN	NaN	NaN	NaN	NaN	NaN	NaN	NaN	NaN	NaN	NaN
1109.4873092999997	0.4996	sub-19	1	localizer	stimulus	Stuhl	NaN	0	2.9023723000000246	NaN	True	NaN	NaN	NaN	NaN	NaN	NaN	NaN
1109.9702779	2.9024	sub-19	1	localizer	blank	interval	NaN	NaN	NaN	NaN	NaN	NaN	NaN	NaN	NaN	NaN	NaN	NaN
1113.1736676	0.4996	sub-19	1	localizer	stimulus	Katze	NaN	0	3.3024588000000676	NaN	True	NaN	NaN	NaN	NaN	NaN	NaN	NaN
1113.6567397999995	3.3025	sub-19	1	localizer	blank	interval	NaN	NaN	NaN	NaN	NaN	NaN	NaN	NaN	NaN	NaN	NaN	NaN
1117.2602793999995	0.4996	sub-19	1	localizer	stimulus	Gesicht	NaN	180	2.8021097000000736	0.5116234999995868	True	NaN	NaN	NaN	NaN	NaN	NaN	NaN
1117.7432645	2.8021	sub-19	1	localizer	blank	interval	NaN	NaN	NaN	NaN	NaN	NaN	NaN	NaN	NaN	NaN	NaN	NaN
