onset	duration	subject	session	condition	trial_type	stim_label	key_down	orientation	interval_time	response_time	accuracy	stim_index	serial_position	key_expected	key_pressed	choice_left	choice_right	choice_correct
1.2529971999992997	1.5206	sub-01	1	instruction	instruction	language_selection	german	NaN	NaN	NaN	NaN	NaN	NaN	NaN	NaN	NaN	NaN	NaN
36.33461100000022	0.4994	sub-01	1	localizer	stimulus	Katze	NaN	0	2.5351573999996617	NaN	1.0	NaN	NaN	NaN	NaN	NaN	NaN	NaN
36.81760089999989	2.5352	sub-01	1	localizer	blank	interval	NaN	NaN	NaN	NaN	NaN	NaN	NaN	NaN	NaN	NaN	NaN	NaN
39.6539359999988	0.4995	sub-01	1	localizer	stimulus	Stuhl	NaN	0	2.8190240999992895	NaN	True	NaN	NaN	NaN	NaN	NaN	NaN	NaN
40.13685160000023	2.819	sub-01	1	localizer	blank	interval	NaN	NaN	NaN	NaN	NaN	NaN	NaN	NaN	NaN	NaN	NaN	NaN
43.25696199999948	0.4995	sub-01	1	localizer	stimulus	Schuh	NaN	0	2.351756000000023	NaN	True	NaN	NaN	NaN	NaN	NaN	NaN	NaN
43.73985299999913	2.3518	sub-01	1	localizer	blank	interval	NaN	NaN	NaN	NaN	NaN	NaN	NaN	NaN	NaN	NaN	NaN	NaN
46.39276059999975	0.4996	sub-01	1	localizer	stimulus	Schuh	NaN	180	2.5351511999997527	-43.58341360000122	True	NaN	NaN	NaN	NaN	NaN	NaN	NaN
46.87578509999912	2.5352	sub-01	1	localizer	blank	interval	NaN	NaN	NaN	NaN	NaN	NaN	NaN	NaN	NaN	NaN	NaN	NaN
49.71205249999912	0.4995	sub-01	1	localizer	stimulus	Katze	NaN	0	2.4354354000006424	NaN	True	NaN	NaN	NaN	NaN	NaN	NaN	NaN
50.19496959999924	2.4354	sub-01	1	localizer	blank	interval	NaN	NaN	NaN	NaN	NaN	NaN	NaN	NaN	NaN	NaN	NaN	NaN
52.93148929999916	0.4994	sub-01	1	localizer	stimulus	Schuh	NaN	0	2.485119199998735	NaN	True	NaN	NaN	NaN	NaN	NaN	NaN	NaN
53.41433560000041	2.4851	sub-01	1	localizer	blank	interval	NaN	NaN	NaN	NaN	NaN	NaN	NaN	NaN	NaN	NaN	NaN	NaN
56.20064129999992	0.4996	sub-01	1	localizer	stimulus	Haus	NaN	180	2.268411400000332	-43.55140229999961	True	NaN	NaN	NaN	NaN	NaN	NaN	NaN
56.68359409999903	2.2684	sub-01	1	localizer	blank	interval	NaN	NaN	NaN	NaN	NaN	NaN	NaN	NaN	NaN	NaN	NaN	NaN
59.253087299999606	0.4996	sub-01	1	localizer	stimulus	Stuhl	NaN	0	2.63537880000149	NaN	True	NaN	NaN	NaN	NaN	NaN	NaN	NaN
59.73600069999884	2.6354	sub-01	1	localizer	blank	interval	NaN	NaN	NaN	NaN	NaN	NaN	NaN	NaN	NaN	NaN	NaN	NaN
62.672533199998725	0.4996	sub-01	1	localizer	stimulus	Stuhl	NaN	180	2.1016256000002613	-43.63925720000043	True	NaN	NaN	NaN	NaN	NaN	NaN	NaN
63.155539899998985	2.1016	sub-01	1	localizer	blank	interval	NaN	NaN	NaN	NaN	NaN	NaN	NaN	NaN	NaN	NaN	NaN	NaN
65.55833439999878	0.4995	sub-01	1	localizer	stimulus	Katze	NaN	0	2.9856096999992587	NaN	True	NaN	NaN	NaN	NaN	NaN	NaN	NaN
66.04131749999942	2.9856	sub-01	1	localizer	blank	interval	NaN	NaN	NaN	NaN	NaN	NaN	NaN	NaN	NaN	NaN	NaN	NaN
69.32812240000021	0.4993	sub-01	1	localizer	stimulus	Gesicht	NaN	0	2.535499300000083	-43.63846400000148	False	NaN	NaN	NaN	NaN	NaN	NaN	NaN
69.81086789999972	2.5355	sub-01	1	localizer	blank	interval	NaN	NaN	NaN	NaN	NaN	NaN	NaN	NaN	NaN	NaN	NaN	NaN
72.64727019999918	0.4996	sub-01	1	localizer	stimulus	Gesicht	NaN	0	2.7019317999984196	NaN	True	NaN	NaN	NaN	NaN	NaN	NaN	NaN
73.13035800000034	2.7019	sub-01	1	localizer	blank	interval	NaN	NaN	NaN	NaN	NaN	NaN	NaN	NaN	NaN	NaN	NaN	NaN
76.13342929999999	0.4994	sub-01	1	localizer	stimulus	Haus	NaN	0	1.7512279000002309	NaN	True	NaN	NaN	NaN	NaN	NaN	NaN	NaN
76.61640939999961	1.7512	sub-01	1	localizer	blank	interval	NaN	NaN	NaN	NaN	NaN	NaN	NaN	NaN	NaN	NaN	NaN	NaN
78.66885369999909	0.4994	sub-01	1	localizer	stimulus	Haus	NaN	0	2.4184767000006104	NaN	True	NaN	NaN	NaN	NaN	NaN	NaN	NaN
79.1517359999998	2.4185	sub-01	1	localizer	blank	interval	NaN	NaN	NaN	NaN	NaN	NaN	NaN	NaN	NaN	NaN	NaN	NaN
81.87139369999932	0.4995	sub-01	1	localizer	stimulus	Gesicht	NaN	0	1.5510670999992726	NaN	True	NaN	NaN	NaN	NaN	NaN	NaN	NaN
82.35439919999953	1.5511	sub-01	1	localizer	blank	interval	NaN	NaN	NaN	NaN	NaN	NaN	NaN	NaN	NaN	NaN	NaN	NaN
84.20670570000038	0.4994	sub-01	1	localizer	stimulus	Schuh	NaN	0	2.952340899999399	NaN	True	NaN	NaN	NaN	NaN	NaN	NaN	NaN
84.68956099999923	2.9523	sub-01	1	localizer	blank	interval	NaN	NaN	NaN	NaN	NaN	NaN	NaN	NaN	NaN	NaN	NaN	NaN
87.9431327000002	0.4994	sub-01	1	localizer	stimulus	Stuhl	NaN	0	2.5184780999989016	NaN	True	NaN	NaN	NaN	NaN	NaN	NaN	NaN
88.42601439999999	2.5185	sub-01	1	localizer	blank	interval	NaN	NaN	NaN	NaN	NaN	NaN	NaN	NaN	NaN	NaN	NaN	NaN
91.2456887999997	0.4994	sub-01	1	localizer	stimulus	Haus	NaN	0	2.8856197000004613	NaN	True	NaN	NaN	NaN	NaN	NaN	NaN	NaN
91.7285809999994	2.8856	sub-01	1	localizer	blank	interval	NaN	NaN	NaN	NaN	NaN	NaN	NaN	NaN	NaN	NaN	NaN	NaN
94.91531959999884	0.4996	sub-01	1	localizer	stimulus	Katze	NaN	180	1.367624700000306	-43.63337320000028	True	NaN	NaN	NaN	NaN	NaN	NaN	NaN
95.39834109999902	1.3676	sub-01	1	localizer	blank	interval	NaN	NaN	NaN	NaN	NaN	NaN	NaN	NaN	NaN	NaN	NaN	NaN
97.06705559999864	0.4995	sub-01	1	localizer	stimulus	Katze	NaN	0	3.2191366000006383	NaN	True	NaN	NaN	NaN	NaN	NaN	NaN	NaN
97.54997209999964	3.2191	sub-01	1	localizer	blank	interval	NaN	NaN	NaN	NaN	NaN	NaN	NaN	NaN	NaN	NaN	NaN	NaN
101.07029820000024	0.4994	sub-01	1	localizer	stimulus	Haus	NaN	0	2.2016015000008338	NaN	True	NaN	NaN	NaN	NaN	NaN	NaN	NaN
101.55324349999864	2.2016	sub-01	1	localizer	blank	interval	NaN	NaN	NaN	NaN	NaN	NaN	NaN	NaN	NaN	NaN	NaN	NaN
104.05601539999952	0.4995	sub-01	1	localizer	stimulus	Schuh	NaN	0	1.5177609000002121	NaN	True	NaN	NaN	NaN	NaN	NaN	NaN	NaN
104.53894949999994	1.5178	sub-01	1	localizer	blank	interval	NaN	NaN	NaN	NaN	NaN	NaN	NaN	NaN	NaN	NaN	NaN	NaN
106.3579264	0.4996	sub-01	1	localizer	stimulus	Gesicht	NaN	180	2.535233900000108	-43.60390950000146	True	NaN	NaN	NaN	NaN	NaN	NaN	NaN
106.84102389999862	2.5352	sub-01	1	localizer	blank	interval	NaN	NaN	NaN	NaN	NaN	NaN	NaN	NaN	NaN	NaN	NaN	NaN
109.67742829999952	0.4999	sub-01	1	localizer	stimulus	Stuhl	NaN	0	2.4010026000014477	NaN	True	NaN	NaN	NaN	NaN	NaN	NaN	NaN
110.16096449999895	2.401	sub-01	1	localizer	blank	interval	NaN	NaN	NaN	NaN	NaN	NaN	NaN	NaN	NaN	NaN	NaN	NaN
112.86334239999996	0.4993	sub-01	1	localizer	stimulus	Gesicht	NaN	0	3.252639000000258	NaN	True	NaN	NaN	NaN	NaN	NaN	NaN	NaN
113.34605550000016	3.2526	sub-01	1	localizer	blank	interval	NaN	NaN	NaN	NaN	NaN	NaN	NaN	NaN	NaN	NaN	NaN	NaN
120.0850234999998	1.0006	sub-01	1	sequence	cue	Schuh	NaN	NaN	NaN	NaN	NaN	NaN	NaN	NaN	NaN	NaN	NaN	NaN
121.0856251999994	2.0018	sub-01	1	sequence	blank	blank	NaN	NaN	NaN	NaN	NaN	NaN	NaN	NaN	NaN	NaN	NaN	NaN
123.08740489999946	0.3002	sub-01	1	sequence	fixation	dot	NaN	NaN	NaN	NaN	NaN	NaN	NaN	NaN	NaN	NaN	NaN	NaN
123.45258499999908	0.1016	sub-01	1	sequence	stimulus	Haus	NaN	NaN	32.0	NaN	NaN	2.0	1.0	NaN	NaN	NaN	NaN	NaN
123.55422050000016	0.0335	sub-01	1	sequence	interval	dot	NaN	NaN	NaN	NaN	NaN	NaN	NaN	NaN	NaN	NaN	NaN	NaN
123.58773819999988	0.0999	sub-01	1	sequence	stimulus	Gesicht	NaN	NaN	32.0	NaN	NaN	1.0	2.0	NaN	NaN	NaN	NaN	NaN
123.6876400000001	0.0335	sub-01	1	sequence	interval	dot	NaN	NaN	NaN	NaN	NaN	NaN	NaN	NaN	NaN	NaN	NaN	NaN
123.7211643999999	0.1	sub-01	1	sequence	stimulus	Stuhl	NaN	NaN	32.0	NaN	NaN	5.0	3.0	NaN	NaN	NaN	NaN	NaN
123.82112309999866	0.0334	sub-01	1	sequence	interval	dot	NaN	NaN	NaN	NaN	NaN	NaN	NaN	NaN	NaN	NaN	NaN	NaN
123.85457159999896	0.1	sub-01	1	sequence	stimulus	Katze	NaN	NaN	32.0	NaN	NaN	3.0	4.0	NaN	NaN	NaN	NaN	NaN
123.95453069999894	0.0335	sub-01	1	sequence	interval	dot	NaN	NaN	NaN	NaN	NaN	NaN	NaN	NaN	NaN	NaN	NaN	NaN
123.98800309999932	0.0999	sub-01	1	sequence	stimulus	Schuh	NaN	NaN	32.0	NaN	NaN	4.0	5.0	NaN	NaN	NaN	NaN	NaN
124.08794539999872	0.0334	sub-01	1	sequence	interval	dot	NaN	NaN	NaN	NaN	NaN	NaN	NaN	NaN	NaN	NaN	NaN	NaN
124.1213532999991	8.5385	sub-01	1	sequence	delay	dot	NaN	NaN	NaN	NaN	NaN	NaN	NaN	NaN	NaN	NaN	NaN	NaN
132.64250869999887	1.6208	sub-01	1	sequence	choice	choice	left	NaN	NaN	-42.56210230000215	True	NaN	NaN	left	1.0	5.0	4.0	5.0
134.26374059999944	0.4998	sub-01	1	sequence	feedback	NaN	NaN	NaN	NaN	NaN	NaN	NaN	NaN	NaN	NaN	NaN	NaN	NaN
134.76362869999866	1.0006	sub-01	1	sequence	cue	Stuhl	NaN	NaN	NaN	NaN	NaN	NaN	NaN	NaN	NaN	NaN	NaN	NaN
135.7642863000001	2.0016	sub-01	1	sequence	blank	blank	NaN	NaN	NaN	NaN	NaN	NaN	NaN	NaN	NaN	NaN	NaN	NaN
137.7659150999989	0.3002	sub-01	1	sequence	fixation	dot	NaN	NaN	NaN	NaN	NaN	NaN	NaN	NaN	NaN	NaN	NaN	NaN
138.0840907999991	0.1155	sub-01	1	sequence	stimulus	Gesicht	NaN	NaN	64.0	NaN	NaN	1.0	1.0	NaN	NaN	NaN	NaN	NaN
138.1995709999992	0.0669	sub-01	1	sequence	interval	dot	NaN	NaN	NaN	NaN	NaN	NaN	NaN	NaN	NaN	NaN	NaN	NaN
138.26646099999925	0.0999	sub-01	1	sequence	stimulus	Haus	NaN	NaN	64.0	NaN	NaN	2.0	2.0	NaN	NaN	NaN	NaN	NaN
138.36636410000028	0.0669	sub-01	1	sequence	interval	dot	NaN	NaN	NaN	NaN	NaN	NaN	NaN	NaN	NaN	NaN	NaN	NaN
138.43321540000034	0.0999	sub-01	1	sequence	stimulus	Katze	NaN	NaN	64.0	NaN	NaN	3.0	3.0	NaN	NaN	NaN	NaN	NaN
138.53312449999976	0.0669	sub-01	1	sequence	interval	dot	NaN	NaN	NaN	NaN	NaN	NaN	NaN	NaN	NaN	NaN	NaN	NaN
138.59998280000036	0.0999	sub-01	1	sequence	stimulus	Schuh	NaN	NaN	64.0	NaN	NaN	4.0	4.0	NaN	NaN	NaN	NaN	NaN
138.6998380999994	0.0668	sub-01	1	sequence	interval	dot	NaN	NaN	NaN	NaN	NaN	NaN	NaN	NaN	NaN	NaN	NaN	NaN
138.76660979999906	0.1	sub-01	1	sequence	stimulus	Stuhl	NaN	NaN	64.0	NaN	NaN	5.0	5.0	NaN	NaN	NaN	NaN	NaN
138.8666164999995	0.0667	sub-01	1	sequence	interval	dot	NaN	NaN	NaN	NaN	NaN	NaN	NaN	NaN	NaN	NaN	NaN	NaN
138.93332050000026	8.3884	sub-01	1	sequence	delay	dot	NaN	NaN	NaN	NaN	NaN	NaN	NaN	NaN	NaN	NaN	NaN	NaN
147.30628099999922	1.1355	sub-01	1	sequence	choice	choice	right	NaN	NaN	-43.04822160000003	True	NaN	NaN	right	True	2.0	5.0	5.0
148.44209310000042	0.4999	sub-01	1	sequence	feedback	NaN	NaN	NaN	NaN	NaN	NaN	NaN	NaN	NaN	NaN	NaN	NaN	NaN
148.9422109999996	1.0003	sub-01	1	sequence	cue	Haus	NaN	NaN	NaN	NaN	NaN	NaN	NaN	NaN	NaN	NaN	NaN	NaN
149.94252239999878	2.0013	sub-01	1	sequence	blank	blank	NaN	NaN	NaN	NaN	NaN	NaN	NaN	NaN	NaN	NaN	NaN	NaN
151.94384659999923	0.3003	sub-01	1	sequence	fixation	dot	NaN	NaN	NaN	NaN	NaN	NaN	NaN	NaN	NaN	NaN	NaN	NaN
152.2617365999995	0.0991	sub-01	1	sequence	stimulus	Stuhl	NaN	NaN	32.0	NaN	NaN	5.0	1.0	NaN	NaN	NaN	NaN	NaN
152.36083739999958	0.0335	sub-01	1	sequence	interval	dot	NaN	NaN	NaN	NaN	NaN	NaN	NaN	NaN	NaN	NaN	NaN	NaN
152.39434400000027	0.0999	sub-01	1	sequence	stimulus	Schuh	NaN	NaN	32.0	NaN	NaN	4.0	2.0	NaN	NaN	NaN	NaN	NaN
152.4942790999994	0.0335	sub-01	1	sequence	interval	dot	NaN	NaN	NaN	NaN	NaN	NaN	NaN	NaN	NaN	NaN	NaN	NaN
152.52775479999946	0.1	sub-01	1	sequence	stimulus	Haus	NaN	NaN	32.0	NaN	NaN	2.0	3.0	NaN	NaN	NaN	NaN	NaN
152.62772029999903	0.0335	sub-01	1	sequence	interval	dot	NaN	NaN	NaN	NaN	NaN	NaN	NaN	NaN	NaN	NaN	NaN	NaN
152.66122790000009	0.0999	sub-01	1	sequence	stimulus	Gesicht	NaN	NaN	32.0	NaN	NaN	1.0	4.0	NaN	NaN	NaN	NaN	NaN
152.76115199999913	0.0335	sub-01	1	sequence	interval	dot	NaN	NaN	NaN	NaN	NaN	NaN	NaN	NaN	NaN	NaN	NaN	NaN
152.79462880000028	0.1	sub-01	1	sequence	stimulus	Katze	NaN	NaN	32.0	NaN	NaN	3.0	5.0	NaN	NaN	NaN	NaN	NaN
152.89459999999963	0.0334	sub-01	1	sequence	interval	dot	NaN	NaN	NaN	NaN	NaN	NaN	NaN	NaN	NaN	NaN	NaN	NaN
152.92796019999878	8.5386	sub-01	1	sequence	delay	dot	NaN	NaN	NaN	NaN	NaN	NaN	NaN	NaN	NaN	NaN	NaN	NaN
161.45001319999938	1.5534	sub-01	1	sequence	choice	choice	right	NaN	NaN	-42.64086290000159	True	NaN	NaN	right	True	4.0	3.0	3.0
163.00371610000002	0.4997	sub-01	1	sequence	feedback	NaN	NaN	NaN	NaN	NaN	NaN	NaN	NaN	NaN	NaN	NaN	NaN	NaN
163.50354439999865	1.0005	sub-01	1	sequence	cue	Stuhl	NaN	NaN	NaN	NaN	NaN	NaN	NaN	NaN	NaN	NaN	NaN	NaN
164.5040358999995	2.0016	sub-01	1	sequence	blank	blank	NaN	NaN	NaN	NaN	NaN	NaN	NaN	NaN	NaN	NaN	NaN	NaN
166.5056513999989	0.3005	sub-01	1	sequence	fixation	dot	NaN	NaN	NaN	NaN	NaN	NaN	NaN	NaN	NaN	NaN	NaN	NaN
166.8242847000001	0.1152	sub-01	1	sequence	stimulus	Gesicht	NaN	NaN	512.0	NaN	NaN	1.0	1.0	NaN	NaN	NaN	NaN	NaN
166.93944439999905	0.5173	sub-01	1	sequence	interval	dot	NaN	NaN	NaN	NaN	NaN	NaN	NaN	NaN	NaN	NaN	NaN	NaN
167.45673949999946	0.0999	sub-01	1	sequence	stimulus	Haus	NaN	NaN	512.0	NaN	NaN	2.0	2.0	NaN	NaN	NaN	NaN	NaN
167.5566848999988	0.5171	sub-01	1	sequence	interval	dot	NaN	NaN	NaN	NaN	NaN	NaN	NaN	NaN	NaN	NaN	NaN	NaN
168.0738156999996	0.1	sub-01	1	sequence	stimulus	Stuhl	NaN	NaN	512.0	NaN	NaN	5.0	3.0	NaN	NaN	NaN	NaN	NaN
168.17381279999972	0.5171	sub-01	1	sequence	interval	dot	NaN	NaN	NaN	NaN	NaN	NaN	NaN	NaN	NaN	NaN	NaN	NaN
168.69091169999956	0.1	sub-01	1	sequence	stimulus	Schuh	NaN	NaN	512.0	NaN	NaN	4.0	4.0	NaN	NaN	NaN	NaN	NaN
168.79090689999975	0.5172	sub-01	1	sequence	interval	dot	NaN	NaN	NaN	NaN	NaN	NaN	NaN	NaN	NaN	NaN	NaN	NaN
169.30814029999965	0.1	sub-01	1	sequence	stimulus	Katze	NaN	NaN	512.0	NaN	NaN	3.0	5.0	NaN	NaN	NaN	NaN	NaN
169.40812410000035	0.5171	sub-01	1	sequence	interval	dot	NaN	NaN	NaN	NaN	NaN	NaN	NaN	NaN	NaN	NaN	NaN	NaN
169.92523379999875	6.1534	sub-01	1	sequence	delay	dot	NaN	NaN	NaN	NaN	NaN	NaN	NaN	NaN	NaN	NaN	NaN	NaN
176.06169599999885	1.0199	sub-01	1	sequence	choice	choice	right	NaN	NaN	-43.17285679999986	True	NaN	NaN	right	True	5.0	3.0	3.0
177.08188569999948	0.4998	sub-01	1	sequence	feedback	NaN	NaN	NaN	NaN	NaN	NaN	NaN	NaN	NaN	NaN	NaN	NaN	NaN
177.5818808999993	1.0004	sub-01	1	sequence	cue	Gesicht	NaN	NaN	NaN	NaN	NaN	NaN	NaN	NaN	NaN	NaN	NaN	NaN
178.58233990000008	2.0016	sub-01	1	sequence	blank	blank	NaN	NaN	NaN	NaN	NaN	NaN	NaN	NaN	NaN	NaN	NaN	NaN
180.5839397999989	0.3	sub-01	1	sequence	fixation	dot	NaN	NaN	NaN	NaN	NaN	NaN	NaN	NaN	NaN	NaN	NaN	NaN
180.9015493999996	0.0991	sub-01	1	sequence	stimulus	Haus	NaN	NaN	512.0	NaN	NaN	2.0	1.0	NaN	NaN	NaN	NaN	NaN
181.0006491000004	0.5172	sub-01	1	sequence	interval	dot	NaN	NaN	NaN	NaN	NaN	NaN	NaN	NaN	NaN	NaN	NaN	NaN
181.51789719999945	0.1	sub-01	1	sequence	stimulus	Katze	NaN	NaN	512.0	NaN	NaN	3.0	2.0	NaN	NaN	NaN	NaN	NaN
181.6178473999989	0.5172	sub-01	1	sequence	interval	dot	NaN	NaN	NaN	NaN	NaN	NaN	NaN	NaN	NaN	NaN	NaN	NaN
182.13504929999908	0.0999	sub-01	1	sequence	stimulus	Stuhl	NaN	NaN	512.0	NaN	NaN	5.0	3.0	NaN	NaN	NaN	NaN	NaN
182.23496869999872	0.5172	sub-01	1	sequence	interval	dot	NaN	NaN	NaN	NaN	NaN	NaN	NaN	NaN	NaN	NaN	NaN	NaN
182.7522055999998	0.0999	sub-01	1	sequence	stimulus	Schuh	NaN	NaN	512.0	NaN	NaN	4.0	4.0	NaN	NaN	NaN	NaN	NaN
182.85214439999984	0.5173	sub-01	1	sequence	interval	dot	NaN	NaN	NaN	NaN	NaN	NaN	NaN	NaN	NaN	NaN	NaN	NaN
183.36943409999915	0.0999	sub-01	1	sequence	stimulus	Gesicht	NaN	NaN	512.0	NaN	NaN	1.0	5.0	NaN	NaN	NaN	NaN	NaN
183.4693303000004	0.5172	sub-01	1	sequence	interval	dot	NaN	NaN	NaN	NaN	NaN	NaN	NaN	NaN	NaN	NaN	NaN	NaN
183.9864945999998	6.1536	sub-01	1	sequence	delay	dot	NaN	NaN	NaN	NaN	NaN	NaN	NaN	NaN	NaN	NaN	NaN	NaN
190.12737519999973	1.0322	sub-01	1	sequence	choice	choice	left	NaN	NaN	-43.15426160000061	True	NaN	NaN	left	True	5.0	3.0	5.0
191.15986919999887	0.4997	sub-01	1	sequence	feedback	NaN	NaN	NaN	NaN	NaN	NaN	NaN	NaN	NaN	NaN	NaN	NaN	NaN
191.65976659999976	1.0005	sub-01	1	sequence	cue	Schuh	NaN	NaN	NaN	NaN	NaN	NaN	NaN	NaN	NaN	NaN	NaN	NaN
192.66030039999896	2.0014	sub-01	1	sequence	blank	blank	NaN	NaN	NaN	NaN	NaN	NaN	NaN	NaN	NaN	NaN	NaN	NaN
194.6617544000001	0.3003	sub-01	1	sequence	fixation	dot	NaN	NaN	NaN	NaN	NaN	NaN	NaN	NaN	NaN	NaN	NaN	NaN
194.98044329999905	0.115	sub-01	1	sequence	stimulus	Haus	NaN	NaN	128.0	NaN	NaN	2.0	1.0	NaN	NaN	NaN	NaN	NaN
195.0954029000004	0.1336	sub-01	1	sequence	interval	dot	NaN	NaN	NaN	NaN	NaN	NaN	NaN	NaN	NaN	NaN	NaN	NaN
195.22897219999868	0.1	sub-01	1	sequence	stimulus	Katze	NaN	NaN	128.0	NaN	NaN	3.0	2.0	NaN	NaN	NaN	NaN	NaN
195.32893909999984	0.1336	sub-01	1	sequence	interval	dot	NaN	NaN	NaN	NaN	NaN	NaN	NaN	NaN	NaN	NaN	NaN	NaN
195.46250419999888	0.0999	sub-01	1	sequence	stimulus	Stuhl	NaN	NaN	128.0	NaN	NaN	5.0	3.0	NaN	NaN	NaN	NaN	NaN
195.5624441	0.1336	sub-01	1	sequence	interval	dot	NaN	NaN	NaN	NaN	NaN	NaN	NaN	NaN	NaN	NaN	NaN	NaN
195.69603499999903	0.0999	sub-01	1	sequence	stimulus	Gesicht	NaN	NaN	128.0	NaN	NaN	1.0	4.0	NaN	NaN	NaN	NaN	NaN
195.7959804000002	0.1335	sub-01	1	sequence	interval	dot	NaN	NaN	NaN	NaN	NaN	NaN	NaN	NaN	NaN	NaN	NaN	NaN
195.9294773999991	0.1	sub-01	1	sequence	stimulus	Schuh	NaN	NaN	128.0	NaN	NaN	4.0	5.0	NaN	NaN	NaN	NaN	NaN
196.0294937999988	0.1334	sub-01	1	sequence	interval	dot	NaN	NaN	NaN	NaN	NaN	NaN	NaN	NaN	NaN	NaN	NaN	NaN
196.16293399999995	8.0716	sub-01	1	sequence	delay	dot	NaN	NaN	NaN	NaN	NaN	NaN	NaN	NaN	NaN	NaN	NaN	NaN
204.2191482999988	2.5025	sub-01	1	sequence	choice	choice	NaN	NaN	NaN	NaN	False	NaN	NaN	left	False	5.0	1.0	5.0
206.72169419999955	0.5002	sub-01	1	sequence	feedback	NaN	NaN	NaN	NaN	NaN	NaN	NaN	NaN	NaN	NaN	NaN	NaN	NaN
207.2220194000001	1.0009	sub-01	1	sequence	cue	Haus	NaN	NaN	NaN	NaN	NaN	NaN	NaN	NaN	NaN	NaN	NaN	NaN
208.2229342999999	2.0016	sub-01	1	sequence	blank	blank	NaN	NaN	NaN	NaN	NaN	NaN	NaN	NaN	NaN	NaN	NaN	NaN
210.2245480000001	0.3004	sub-01	1	sequence	fixation	dot	NaN	NaN	NaN	NaN	NaN	NaN	NaN	NaN	NaN	NaN	NaN	NaN
210.5435383999993	0.1146	sub-01	1	sequence	stimulus	Katze	NaN	NaN	64.0	NaN	NaN	3.0	1.0	NaN	NaN	NaN	NaN	NaN
210.6581769000004	0.0668	sub-01	1	sequence	interval	dot	NaN	NaN	NaN	NaN	NaN	NaN	NaN	NaN	NaN	NaN	NaN	NaN
210.72500539999965	0.1002	sub-01	1	sequence	stimulus	Schuh	NaN	NaN	64.0	NaN	NaN	4.0	2.0	NaN	NaN	NaN	NaN	NaN
210.825159	0.0668	sub-01	1	sequence	interval	dot	NaN	NaN	NaN	NaN	NaN	NaN	NaN	NaN	NaN	NaN	NaN	NaN
210.8919554000004	0.0999	sub-01	1	sequence	stimulus	Stuhl	NaN	NaN	64.0	NaN	NaN	5.0	3.0	NaN	NaN	NaN	NaN	NaN
210.99181270000008	0.0668	sub-01	1	sequence	interval	dot	NaN	NaN	NaN	NaN	NaN	NaN	NaN	NaN	NaN	NaN	NaN	NaN
211.05859859999876	0.1	sub-01	1	sequence	stimulus	Haus	NaN	NaN	64.0	NaN	NaN	2.0	4.0	NaN	NaN	NaN	NaN	NaN
211.15856299999905	0.0668	sub-01	1	sequence	interval	dot	NaN	NaN	NaN	NaN	NaN	NaN	NaN	NaN	NaN	NaN	NaN	NaN
211.22540320000007	0.1	sub-01	1	sequence	stimulus	Gesicht	NaN	NaN	64.0	NaN	NaN	1.0	5.0	NaN	NaN	NaN	NaN	NaN
211.3253683999992	0.0667	sub-01	1	sequence	interval	dot	NaN	NaN	NaN	NaN	NaN	NaN	NaN	NaN	NaN	NaN	NaN	NaN
211.3920978999995	8.3885	sub-01	1	sequence	delay	dot	NaN	NaN	NaN	NaN	NaN	NaN	NaN	NaN	NaN	NaN	NaN	NaN
219.7667975000004	0.8667	sub-01	1	sequence	choice	choice	left	NaN	NaN	-43.32258270000057	True	NaN	NaN	left	True	4.0	3.0	4.0
220.63375409999932	0.5	sub-01	1	sequence	feedback	NaN	NaN	NaN	NaN	NaN	NaN	NaN	NaN	NaN	NaN	NaN	NaN	NaN
221.13397069999883	1.0002	sub-01	1	sequence	cue	Schuh	NaN	NaN	NaN	NaN	NaN	NaN	NaN	NaN	NaN	NaN	NaN	NaN
222.13417049999956	2.0016	sub-01	1	sequence	blank	blank	NaN	NaN	NaN	NaN	NaN	NaN	NaN	NaN	NaN	NaN	NaN	NaN
224.1357388999986	0.3001	sub-01	1	sequence	fixation	dot	NaN	NaN	NaN	NaN	NaN	NaN	NaN	NaN	NaN	NaN	NaN	NaN
224.4534437000002	0.0991	sub-01	1	sequence	stimulus	Haus	NaN	NaN	128.0	NaN	NaN	2.0	1.0	NaN	NaN	NaN	NaN	NaN
224.55255190000025	0.1337	sub-01	1	sequence	interval	dot	NaN	NaN	NaN	NaN	NaN	NaN	NaN	NaN	NaN	NaN	NaN	NaN
224.6862764999987	0.0998	sub-01	1	sequence	stimulus	Stuhl	NaN	NaN	128.0	NaN	NaN	5.0	2.0	NaN	NaN	NaN	NaN	NaN
224.7860729000004	0.1336	sub-01	1	sequence	interval	dot	NaN	NaN	NaN	NaN	NaN	NaN	NaN	NaN	NaN	NaN	NaN	NaN
224.9197139999997	0.1	sub-01	1	sequence	stimulus	Schuh	NaN	NaN	128.0	NaN	NaN	4.0	3.0	NaN	NaN	NaN	NaN	NaN
225.01974530000007	0.1336	sub-01	1	sequence	interval	dot	NaN	NaN	NaN	NaN	NaN	NaN	NaN	NaN	NaN	NaN	NaN	NaN
225.153299399999	0.0998	sub-01	1	sequence	stimulus	Katze	NaN	NaN	128.0	NaN	NaN	3.0	4.0	NaN	NaN	NaN	NaN	NaN
225.2531416999991	0.1336	sub-01	1	sequence	interval	dot	NaN	NaN	NaN	NaN	NaN	NaN	NaN	NaN	NaN	NaN	NaN	NaN
225.3867155999997	0.1001	sub-01	1	sequence	stimulus	Gesicht	NaN	NaN	128.0	NaN	NaN	1.0	5.0	NaN	NaN	NaN	NaN	NaN
225.4868033999992	0.1333	sub-01	1	sequence	interval	dot	NaN	NaN	NaN	NaN	NaN	NaN	NaN	NaN	NaN	NaN	NaN	NaN
225.62008909999892	8.0718	sub-01	1	sequence	delay	dot	NaN	NaN	NaN	NaN	NaN	NaN	NaN	NaN	NaN	NaN	NaN	NaN
233.67653539999992	0.8514	sub-01	1	sequence	choice	choice	right	NaN	NaN	-43.33038120000128	True	NaN	NaN	right	True	4.0	3.0	3.0
234.52820710000012	0.4998	sub-01	1	sequence	feedback	NaN	NaN	NaN	NaN	NaN	NaN	NaN	NaN	NaN	NaN	NaN	NaN	NaN
238.8486783999997	0.4992	sub-01	1	localizer	stimulus	Gesicht	NaN	0	2.201890000000276	NaN	True	NaN	NaN	NaN	NaN	NaN	NaN	NaN
239.33131109999889	2.2019	sub-01	1	localizer	blank	interval	NaN	NaN	NaN	NaN	NaN	NaN	NaN	NaN	NaN	NaN	NaN	NaN
241.8342053999986	0.4995	sub-01	1	localizer	stimulus	Stuhl	NaN	0	2.7518526000004044	NaN	True	NaN	NaN	NaN	NaN	NaN	NaN	NaN
242.317309	2.7519	sub-01	1	localizer	blank	interval	NaN	NaN	NaN	NaN	NaN	NaN	NaN	NaN	NaN	NaN	NaN	NaN
245.3703463999991	0.4995	sub-01	1	localizer	stimulus	Katze	NaN	0	2.552342599999946	NaN	True	NaN	NaN	NaN	NaN	NaN	NaN	NaN
245.8532548000003	2.5523	sub-01	1	localizer	blank	interval	NaN	NaN	NaN	NaN	NaN	NaN	NaN	NaN	NaN	NaN	NaN	NaN
248.70640040000035	0.4997	sub-01	1	localizer	stimulus	Stuhl	NaN	0	2.918766600001618	NaN	True	NaN	NaN	NaN	NaN	NaN	NaN	NaN
249.18944219999867	2.9188	sub-01	1	localizer	blank	interval	NaN	NaN	NaN	NaN	NaN	NaN	NaN	NaN	NaN	NaN	NaN	NaN
252.40946099999928	0.4993	sub-01	1	localizer	stimulus	Stuhl	NaN	0	1.517767600000326	NaN	True	NaN	NaN	NaN	NaN	NaN	NaN	NaN
252.89229999999952	1.5178	sub-01	1	localizer	blank	interval	NaN	NaN	NaN	NaN	NaN	NaN	NaN	NaN	NaN	NaN	NaN	NaN
254.71122389999985	0.4995	sub-01	1	localizer	stimulus	Haus	NaN	0	2.8688357999999425	NaN	True	NaN	NaN	NaN	NaN	NaN	NaN	NaN
255.1941741999999	2.8688	sub-01	1	localizer	blank	interval	NaN	NaN	NaN	NaN	NaN	NaN	NaN	NaN	NaN	NaN	NaN	NaN
258.36421619999965	0.4994	sub-01	1	localizer	stimulus	Haus	NaN	0	2.919155399998999	NaN	True	NaN	NaN	NaN	NaN	NaN	NaN	NaN
258.8471360000003	2.9192	sub-01	1	localizer	blank	interval	NaN	NaN	NaN	NaN	NaN	NaN	NaN	NaN	NaN	NaN	NaN	NaN
262.0671676000002	0.4997	sub-01	1	localizer	stimulus	Stuhl	NaN	180	2.568436899999142	-43.54545409999992	True	NaN	NaN	NaN	NaN	NaN	NaN	NaN
262.55032740000024	2.5684	sub-01	1	localizer	blank	interval	NaN	NaN	NaN	NaN	NaN	NaN	NaN	NaN	NaN	NaN	NaN	NaN
265.4198672999992	0.4995	sub-01	1	localizer	stimulus	Schuh	NaN	0	2.4353428999984317	NaN	True	NaN	NaN	NaN	NaN	NaN	NaN	NaN
265.90284640000027	2.4353	sub-01	1	localizer	blank	interval	NaN	NaN	NaN	NaN	NaN	NaN	NaN	NaN	NaN	NaN	NaN	NaN
268.6392356999986	0.4996	sub-01	1	localizer	stimulus	Stuhl	NaN	0	2.6520056999997905	NaN	True	NaN	NaN	NaN	NaN	NaN	NaN	NaN
269.1222281999999	2.652	sub-01	1	localizer	blank	interval	NaN	NaN	NaN	NaN	NaN	NaN	NaN	NaN	NaN	NaN	NaN	NaN
272.0752586999988	0.4996	sub-01	1	localizer	stimulus	Gesicht	NaN	0	1.6511363000008714	NaN	True	NaN	NaN	NaN	NaN	NaN	NaN	NaN
272.558310299999	1.6511	sub-01	1	localizer	blank	interval	NaN	NaN	NaN	NaN	NaN	NaN	NaN	NaN	NaN	NaN	NaN	NaN
274.5106018999996	0.4994	sub-01	1	localizer	stimulus	Haus	NaN	180	2.3849878999990324	-43.533452300000135	True	NaN	NaN	NaN	NaN	NaN	NaN	NaN
274.99367859999984	2.385	sub-01	1	localizer	blank	interval	NaN	NaN	NaN	NaN	NaN	NaN	NaN	NaN	NaN	NaN	NaN	NaN
277.6798190999998	0.4995	sub-01	1	localizer	stimulus	Katze	NaN	0	1.6347198999992543	NaN	True	NaN	NaN	NaN	NaN	NaN	NaN	NaN
278.1627289999997	1.6347	sub-01	1	localizer	blank	interval	NaN	NaN	NaN	NaN	NaN	NaN	NaN	NaN	NaN	NaN	NaN	NaN
280.0986307999992	0.4997	sub-01	1	localizer	stimulus	Haus	NaN	0	1.701253799999904	NaN	True	NaN	NaN	NaN	NaN	NaN	NaN	NaN
280.5816053999988	1.7013	sub-01	1	localizer	blank	interval	NaN	NaN	NaN	NaN	NaN	NaN	NaN	NaN	NaN	NaN	NaN	NaN
282.5837886999998	0.4997	sub-01	1	localizer	stimulus	Schuh	NaN	180	2.5184651999989	-43.59058960000039	True	NaN	NaN	NaN	NaN	NaN	NaN	NaN
283.0668334000002	2.5185	sub-01	1	localizer	blank	interval	NaN	NaN	NaN	NaN	NaN	NaN	NaN	NaN	NaN	NaN	NaN	NaN
285.88644469999963	0.4995	sub-01	1	localizer	stimulus	Schuh	NaN	0	2.3019210999992197	NaN	True	NaN	NaN	NaN	NaN	NaN	NaN	NaN
286.3693733	2.3019	sub-01	1	localizer	blank	interval	NaN	NaN	NaN	NaN	NaN	NaN	NaN	NaN	NaN	NaN	NaN	NaN
288.97227699999894	0.4996	sub-01	1	localizer	stimulus	Katze	NaN	0	2.418413400000645	NaN	True	NaN	NaN	NaN	NaN	NaN	NaN	NaN
289.45532959999946	2.4184	sub-01	1	localizer	blank	interval	NaN	NaN	NaN	NaN	NaN	NaN	NaN	NaN	NaN	NaN	NaN	NaN
292.1748611999992	0.4995	sub-01	1	localizer	stimulus	Katze	NaN	180	1.5677955000010115	-43.63714720000098	True	NaN	NaN	NaN	NaN	NaN	NaN	NaN
292.65781739999875	1.5678	sub-01	1	localizer	blank	interval	NaN	NaN	NaN	NaN	NaN	NaN	NaN	NaN	NaN	NaN	NaN	NaN
294.5268011999997	0.4994	sub-01	1	localizer	stimulus	Gesicht	NaN	0	2.085058599999684	NaN	True	NaN	NaN	NaN	NaN	NaN	NaN	NaN
295.0096787000002	2.0851	sub-01	1	localizer	blank	interval	NaN	NaN	NaN	NaN	NaN	NaN	NaN	NaN	NaN	NaN	NaN	NaN
297.39581989999897	0.4994	sub-01	1	localizer	stimulus	Katze	NaN	0	1.7679798000008304	NaN	True	NaN	NaN	NaN	NaN	NaN	NaN	NaN
297.8786547999989	1.768	sub-01	1	localizer	blank	interval	NaN	NaN	NaN	NaN	NaN	NaN	NaN	NaN	NaN	NaN	NaN	NaN
299.9478299000002	0.4996	sub-01	1	localizer	stimulus	Schuh	NaN	0	2.2853970999985904	NaN	True	NaN	NaN	NaN	NaN	NaN	NaN	NaN
300.4307630000003	2.2854	sub-01	1	localizer	blank	interval	NaN	NaN	NaN	NaN	NaN	NaN	NaN	NaN	NaN	NaN	NaN	NaN
303.0171413999997	0.4996	sub-01	1	localizer	stimulus	Gesicht	NaN	180	2.635231599999315	-43.6153149999991	True	NaN	NaN	NaN	NaN	NaN	NaN	NaN
303.50026419999995	2.6352	sub-01	1	localizer	blank	interval	NaN	NaN	NaN	NaN	NaN	NaN	NaN	NaN	NaN	NaN	NaN	NaN
306.43636999999944	0.4997	sub-01	1	localizer	stimulus	Schuh	NaN	0	3.0359165000008943	NaN	True	NaN	NaN	NaN	NaN	NaN	NaN	NaN
306.91941869999937	3.0359	sub-01	1	localizer	blank	interval	NaN	NaN	NaN	NaN	NaN	NaN	NaN	NaN	NaN	NaN	NaN	NaN
310.25621879999926	0.4996	sub-01	1	localizer	stimulus	Haus	NaN	0	2.8854015999986586	NaN	True	NaN	NaN	NaN	NaN	NaN	NaN	NaN
310.7393682000002	2.8854	sub-01	1	localizer	blank	interval	NaN	NaN	NaN	NaN	NaN	NaN	NaN	NaN	NaN	NaN	NaN	NaN
313.92577209999945	0.4996	sub-01	1	localizer	stimulus	Gesicht	NaN	0	2.468406699999832	NaN	True	NaN	NaN	NaN	NaN	NaN	NaN	NaN
314.4087796999993	2.4684	sub-01	1	localizer	blank	interval	NaN	NaN	NaN	NaN	NaN	NaN	NaN	NaN	NaN	NaN	NaN	NaN
320.3637345999996	1.0005	sub-01	1	sequence	cue	Katze	NaN	NaN	NaN	NaN	NaN	NaN	NaN	NaN	NaN	NaN	NaN	NaN
321.3642643000003	2.0016	sub-01	1	sequence	blank	blank	NaN	NaN	NaN	NaN	NaN	NaN	NaN	NaN	NaN	NaN	NaN	NaN
323.3658618999998	0.3006	sub-01	1	sequence	fixation	dot	NaN	NaN	NaN	NaN	NaN	NaN	NaN	NaN	NaN	NaN	NaN	NaN
323.68371429999934	0.0993	sub-01	1	sequence	stimulus	Stuhl	NaN	NaN	32.0	NaN	NaN	5.0	1.0	NaN	NaN	NaN	NaN	NaN
323.7830361999986	0.0335	sub-01	1	sequence	interval	dot	NaN	NaN	NaN	NaN	NaN	NaN	NaN	NaN	NaN	NaN	NaN	NaN
323.8165107999994	0.1	sub-01	1	sequence	stimulus	Schuh	NaN	NaN	32.0	NaN	NaN	4.0	2.0	NaN	NaN	NaN	NaN	NaN
323.9165420999998	0.0335	sub-01	1	sequence	interval	dot	NaN	NaN	NaN	NaN	NaN	NaN	NaN	NaN	NaN	NaN	NaN	NaN
323.9500399999997	0.0999	sub-01	1	sequence	stimulus	Haus	NaN	NaN	32.0	NaN	NaN	2.0	3.0	NaN	NaN	NaN	NaN	NaN
324.04997879999974	0.0335	sub-01	1	sequence	interval	dot	NaN	NaN	NaN	NaN	NaN	NaN	NaN	NaN	NaN	NaN	NaN	NaN
324.083441499999	0.0999	sub-01	1	sequence	stimulus	Gesicht	NaN	NaN	32.0	NaN	NaN	1.0	4.0	NaN	NaN	NaN	NaN	NaN
324.1833835999987	0.0335	sub-01	1	sequence	interval	dot	NaN	NaN	NaN	NaN	NaN	NaN	NaN	NaN	NaN	NaN	NaN	NaN
324.2168519999996	0.1	sub-01	1	sequence	stimulus	Katze	NaN	NaN	32.0	NaN	NaN	3.0	5.0	NaN	NaN	NaN	NaN	NaN
324.3168415	0.0333	sub-01	1	sequence	interval	dot	NaN	NaN	NaN	NaN	NaN	NaN	NaN	NaN	NaN	NaN	NaN	NaN
324.35016279999945	8.5387	sub-01	1	sequence	delay	dot	NaN	NaN	NaN	NaN	NaN	NaN	NaN	NaN	NaN	NaN	NaN	NaN
332.86446259999866	0.9606	sub-01	1	sequence	choice	choice	left	NaN	NaN	-43.23102789999939	True	NaN	NaN	left	True	5.0	1.0	5.0
333.8254347000002	0.4997	sub-01	1	sequence	feedback	NaN	NaN	NaN	NaN	NaN	NaN	NaN	NaN	NaN	NaN	NaN	NaN	NaN
334.32536789999904	1.0003	sub-01	1	sequence	cue	Schuh	NaN	NaN	NaN	NaN	NaN	NaN	NaN	NaN	NaN	NaN	NaN	NaN
335.32569030000013	2.0014	sub-01	1	sequence	blank	blank	NaN	NaN	NaN	NaN	NaN	NaN	NaN	NaN	NaN	NaN	NaN	NaN
337.32713479999984	0.3003	sub-01	1	sequence	fixation	dot	NaN	NaN	NaN	NaN	NaN	NaN	NaN	NaN	NaN	NaN	NaN	NaN
337.6450578999993	0.0991	sub-01	1	sequence	stimulus	Gesicht	NaN	NaN	512.0	NaN	NaN	1.0	1.0	NaN	NaN	NaN	NaN	NaN
337.7441366000003	0.5172	sub-01	1	sequence	interval	dot	NaN	NaN	NaN	NaN	NaN	NaN	NaN	NaN	NaN	NaN	NaN	NaN
338.26137329999983	0.0999	sub-01	1	sequence	stimulus	Haus	NaN	NaN	512.0	NaN	NaN	2.0	2.0	NaN	NaN	NaN	NaN	NaN
338.3612890000004	0.5172	sub-01	1	sequence	interval	dot	NaN	NaN	NaN	NaN	NaN	NaN	NaN	NaN	NaN	NaN	NaN	NaN
338.878514	0.1	sub-01	1	sequence	stimulus	Stuhl	NaN	NaN	512.0	NaN	NaN	5.0	3.0	NaN	NaN	NaN	NaN	NaN
338.9784660999994	0.5172	sub-01	1	sequence	interval	dot	NaN	NaN	NaN	NaN	NaN	NaN	NaN	NaN	NaN	NaN	NaN	NaN
339.49569059999885	0.1	sub-01	1	sequence	stimulus	Schuh	NaN	NaN	512.0	NaN	NaN	4.0	4.0	NaN	NaN	NaN	NaN	NaN
339.59571609999875	0.5171	sub-01	1	sequence	interval	dot	NaN	NaN	NaN	NaN	NaN	NaN	NaN	NaN	NaN	NaN	NaN	NaN
340.1128357999987	0.1001	sub-01	1	sequence	stimulus	Katze	NaN	NaN	512.0	NaN	NaN	3.0	5.0	NaN	NaN	NaN	NaN	NaN
340.2129047999988	0.517	sub-01	1	sequence	interval	dot	NaN	NaN	NaN	NaN	NaN	NaN	NaN	NaN	NaN	NaN	NaN	NaN
340.7299191000002	6.1368	sub-01	1	sequence	delay	dot	NaN	NaN	NaN	NaN	NaN	NaN	NaN	NaN	NaN	NaN	NaN	NaN
346.85220519999893	0.9174	sub-01	1	sequence	choice	choice	right	NaN	NaN	-43.27339090000169	True	NaN	NaN	right	True	5.0	4.0	4.0
347.7698787999998	0.4998	sub-01	1	sequence	feedback	NaN	NaN	NaN	NaN	NaN	NaN	NaN	NaN	NaN	NaN	NaN	NaN	NaN
348.26992729999984	1.0018	sub-01	1	sequence	cue	Gesicht	NaN	NaN	NaN	NaN	NaN	NaN	NaN	NaN	NaN	NaN	NaN	NaN
349.2717696999989	2.0004	sub-01	1	sequence	blank	blank	NaN	NaN	NaN	NaN	NaN	NaN	NaN	NaN	NaN	NaN	NaN	NaN
351.2721400999999	0.3003	sub-01	1	sequence	fixation	dot	NaN	NaN	NaN	NaN	NaN	NaN	NaN	NaN	NaN	NaN	NaN	NaN
351.6057069999988	0.0999	sub-01	1	sequence	stimulus	Haus	NaN	NaN	512.0	NaN	NaN	2.0	1.0	NaN	NaN	NaN	NaN	NaN
351.7056558000004	0.5171	sub-01	1	sequence	interval	dot	NaN	NaN	NaN	NaN	NaN	NaN	NaN	NaN	NaN	NaN	NaN	NaN
352.2228034	0.1	sub-01	1	sequence	stimulus	Katze	NaN	NaN	512.0	NaN	NaN	3.0	2.0	NaN	NaN	NaN	NaN	NaN
352.3227544000001	0.5172	sub-01	1	sequence	interval	dot	NaN	NaN	NaN	NaN	NaN	NaN	NaN	NaN	NaN	NaN	NaN	NaN
352.8399135999989	0.0998	sub-01	1	sequence	stimulus	Stuhl	NaN	NaN	512.0	NaN	NaN	5.0	3.0	NaN	NaN	NaN	NaN	NaN
352.9397504999997	0.5172	sub-01	1	sequence	interval	dot	NaN	NaN	NaN	NaN	NaN	NaN	NaN	NaN	NaN	NaN	NaN	NaN
353.45697199999995	0.1001	sub-01	1	sequence	stimulus	Schuh	NaN	NaN	512.0	NaN	NaN	4.0	4.0	NaN	NaN	NaN	NaN	NaN
353.5570386999989	0.5171	sub-01	1	sequence	interval	dot	NaN	NaN	NaN	NaN	NaN	NaN	NaN	NaN	NaN	NaN	NaN	NaN
354.0741414000004	0.1	sub-01	1	sequence	stimulus	Gesicht	NaN	NaN	512.0	NaN	NaN	1.0	5.0	NaN	NaN	NaN	NaN	NaN
354.17409339999904	0.5171	sub-01	1	sequence	interval	dot	NaN	NaN	NaN	NaN	NaN	NaN	NaN	NaN	NaN	NaN	NaN	NaN
354.6911791999992	6.1369	sub-01	1	sequence	delay	dot	NaN	NaN	NaN	NaN	NaN	NaN	NaN	NaN	NaN	NaN	NaN	NaN
360.8139302	0.8002	sub-01	1	sequence	choice	choice	left	NaN	NaN	-43.37746590000097	True	NaN	NaN	left	True	5.0	3.0	5.0
361.61439919999975	0.4996	sub-01	1	sequence	feedback	NaN	NaN	NaN	NaN	NaN	NaN	NaN	NaN	NaN	NaN	NaN	NaN	NaN
362.1141344999997	1.0006	sub-01	1	sequence	cue	Schuh	NaN	NaN	NaN	NaN	NaN	NaN	NaN	NaN	NaN	NaN	NaN	NaN
363.1147428000004	2.0016	sub-01	1	sequence	blank	blank	NaN	NaN	NaN	NaN	NaN	NaN	NaN	NaN	NaN	NaN	NaN	NaN
365.1163457000002	0.3005	sub-01	1	sequence	fixation	dot	NaN	NaN	NaN	NaN	NaN	NaN	NaN	NaN	NaN	NaN	NaN	NaN
365.43423040000016	0.0992	sub-01	1	sequence	stimulus	Gesicht	NaN	NaN	64.0	NaN	NaN	1.0	1.0	NaN	NaN	NaN	NaN	NaN
365.53347029999895	0.0669	sub-01	1	sequence	interval	dot	NaN	NaN	NaN	NaN	NaN	NaN	NaN	NaN	NaN	NaN	NaN	NaN
365.6003769999989	0.0999	sub-01	1	sequence	stimulus	Haus	NaN	NaN	64.0	NaN	NaN	2.0	2.0	NaN	NaN	NaN	NaN	NaN
365.70029129999966	0.0669	sub-01	1	sequence	interval	dot	NaN	NaN	NaN	NaN	NaN	NaN	NaN	NaN	NaN	NaN	NaN	NaN
365.7671678999996	0.1003	sub-01	1	sequence	stimulus	Katze	NaN	NaN	64.0	NaN	NaN	3.0	3.0	NaN	NaN	NaN	NaN	NaN
365.8675149999999	0.0665	sub-01	1	sequence	interval	dot	NaN	NaN	NaN	NaN	NaN	NaN	NaN	NaN	NaN	NaN	NaN	NaN
365.93402830000014	0.1	sub-01	1	sequence	stimulus	Schuh	NaN	NaN	64.0	NaN	NaN	4.0	4.0	NaN	NaN	NaN	NaN	NaN
366.0340287999989	0.0669	sub-01	1	sequence	interval	dot	NaN	NaN	NaN	NaN	NaN	NaN	NaN	NaN	NaN	NaN	NaN	NaN
366.1009248999999	0.0999	sub-01	1	sequence	stimulus	Stuhl	NaN	NaN	64.0	NaN	NaN	5.0	5.0	NaN	NaN	NaN	NaN	NaN
366.20078749999993	0.0667	sub-01	1	sequence	interval	dot	NaN	NaN	NaN	NaN	NaN	NaN	NaN	NaN	NaN	NaN	NaN	NaN
366.2674934999996	8.3718	sub-01	1	sequence	delay	dot	NaN	NaN	NaN	NaN	NaN	NaN	NaN	NaN	NaN	NaN	NaN	NaN
374.6196861999997	0.8222	sub-01	1	sequence	choice	choice	left	NaN	NaN	-43.36572540000088	False	NaN	NaN	right	True	3.0	4.0	4.0
375.44217860000026	0.4998	sub-01	1	sequence	feedback	NaN	NaN	NaN	NaN	NaN	NaN	NaN	NaN	NaN	NaN	NaN	NaN	NaN
375.94222160000027	1.0003	sub-01	1	sequence	cue	Schuh	NaN	NaN	NaN	NaN	NaN	NaN	NaN	NaN	NaN	NaN	NaN	NaN
376.9425553000001	2.0016	sub-01	1	sequence	blank	blank	NaN	NaN	NaN	NaN	NaN	NaN	NaN	NaN	NaN	NaN	NaN	NaN
378.9441955000002	0.3003	sub-01	1	sequence	fixation	dot	NaN	NaN	NaN	NaN	NaN	NaN	NaN	NaN	NaN	NaN	NaN	NaN
379.2641322999989	0.1137	sub-01	1	sequence	stimulus	Haus	NaN	NaN	128.0	NaN	NaN	2.0	1.0	NaN	NaN	NaN	NaN	NaN
379.3778535000001	0.1335	sub-01	1	sequence	interval	dot	NaN	NaN	NaN	NaN	NaN	NaN	NaN	NaN	NaN	NaN	NaN	NaN
379.51140060000034	0.0999	sub-01	1	sequence	stimulus	Katze	NaN	NaN	128.0	NaN	NaN	3.0	2.0	NaN	NaN	NaN	NaN	NaN
379.6113355999987	0.1336	sub-01	1	sequence	interval	dot	NaN	NaN	NaN	NaN	NaN	NaN	NaN	NaN	NaN	NaN	NaN	NaN
379.7449564999988	0.1	sub-01	1	sequence	stimulus	Stuhl	NaN	NaN	128.0	NaN	NaN	5.0	3.0	NaN	NaN	NaN	NaN	NaN
379.8449134999992	0.1335	sub-01	1	sequence	interval	dot	NaN	NaN	NaN	NaN	NaN	NaN	NaN	NaN	NaN	NaN	NaN	NaN
379.97845210000014	0.1	sub-01	1	sequence	stimulus	Gesicht	NaN	NaN	128.0	NaN	NaN	1.0	4.0	NaN	NaN	NaN	NaN	NaN
380.0784086999993	0.1336	sub-01	1	sequence	interval	dot	NaN	NaN	NaN	NaN	NaN	NaN	NaN	NaN	NaN	NaN	NaN	NaN
380.2119638999993	0.1	sub-01	1	sequence	stimulus	Schuh	NaN	NaN	128.0	NaN	NaN	4.0	5.0	NaN	NaN	NaN	NaN	NaN
380.3119236000002	0.1335	sub-01	1	sequence	interval	dot	NaN	NaN	NaN	NaN	NaN	NaN	NaN	NaN	NaN	NaN	NaN	NaN
380.4453973999989	8.0551	sub-01	1	sequence	delay	dot	NaN	NaN	NaN	NaN	NaN	NaN	NaN	NaN	NaN	NaN	NaN	NaN
388.4774029	1.0928	sub-01	1	sequence	choice	choice	left	NaN	NaN	-43.107244300001184	True	NaN	NaN	left	True	5.0	1.0	5.0
389.5705066999999	0.4998	sub-01	1	sequence	feedback	NaN	NaN	NaN	NaN	NaN	NaN	NaN	NaN	NaN	NaN	NaN	NaN	NaN
390.07044139999925	1.0005	sub-01	1	sequence	cue	Schuh	NaN	NaN	NaN	NaN	NaN	NaN	NaN	NaN	NaN	NaN	NaN	NaN
391.070996299999	2.0013	sub-01	1	sequence	blank	blank	NaN	NaN	NaN	NaN	NaN	NaN	NaN	NaN	NaN	NaN	NaN	NaN
393.0722568999991	0.3004	sub-01	1	sequence	fixation	dot	NaN	NaN	NaN	NaN	NaN	NaN	NaN	NaN	NaN	NaN	NaN	NaN
393.3908775999989	0.1151	sub-01	1	sequence	stimulus	Haus	NaN	NaN	32.0	NaN	NaN	2.0	1.0	NaN	NaN	NaN	NaN	NaN
393.5060125999989	0.0334	sub-01	1	sequence	interval	dot	NaN	NaN	NaN	NaN	NaN	NaN	NaN	NaN	NaN	NaN	NaN	NaN
393.53945529999874	0.0999	sub-01	1	sequence	stimulus	Gesicht	NaN	NaN	32.0	NaN	NaN	1.0	2.0	NaN	NaN	NaN	NaN	NaN
393.6393800999994	0.0335	sub-01	1	sequence	interval	dot	NaN	NaN	NaN	NaN	NaN	NaN	NaN	NaN	NaN	NaN	NaN	NaN
393.6728525999988	0.1	sub-01	1	sequence	stimulus	Stuhl	NaN	NaN	32.0	NaN	NaN	5.0	3.0	NaN	NaN	NaN	NaN	NaN
393.77281369999946	0.0335	sub-01	1	sequence	interval	dot	NaN	NaN	NaN	NaN	NaN	NaN	NaN	NaN	NaN	NaN	NaN	NaN
393.806360999999	0.0999	sub-01	1	sequence	stimulus	Katze	NaN	NaN	32.0	NaN	NaN	3.0	4.0	NaN	NaN	NaN	NaN	NaN
393.9062488	0.0335	sub-01	1	sequence	interval	dot	NaN	NaN	NaN	NaN	NaN	NaN	NaN	NaN	NaN	NaN	NaN	NaN
393.9397491999989	0.0999	sub-01	1	sequence	stimulus	Schuh	NaN	NaN	32.0	NaN	NaN	4.0	5.0	NaN	NaN	NaN	NaN	NaN
394.03967980000016	0.0334	sub-01	1	sequence	interval	dot	NaN	NaN	NaN	NaN	NaN	NaN	NaN	NaN	NaN	NaN	NaN	NaN
394.0730647	8.5388	sub-01	1	sequence	delay	dot	NaN	NaN	NaN	NaN	NaN	NaN	NaN	NaN	NaN	NaN	NaN	NaN
402.5950596999992	1.1031	sub-01	1	sequence	choice	choice	right	NaN	NaN	-43.09046450000096	True	NaN	NaN	right	True	4.0	5.0	5.0
403.6984381999992	0.4999	sub-01	1	sequence	feedback	NaN	NaN	NaN	NaN	NaN	NaN	NaN	NaN	NaN	NaN	NaN	NaN	NaN
404.1985294999995	1.0004	sub-01	1	sequence	cue	Schuh	NaN	NaN	NaN	NaN	NaN	NaN	NaN	NaN	NaN	NaN	NaN	NaN
405.1988984999989	2.0016	sub-01	1	sequence	blank	blank	NaN	NaN	NaN	NaN	NaN	NaN	NaN	NaN	NaN	NaN	NaN	NaN
407.2005548999987	0.3003	sub-01	1	sequence	fixation	dot	NaN	NaN	NaN	NaN	NaN	NaN	NaN	NaN	NaN	NaN	NaN	NaN
407.51826549999896	0.0993	sub-01	1	sequence	stimulus	Katze	NaN	NaN	64.0	NaN	NaN	3.0	1.0	NaN	NaN	NaN	NaN	NaN
407.61757339999895	0.0669	sub-01	1	sequence	interval	dot	NaN	NaN	NaN	NaN	NaN	NaN	NaN	NaN	NaN	NaN	NaN	NaN
407.68443859999934	0.0999	sub-01	1	sequence	stimulus	Schuh	NaN	NaN	64.0	NaN	NaN	4.0	2.0	NaN	NaN	NaN	NaN	NaN
407.7843354999986	0.0669	sub-01	1	sequence	interval	dot	NaN	NaN	NaN	NaN	NaN	NaN	NaN	NaN	NaN	NaN	NaN	NaN
407.8512333999988	0.1	sub-01	1	sequence	stimulus	Stuhl	NaN	NaN	64.0	NaN	NaN	5.0	3.0	NaN	NaN	NaN	NaN	NaN
407.9512730999995	0.0669	sub-01	1	sequence	interval	dot	NaN	NaN	NaN	NaN	NaN	NaN	NaN	NaN	NaN	NaN	NaN	NaN
408.0181653999989	0.0998	sub-01	1	sequence	stimulus	Haus	NaN	NaN	64.0	NaN	NaN	2.0	4.0	NaN	NaN	NaN	NaN	NaN
408.11791900000026	0.067	sub-01	1	sequence	interval	dot	NaN	NaN	NaN	NaN	NaN	NaN	NaN	NaN	NaN	NaN	NaN	NaN
408.1849038	0.1	sub-01	1	sequence	stimulus	Gesicht	NaN	NaN	64.0	NaN	NaN	1.0	5.0	NaN	NaN	NaN	NaN	NaN
408.28485809999984	0.0666	sub-01	1	sequence	interval	dot	NaN	NaN	NaN	NaN	NaN	NaN	NaN	NaN	NaN	NaN	NaN	NaN
408.3514397999989	8.3885	sub-01	1	sequence	delay	dot	NaN	NaN	NaN	NaN	NaN	NaN	NaN	NaN	NaN	NaN	NaN	NaN
416.7127080999999	0.7132	sub-01	1	sequence	choice	choice	left	NaN	NaN	-43.49000420000084	True	NaN	NaN	left	True	2.0	5.0	2.0
417.426196299999	0.4998	sub-01	1	sequence	feedback	NaN	NaN	NaN	NaN	NaN	NaN	NaN	NaN	NaN	NaN	NaN	NaN	NaN
417.9262063999995	1.0003	sub-01	1	sequence	cue	Gesicht	NaN	NaN	NaN	NaN	NaN	NaN	NaN	NaN	NaN	NaN	NaN	NaN
418.92655229999946	2.0016	sub-01	1	sequence	blank	blank	NaN	NaN	NaN	NaN	NaN	NaN	NaN	NaN	NaN	NaN	NaN	NaN
420.9281769999998	0.3002	sub-01	1	sequence	fixation	dot	NaN	NaN	NaN	NaN	NaN	NaN	NaN	NaN	NaN	NaN	NaN	NaN
421.2469858000004	0.1148	sub-01	1	sequence	stimulus	Haus	NaN	NaN	128.0	NaN	NaN	2.0	1.0	NaN	NaN	NaN	NaN	NaN
421.36182290000033	0.1335	sub-01	1	sequence	interval	dot	NaN	NaN	NaN	NaN	NaN	NaN	NaN	NaN	NaN	NaN	NaN	NaN
421.4953241999992	0.1001	sub-01	1	sequence	stimulus	Stuhl	NaN	NaN	128.0	NaN	NaN	5.0	2.0	NaN	NaN	NaN	NaN	NaN
421.5953811999989	0.1335	sub-01	1	sequence	interval	dot	NaN	NaN	NaN	NaN	NaN	NaN	NaN	NaN	NaN	NaN	NaN	NaN
421.7288566999996	0.1	sub-01	1	sequence	stimulus	Schuh	NaN	NaN	128.0	NaN	NaN	4.0	3.0	NaN	NaN	NaN	NaN	NaN
421.82886679999865	0.1335	sub-01	1	sequence	interval	dot	NaN	NaN	NaN	NaN	NaN	NaN	NaN	NaN	NaN	NaN	NaN	NaN
421.96240789999865	0.1	sub-01	1	sequence	stimulus	Katze	NaN	NaN	128.0	NaN	NaN	3.0	4.0	NaN	NaN	NaN	NaN	NaN
422.0623694999995	0.1336	sub-01	1	sequence	interval	dot	NaN	NaN	NaN	NaN	NaN	NaN	NaN	NaN	NaN	NaN	NaN	NaN
422.1959294999997	0.1	sub-01	1	sequence	stimulus	Gesicht	NaN	NaN	128.0	NaN	NaN	1.0	5.0	NaN	NaN	NaN	NaN	NaN
422.295895199999	0.1335	sub-01	1	sequence	interval	dot	NaN	NaN	NaN	NaN	NaN	NaN	NaN	NaN	NaN	NaN	NaN	NaN
422.4293803000001	8.0551	sub-01	1	sequence	delay	dot	NaN	NaN	NaN	NaN	NaN	NaN	NaN	NaN	NaN	NaN	NaN	NaN
430.4664859000004	0.8043	sub-01	1	sequence	choice	choice	left	NaN	NaN	-43.37879229999999	False	NaN	NaN	right	True	4.0	5.0	5.0
431.2710623999992	0.4998	sub-01	1	sequence	feedback	NaN	NaN	NaN	NaN	NaN	NaN	NaN	NaN	NaN	NaN	NaN	NaN	NaN
431.7713767999994	9.5573	sub-01	1	other	break	break	NaN	NaN	NaN	NaN	NaN	NaN	NaN	NaN	NaN	NaN	NaN	NaN
445.1653190999986	0.4994	sub-01	1	localizer	stimulus	Schuh	NaN	0	2.1015662999998312	NaN	True	NaN	NaN	NaN	NaN	NaN	NaN	NaN
445.6482699999997	2.1016	sub-01	1	localizer	blank	interval	NaN	NaN	NaN	NaN	NaN	NaN	NaN	NaN	NaN	NaN	NaN	NaN
448.0511878999987	0.4993	sub-01	1	localizer	stimulus	Stuhl	NaN	0	2.7857058999998117	NaN	True	NaN	NaN	NaN	NaN	NaN	NaN	NaN
448.5338840000004	2.7857	sub-01	1	localizer	blank	interval	NaN	NaN	NaN	NaN	NaN	NaN	NaN	NaN	NaN	NaN	NaN	NaN
451.62078269999984	0.4996	sub-01	1	localizer	stimulus	Schuh	NaN	0	2.5516630000002465	NaN	True	NaN	NaN	NaN	NaN	NaN	NaN	NaN
452.1038246999997	2.5517	sub-01	1	localizer	blank	interval	NaN	NaN	NaN	NaN	NaN	NaN	NaN	NaN	NaN	NaN	NaN	NaN
454.9565652999991	0.4995	sub-01	1	localizer	stimulus	Gesicht	NaN	0	2.9355695999983595	NaN	True	NaN	NaN	NaN	NaN	NaN	NaN	NaN
455.4395074000004	2.9356	sub-01	1	localizer	blank	interval	NaN	NaN	NaN	NaN	NaN	NaN	NaN	NaN	NaN	NaN	NaN	NaN
458.6762280999992	0.4995	sub-01	1	localizer	stimulus	Katze	NaN	0	2.8855196000003502	NaN	True	NaN	NaN	NaN	NaN	NaN	NaN	NaN
459.1591976	2.8855	sub-01	1	localizer	blank	interval	NaN	NaN	NaN	NaN	NaN	NaN	NaN	NaN	NaN	NaN	NaN	NaN
462.3458817999999	0.4995	sub-01	1	localizer	stimulus	Schuh	NaN	0	2.2184000999986893	NaN	True	NaN	NaN	NaN	NaN	NaN	NaN	NaN
462.8288682000002	2.2184	sub-01	1	localizer	blank	interval	NaN	NaN	NaN	NaN	NaN	NaN	NaN	NaN	NaN	NaN	NaN	NaN
465.3483398999997	0.4995	sub-01	1	localizer	stimulus	Haus	NaN	180	2.133445199999244	-43.41762680000102	True	NaN	NaN	NaN	NaN	NaN	NaN	NaN
465.8327599000004	2.1334	sub-01	1	localizer	blank	interval	NaN	NaN	NaN	NaN	NaN	NaN	NaN	NaN	NaN	NaN	NaN	NaN
468.2674197999986	0.4995	sub-01	1	localizer	stimulus	Haus	NaN	0	3.2193342999998436	NaN	True	NaN	NaN	NaN	NaN	NaN	NaN	NaN
468.7502671999992	3.2193	sub-01	1	localizer	blank	interval	NaN	NaN	NaN	NaN	NaN	NaN	NaN	NaN	NaN	NaN	NaN	NaN
472.27086210000016	0.4996	sub-01	1	localizer	stimulus	Gesicht	NaN	0	1.9010440000001836	NaN	True	NaN	NaN	NaN	NaN	NaN	NaN	NaN
472.7538905999991	1.901	sub-01	1	localizer	blank	interval	NaN	NaN	NaN	NaN	NaN	NaN	NaN	NaN	NaN	NaN	NaN	NaN
474.9560758999996	0.4995	sub-01	1	localizer	stimulus	Gesicht	NaN	180	3.052433499999097	-43.5866330000008	True	NaN	NaN	NaN	NaN	NaN	NaN	NaN
475.4390105000002	3.0524	sub-01	1	localizer	blank	interval	NaN	NaN	NaN	NaN	NaN	NaN	NaN	NaN	NaN	NaN	NaN	NaN
478.7924982000004	0.4996	sub-01	1	localizer	stimulus	Stuhl	NaN	0	2.451878600000782	NaN	True	NaN	NaN	NaN	NaN	NaN	NaN	NaN
479.2754638999995	2.4519	sub-01	1	localizer	blank	interval	NaN	NaN	NaN	NaN	NaN	NaN	NaN	NaN	NaN	NaN	NaN	NaN
482.02856359999896	0.4994	sub-01	1	localizer	stimulus	Stuhl	NaN	0	1.884576399999787	NaN	True	NaN	NaN	NaN	NaN	NaN	NaN	NaN
482.5115274	1.8846	sub-01	1	localizer	blank	interval	NaN	NaN	NaN	NaN	NaN	NaN	NaN	NaN	NaN	NaN	NaN	NaN
484.6973411999989	0.4994	sub-01	1	localizer	stimulus	Katze	NaN	0	2.635358200001008	NaN	True	NaN	NaN	NaN	NaN	NaN	NaN	NaN
485.1802350999988	2.6354	sub-01	1	localizer	blank	interval	NaN	NaN	NaN	NaN	NaN	NaN	NaN	NaN	NaN	NaN	NaN	NaN
488.1167614999995	0.4995	sub-01	1	localizer	stimulus	Katze	NaN	180	2.2019759000013437	-43.64320770000086	True	NaN	NaN	NaN	NaN	NaN	NaN	NaN
488.5997166999987	2.202	sub-01	1	localizer	blank	interval	NaN	NaN	NaN	NaN	NaN	NaN	NaN	NaN	NaN	NaN	NaN	NaN
491.1025998999994	0.4997	sub-01	1	localizer	stimulus	Stuhl	NaN	0	2.7686541000002762	NaN	True	NaN	NaN	NaN	NaN	NaN	NaN	NaN
491.5857228999994	2.7687	sub-01	1	localizer	blank	interval	NaN	NaN	NaN	NaN	NaN	NaN	NaN	NaN	NaN	NaN	NaN	NaN
494.6555327999995	0.4993	sub-01	1	localizer	stimulus	Gesicht	NaN	0	2.485068100000774	-43.55020979999972	False	NaN	NaN	NaN	NaN	NaN	NaN	NaN
495.1384179999986	2.4851	sub-01	1	localizer	blank	interval	NaN	NaN	NaN	NaN	NaN	NaN	NaN	NaN	NaN	NaN	NaN	NaN
497.92474159999983	0.4994	sub-01	1	localizer	stimulus	Haus	NaN	0	2.5852919999998107	NaN	True	NaN	NaN	NaN	NaN	NaN	NaN	NaN
498.4076728999989	2.5853	sub-01	1	localizer	blank	interval	NaN	NaN	NaN	NaN	NaN	NaN	NaN	NaN	NaN	NaN	NaN	NaN
501.2940261999993	0.4996	sub-01	1	localizer	stimulus	Katze	NaN	0	2.8020997000003263	NaN	True	NaN	NaN	NaN	NaN	NaN	NaN	NaN
501.7770710999994	2.8021	sub-01	1	localizer	blank	interval	NaN	NaN	NaN	NaN	NaN	NaN	NaN	NaN	NaN	NaN	NaN	NaN
504.88037129999975	0.4995	sub-01	1	localizer	stimulus	Haus	NaN	0	2.285042399998929	NaN	True	NaN	NaN	NaN	NaN	NaN	NaN	NaN
505.3633726999997	2.285	sub-01	1	localizer	blank	interval	NaN	NaN	NaN	NaN	NaN	NaN	NaN	NaN	NaN	NaN	NaN	NaN
507.9495444000004	0.4994	sub-01	1	localizer	stimulus	Stuhl	NaN	180	2.4855225999999675	-43.58799470000122	True	NaN	NaN	NaN	NaN	NaN	NaN	NaN
508.4324560999994	2.4855	sub-01	1	localizer	blank	interval	NaN	NaN	NaN	NaN	NaN	NaN	NaN	NaN	NaN	NaN	NaN	NaN
511.2191297999998	0.4995	sub-01	1	localizer	stimulus	Haus	NaN	0	2.5349068000014086	NaN	True	NaN	NaN	NaN	NaN	NaN	NaN	NaN
511.70213299999887	2.5349	sub-01	1	localizer	blank	interval	NaN	NaN	NaN	NaN	NaN	NaN	NaN	NaN	NaN	NaN	NaN	NaN
514.5382419999987	0.4995	sub-01	1	localizer	stimulus	Schuh	NaN	180	2.5179877999999007	-43.56031169999915	True	NaN	NaN	NaN	NaN	NaN	NaN	NaN
515.0216440000004	2.518	sub-01	1	localizer	blank	interval	NaN	NaN	NaN	NaN	NaN	NaN	NaN	NaN	NaN	NaN	NaN	NaN
517.8408026999987	0.4994	sub-01	1	localizer	stimulus	Schuh	NaN	0	2.0682046999991144	NaN	True	NaN	NaN	NaN	NaN	NaN	NaN	NaN
518.3237198999996	2.0682	sub-01	1	localizer	blank	interval	NaN	NaN	NaN	NaN	NaN	NaN	NaN	NaN	NaN	NaN	NaN	NaN
520.6930613999994	0.4995	sub-01	1	localizer	stimulus	Katze	NaN	0	1.7846377000005305	NaN	True	NaN	NaN	NaN	NaN	NaN	NaN	NaN
521.1760194999988	1.7846	sub-01	1	localizer	blank	interval	NaN	NaN	NaN	NaN	NaN	NaN	NaN	NaN	NaN	NaN	NaN	NaN
523.2618564000004	0.4994	sub-01	1	localizer	stimulus	Gesicht	NaN	0	2.652018400000088	NaN	True	NaN	NaN	NaN	NaN	NaN	NaN	NaN
523.7447780000002	2.652	sub-01	1	localizer	blank	interval	NaN	NaN	NaN	NaN	NaN	NaN	NaN	NaN	NaN	NaN	NaN	NaN
529.8835603999996	1.0004	sub-01	1	sequence	cue	Gesicht	NaN	NaN	NaN	NaN	NaN	NaN	NaN	NaN	NaN	NaN	NaN	NaN
530.8840087999997	2.0017	sub-01	1	sequence	blank	blank	NaN	NaN	NaN	NaN	NaN	NaN	NaN	NaN	NaN	NaN	NaN	NaN
532.8857632999989	0.3002	sub-01	1	sequence	fixation	dot	NaN	NaN	NaN	NaN	NaN	NaN	NaN	NaN	NaN	NaN	NaN	NaN
533.2035426999992	0.0992	sub-01	1	sequence	stimulus	Stuhl	NaN	NaN	32.0	NaN	NaN	5.0	1.0	NaN	NaN	NaN	NaN	NaN
533.3027566000001	0.0335	sub-01	1	sequence	interval	dot	NaN	NaN	NaN	NaN	NaN	NaN	NaN	NaN	NaN	NaN	NaN	NaN
533.3362551999999	0.1	sub-01	1	sequence	stimulus	Schuh	NaN	NaN	32.0	NaN	NaN	4.0	2.0	NaN	NaN	NaN	NaN	NaN
533.4362557999993	0.0335	sub-01	1	sequence	interval	dot	NaN	NaN	NaN	NaN	NaN	NaN	NaN	NaN	NaN	NaN	NaN	NaN
533.4697324999997	0.0999	sub-01	1	sequence	stimulus	Haus	NaN	NaN	32.0	NaN	NaN	2.0	3.0	NaN	NaN	NaN	NaN	NaN
533.569650899999	0.0335	sub-01	1	sequence	interval	dot	NaN	NaN	NaN	NaN	NaN	NaN	NaN	NaN	NaN	NaN	NaN	NaN
533.6031107999988	0.1	sub-01	1	sequence	stimulus	Gesicht	NaN	NaN	32.0	NaN	NaN	1.0	4.0	NaN	NaN	NaN	NaN	NaN
533.7030778999997	0.0335	sub-01	1	sequence	interval	dot	NaN	NaN	NaN	NaN	NaN	NaN	NaN	NaN	NaN	NaN	NaN	NaN
533.7365381	0.0999	sub-01	1	sequence	stimulus	Katze	NaN	NaN	32.0	NaN	NaN	3.0	5.0	NaN	NaN	NaN	NaN	NaN
533.8364860999991	0.0334	sub-01	1	sequence	interval	dot	NaN	NaN	NaN	NaN	NaN	NaN	NaN	NaN	NaN	NaN	NaN	NaN
533.8698569999997	8.5218	sub-01	1	sequence	delay	dot	NaN	NaN	NaN	NaN	NaN	NaN	NaN	NaN	NaN	NaN	NaN	NaN
542.3681818999994	0.8262	sub-01	1	sequence	choice	choice	left	NaN	NaN	-43.374233400001685	True	NaN	NaN	left	True	4.0	2.0	4.0
543.1947423000001	0.4997	sub-01	1	sequence	feedback	NaN	NaN	NaN	NaN	NaN	NaN	NaN	NaN	NaN	NaN	NaN	NaN	NaN
543.6946639999987	1.0003	sub-01	1	sequence	cue	Gesicht	NaN	NaN	NaN	NaN	NaN	NaN	NaN	NaN	NaN	NaN	NaN	NaN
544.6949519999998	2.0016	sub-01	1	sequence	blank	blank	NaN	NaN	NaN	NaN	NaN	NaN	NaN	NaN	NaN	NaN	NaN	NaN
546.6965608999999	0.3003	sub-01	1	sequence	fixation	dot	NaN	NaN	NaN	NaN	NaN	NaN	NaN	NaN	NaN	NaN	NaN	NaN
547.0151925999999	0.1151	sub-01	1	sequence	stimulus	Haus	NaN	NaN	512.0	NaN	NaN	2.0	1.0	NaN	NaN	NaN	NaN	NaN
547.1303420999993	0.5171	sub-01	1	sequence	interval	dot	NaN	NaN	NaN	NaN	NaN	NaN	NaN	NaN	NaN	NaN	NaN	NaN
547.6474306	0.1	sub-01	1	sequence	stimulus	Katze	NaN	NaN	512.0	NaN	NaN	3.0	2.0	NaN	NaN	NaN	NaN	NaN
547.7474143999989	0.5172	sub-01	1	sequence	interval	dot	NaN	NaN	NaN	NaN	NaN	NaN	NaN	NaN	NaN	NaN	NaN	NaN
548.2645770999989	0.1	sub-01	1	sequence	stimulus	Stuhl	NaN	NaN	512.0	NaN	NaN	5.0	3.0	NaN	NaN	NaN	NaN	NaN
548.3645622000004	0.5172	sub-01	1	sequence	interval	dot	NaN	NaN	NaN	NaN	NaN	NaN	NaN	NaN	NaN	NaN	NaN	NaN
548.8817528	0.1	sub-01	1	sequence	stimulus	Schuh	NaN	NaN	512.0	NaN	NaN	4.0	4.0	NaN	NaN	NaN	NaN	NaN
548.9817205999989	0.5172	sub-01	1	sequence	interval	dot	NaN	NaN	NaN	NaN	NaN	NaN	NaN	NaN	NaN	NaN	NaN	NaN
549.4989475999992	0.0999	sub-01	1	sequence	stimulus	Gesicht	NaN	NaN	512.0	NaN	NaN	1.0	5.0	NaN	NaN	NaN	NaN	NaN
549.5988110999988	0.5172	sub-01	1	sequence	interval	dot	NaN	NaN	NaN	NaN	NaN	NaN	NaN	NaN	NaN	NaN	NaN	NaN
550.115988399999	6.1536	sub-01	1	sequence	delay	dot	NaN	NaN	NaN	NaN	NaN	NaN	NaN	NaN	NaN	NaN	NaN	NaN
556.2518874999987	0.9371	sub-01	1	sequence	choice	choice	right	NaN	NaN	-43.25190510000175	True	NaN	NaN	right	True	4.0	5.0	5.0
557.1892248000004	0.4999	sub-01	1	sequence	feedback	NaN	NaN	NaN	NaN	NaN	NaN	NaN	NaN	NaN	NaN	NaN	NaN	NaN
557.6893271999998	1.0003	sub-01	1	sequence	cue	Katze	NaN	NaN	NaN	NaN	NaN	NaN	NaN	NaN	NaN	NaN	NaN	NaN
558.6896215999986	2.0017	sub-01	1	sequence	blank	blank	NaN	NaN	NaN	NaN	NaN	NaN	NaN	NaN	NaN	NaN	NaN	NaN
560.6913077999998	0.3002	sub-01	1	sequence	fixation	dot	NaN	NaN	NaN	NaN	NaN	NaN	NaN	NaN	NaN	NaN	NaN	NaN
561.0090327999987	0.0991	sub-01	1	sequence	stimulus	Haus	NaN	NaN	128.0	NaN	NaN	2.0	1.0	NaN	NaN	NaN	NaN	NaN
561.1081789	0.1336	sub-01	1	sequence	interval	dot	NaN	NaN	NaN	NaN	NaN	NaN	NaN	NaN	NaN	NaN	NaN	NaN
561.2417681999996	0.1	sub-01	1	sequence	stimulus	Katze	NaN	NaN	128.0	NaN	NaN	3.0	2.0	NaN	NaN	NaN	NaN	NaN
561.3417551999992	0.1335	sub-01	1	sequence	interval	dot	NaN	NaN	NaN	NaN	NaN	NaN	NaN	NaN	NaN	NaN	NaN	NaN
561.4753020999997	0.1	sub-01	1	sequence	stimulus	Stuhl	NaN	NaN	128.0	NaN	NaN	5.0	3.0	NaN	NaN	NaN	NaN	NaN
561.5752855999999	0.1335	sub-01	1	sequence	interval	dot	NaN	NaN	NaN	NaN	NaN	NaN	NaN	NaN	NaN	NaN	NaN	NaN
561.708813199999	0.1	sub-01	1	sequence	stimulus	Gesicht	NaN	NaN	128.0	NaN	NaN	1.0	4.0	NaN	NaN	NaN	NaN	NaN
561.8087869999999	0.1335	sub-01	1	sequence	interval	dot	NaN	NaN	NaN	NaN	NaN	NaN	NaN	NaN	NaN	NaN	NaN	NaN
561.942334899999	0.0999	sub-01	1	sequence	stimulus	Schuh	NaN	NaN	128.0	NaN	NaN	4.0	5.0	NaN	NaN	NaN	NaN	NaN
562.0422841	0.1335	sub-01	1	sequence	interval	dot	NaN	NaN	NaN	NaN	NaN	NaN	NaN	NaN	NaN	NaN	NaN	NaN
562.175784699999	8.055	sub-01	1	sequence	delay	dot	NaN	NaN	NaN	NaN	NaN	NaN	NaN	NaN	NaN	NaN	NaN	NaN
570.2135715000004	0.8034	sub-01	1	sequence	choice	choice	left	NaN	NaN	-43.38892410000153	False	NaN	NaN	right	True	3.0	2.0	2.0
571.0172593999996	0.4998	sub-01	1	sequence	feedback	NaN	NaN	NaN	NaN	NaN	NaN	NaN	NaN	NaN	NaN	NaN	NaN	NaN
571.5172487	1.0003	sub-01	1	sequence	cue	Stuhl	NaN	NaN	NaN	NaN	NaN	NaN	NaN	NaN	NaN	NaN	NaN	NaN
572.5175767000001	2.0016	sub-01	1	sequence	blank	blank	NaN	NaN	NaN	NaN	NaN	NaN	NaN	NaN	NaN	NaN	NaN	NaN
574.5192186999993	0.3003	sub-01	1	sequence	fixation	dot	NaN	NaN	NaN	NaN	NaN	NaN	NaN	NaN	NaN	NaN	NaN	NaN
574.8377892999997	0.1151	sub-01	1	sequence	stimulus	Gesicht	NaN	NaN	512.0	NaN	NaN	1.0	1.0	NaN	NaN	NaN	NaN	NaN
574.9529167000001	0.5172	sub-01	1	sequence	interval	dot	NaN	NaN	NaN	NaN	NaN	NaN	NaN	NaN	NaN	NaN	NaN	NaN
575.4701647999991	0.1	sub-01	1	sequence	stimulus	Haus	NaN	NaN	512.0	NaN	NaN	2.0	2.0	NaN	NaN	NaN	NaN	NaN
575.5701274000003	0.5171	sub-01	1	sequence	interval	dot	NaN	NaN	NaN	NaN	NaN	NaN	NaN	NaN	NaN	NaN	NaN	NaN
576.0872768999998	0.0999	sub-01	1	sequence	stimulus	Stuhl	NaN	NaN	512.0	NaN	NaN	5.0	3.0	NaN	NaN	NaN	NaN	NaN
576.1872138999988	0.5172	sub-01	1	sequence	interval	dot	NaN	NaN	NaN	NaN	NaN	NaN	NaN	NaN	NaN	NaN	NaN	NaN
576.7043796999988	0.1	sub-01	1	sequence	stimulus	Schuh	NaN	NaN	512.0	NaN	NaN	4.0	4.0	NaN	NaN	NaN	NaN	NaN
576.8043338999996	0.5172	sub-01	1	sequence	interval	dot	NaN	NaN	NaN	NaN	NaN	NaN	NaN	NaN	NaN	NaN	NaN	NaN
577.321577499999	0.1	sub-01	1	sequence	stimulus	Katze	NaN	NaN	512.0	NaN	NaN	3.0	5.0	NaN	NaN	NaN	NaN	NaN
577.421580799999	0.5171	sub-01	1	sequence	interval	dot	NaN	NaN	NaN	NaN	NaN	NaN	NaN	NaN	NaN	NaN	NaN	NaN
577.9386744000003	6.1534	sub-01	1	sequence	delay	dot	NaN	NaN	NaN	NaN	NaN	NaN	NaN	NaN	NaN	NaN	NaN	NaN
584.0713696000003	1.0568	sub-01	1	sequence	choice	choice	right	NaN	NaN	-43.13856820000183	True	NaN	NaN	right	True	4.0	3.0	3.0
585.1284961000001	0.5	sub-01	1	sequence	feedback	NaN	NaN	NaN	NaN	NaN	NaN	NaN	NaN	NaN	NaN	NaN	NaN	NaN
585.6286872000001	1.0004	sub-01	1	sequence	cue	Katze	NaN	NaN	NaN	NaN	NaN	NaN	NaN	NaN	NaN	NaN	NaN	NaN
586.6290518999995	2.0015	sub-01	1	sequence	blank	blank	NaN	NaN	NaN	NaN	NaN	NaN	NaN	NaN	NaN	NaN	NaN	NaN
588.6305716999996	0.3003	sub-01	1	sequence	fixation	dot	NaN	NaN	NaN	NaN	NaN	NaN	NaN	NaN	NaN	NaN	NaN	NaN
588.9490836999994	0.1152	sub-01	1	sequence	stimulus	Haus	NaN	NaN	32.0	NaN	NaN	2.0	1.0	NaN	NaN	NaN	NaN	NaN
589.0642558	0.0336	sub-01	1	sequence	interval	dot	NaN	NaN	NaN	NaN	NaN	NaN	NaN	NaN	NaN	NaN	NaN	NaN
589.0978342999988	0.0997	sub-01	1	sequence	stimulus	Gesicht	NaN	NaN	32.0	NaN	NaN	1.0	2.0	NaN	NaN	NaN	NaN	NaN
589.1975759999987	0.0335	sub-01	1	sequence	interval	dot	NaN	NaN	NaN	NaN	NaN	NaN	NaN	NaN	NaN	NaN	NaN	NaN
589.231071799999	0.1	sub-01	1	sequence	stimulus	Stuhl	NaN	NaN	32.0	NaN	NaN	5.0	3.0	NaN	NaN	NaN	NaN	NaN
589.3310782999997	0.0336	sub-01	1	sequence	interval	dot	NaN	NaN	NaN	NaN	NaN	NaN	NaN	NaN	NaN	NaN	NaN	NaN
589.3646350999988	0.0998	sub-01	1	sequence	stimulus	Katze	NaN	NaN	32.0	NaN	NaN	3.0	4.0	NaN	NaN	NaN	NaN	NaN
589.4644747999992	0.0336	sub-01	1	sequence	interval	dot	NaN	NaN	NaN	NaN	NaN	NaN	NaN	NaN	NaN	NaN	NaN	NaN
589.4980373999988	0.0999	sub-01	1	sequence	stimulus	Schuh	NaN	NaN	32.0	NaN	NaN	4.0	5.0	NaN	NaN	NaN	NaN	NaN
589.5979790000001	0.0333	sub-01	1	sequence	interval	dot	NaN	NaN	NaN	NaN	NaN	NaN	NaN	NaN	NaN	NaN	NaN	NaN
589.6312550999992	8.5222	sub-01	1	sequence	delay	dot	NaN	NaN	NaN	NaN	NaN	NaN	NaN	NaN	NaN	NaN	NaN	NaN
598.1370609999994	0.8527	sub-01	1	sequence	choice	choice	left	NaN	NaN	-43.327352500000416	True	NaN	NaN	left	True	4.0	3.0	4.0
598.9901016000003	0.4994	sub-01	1	sequence	feedback	NaN	NaN	NaN	NaN	NaN	NaN	NaN	NaN	NaN	NaN	NaN	NaN	NaN
599.4896583999998	1.0007	sub-01	1	sequence	cue	Katze	NaN	NaN	NaN	NaN	NaN	NaN	NaN	NaN	NaN	NaN	NaN	NaN
600.4903300999995	2.0014	sub-01	1	sequence	blank	blank	NaN	NaN	NaN	NaN	NaN	NaN	NaN	NaN	NaN	NaN	NaN	NaN
602.4917090999988	0.3002	sub-01	1	sequence	fixation	dot	NaN	NaN	NaN	NaN	NaN	NaN	NaN	NaN	NaN	NaN	NaN	NaN
602.8095307999993	0.0992	sub-01	1	sequence	stimulus	Gesicht	NaN	NaN	64.0	NaN	NaN	1.0	1.0	NaN	NaN	NaN	NaN	NaN
602.9087120999993	0.0668	sub-01	1	sequence	interval	dot	NaN	NaN	NaN	NaN	NaN	NaN	NaN	NaN	NaN	NaN	NaN	NaN
602.9755618999989	0.1	sub-01	1	sequence	stimulus	Haus	NaN	NaN	64.0	NaN	NaN	2.0	2.0	NaN	NaN	NaN	NaN	NaN
603.0755161999987	0.0668	sub-01	1	sequence	interval	dot	NaN	NaN	NaN	NaN	NaN	NaN	NaN	NaN	NaN	NaN	NaN	NaN
603.1423392999986	0.0999	sub-01	1	sequence	stimulus	Katze	NaN	NaN	64.0	NaN	NaN	3.0	3.0	NaN	NaN	NaN	NaN	NaN
603.2422671000004	0.0669	sub-01	1	sequence	interval	dot	NaN	NaN	NaN	NaN	NaN	NaN	NaN	NaN	NaN	NaN	NaN	NaN
603.3091174000001	0.1001	sub-01	1	sequence	stimulus	Schuh	NaN	NaN	64.0	NaN	NaN	4.0	4.0	NaN	NaN	NaN	NaN	NaN
603.4091731999997	0.0699	sub-01	1	sequence	interval	dot	NaN	NaN	NaN	NaN	NaN	NaN	NaN	NaN	NaN	NaN	NaN	NaN
603.4790261999988	0.1137	sub-01	1	sequence	stimulus	Stuhl	NaN	NaN	64.0	NaN	NaN	5.0	5.0	NaN	NaN	NaN	NaN	NaN
603.5927021999996	0.0667	sub-01	1	sequence	interval	dot	NaN	NaN	NaN	NaN	NaN	NaN	NaN	NaN	NaN	NaN	NaN	NaN
603.6594143000002	8.3885	sub-01	1	sequence	delay	dot	NaN	NaN	NaN	NaN	NaN	NaN	NaN	NaN	NaN	NaN	NaN	NaN
612.0207520000004	0.8801	sub-01	1	sequence	choice	choice	left	NaN	NaN	-43.31061260000024	True	NaN	NaN	left	True	3.0	5.0	3.0
612.9011437999998	0.4997	sub-01	1	sequence	feedback	NaN	NaN	NaN	NaN	NaN	NaN	NaN	NaN	NaN	NaN	NaN	NaN	NaN
613.4010672999993	1.0005	sub-01	1	sequence	cue	Gesicht	NaN	NaN	NaN	NaN	NaN	NaN	NaN	NaN	NaN	NaN	NaN	NaN
614.4015736999991	2.0014	sub-01	1	sequence	blank	blank	NaN	NaN	NaN	NaN	NaN	NaN	NaN	NaN	NaN	NaN	NaN	NaN
616.4029749999991	0.3004	sub-01	1	sequence	fixation	dot	NaN	NaN	NaN	NaN	NaN	NaN	NaN	NaN	NaN	NaN	NaN	NaN
616.7210608999994	0.0991	sub-01	1	sequence	stimulus	Katze	NaN	NaN	64.0	NaN	NaN	3.0	1.0	NaN	NaN	NaN	NaN	NaN
616.8201884999999	0.0668	sub-01	1	sequence	interval	dot	NaN	NaN	NaN	NaN	NaN	NaN	NaN	NaN	NaN	NaN	NaN	NaN
616.8869914999996	0.1	sub-01	1	sequence	stimulus	Schuh	NaN	NaN	64.0	NaN	NaN	4.0	2.0	NaN	NaN	NaN	NaN	NaN
616.9869841999989	0.0668	sub-01	1	sequence	interval	dot	NaN	NaN	NaN	NaN	NaN	NaN	NaN	NaN	NaN	NaN	NaN	NaN
617.0537738000003	0.1	sub-01	1	sequence	stimulus	Stuhl	NaN	NaN	64.0	NaN	NaN	5.0	3.0	NaN	NaN	NaN	NaN	NaN
617.1537632	0.0669	sub-01	1	sequence	interval	dot	NaN	NaN	NaN	NaN	NaN	NaN	NaN	NaN	NaN	NaN	NaN	NaN
617.2206583999996	0.0999	sub-01	1	sequence	stimulus	Haus	NaN	NaN	64.0	NaN	NaN	2.0	4.0	NaN	NaN	NaN	NaN	NaN
617.3205865	0.0668	sub-01	1	sequence	interval	dot	NaN	NaN	NaN	NaN	NaN	NaN	NaN	NaN	NaN	NaN	NaN	NaN
617.3874039999992	0.0999	sub-01	1	sequence	stimulus	Gesicht	NaN	NaN	64.0	NaN	NaN	1.0	5.0	NaN	NaN	NaN	NaN	NaN
617.4873444999994	0.0669	sub-01	1	sequence	interval	dot	NaN	NaN	NaN	NaN	NaN	NaN	NaN	NaN	NaN	NaN	NaN	NaN
617.5542562999999	8.388	sub-01	1	sequence	delay	dot	NaN	NaN	NaN	NaN	NaN	NaN	NaN	NaN	NaN	NaN	NaN	NaN
625.9305112999991	1.6822	sub-01	1	sequence	choice	choice	right	NaN	NaN	-42.50095320000037	True	NaN	NaN	right	True	1.0	5.0	5.0
627.6129440999994	0.4998	sub-01	1	sequence	feedback	NaN	NaN	NaN	NaN	NaN	NaN	NaN	NaN	NaN	NaN	NaN	NaN	NaN
628.1130314000002	1.0002	sub-01	1	sequence	cue	Gesicht	NaN	NaN	NaN	NaN	NaN	NaN	NaN	NaN	NaN	NaN	NaN	NaN
629.1132660000003	2.0017	sub-01	1	sequence	blank	blank	NaN	NaN	NaN	NaN	NaN	NaN	NaN	NaN	NaN	NaN	NaN	NaN
631.1149287999997	0.3003	sub-01	1	sequence	fixation	dot	NaN	NaN	NaN	NaN	NaN	NaN	NaN	NaN	NaN	NaN	NaN	NaN
631.4335379999993	0.115	sub-01	1	sequence	stimulus	Haus	NaN	NaN	128.0	NaN	NaN	2.0	1.0	NaN	NaN	NaN	NaN	NaN
631.5485023000001	0.1338	sub-01	1	sequence	interval	dot	NaN	NaN	NaN	NaN	NaN	NaN	NaN	NaN	NaN	NaN	NaN	NaN
631.6822642999996	0.1001	sub-01	1	sequence	stimulus	Stuhl	NaN	NaN	128.0	NaN	NaN	5.0	2.0	NaN	NaN	NaN	NaN	NaN
631.7823362999989	0.1334	sub-01	1	sequence	interval	dot	NaN	NaN	NaN	NaN	NaN	NaN	NaN	NaN	NaN	NaN	NaN	NaN
631.9157741999989	0.1	sub-01	1	sequence	stimulus	Schuh	NaN	NaN	128.0	NaN	NaN	4.0	3.0	NaN	NaN	NaN	NaN	NaN
632.0157493999995	0.1336	sub-01	1	sequence	interval	dot	NaN	NaN	NaN	NaN	NaN	NaN	NaN	NaN	NaN	NaN	NaN	NaN
632.1493694000001	0.0999	sub-01	1	sequence	stimulus	Katze	NaN	NaN	128.0	NaN	NaN	3.0	4.0	NaN	NaN	NaN	NaN	NaN
632.2493161000002	0.1335	sub-01	1	sequence	interval	dot	NaN	NaN	NaN	NaN	NaN	NaN	NaN	NaN	NaN	NaN	NaN	NaN
632.3828181999997	0.1001	sub-01	1	sequence	stimulus	Gesicht	NaN	NaN	128.0	NaN	NaN	1.0	5.0	NaN	NaN	NaN	NaN	NaN
632.4829312999991	0.1333	sub-01	1	sequence	interval	dot	NaN	NaN	NaN	NaN	NaN	NaN	NaN	NaN	NaN	NaN	NaN	NaN
632.6162100999991	8.0717	sub-01	1	sequence	delay	dot	NaN	NaN	NaN	NaN	NaN	NaN	NaN	NaN	NaN	NaN	NaN	NaN
640.6721762999987	0.9687	sub-01	1	sequence	choice	choice	left	NaN	NaN	-43.21462170000086	True	NaN	NaN	left	True	5.0	2.0	5.0
641.6411188000002	0.4996	sub-01	1	sequence	feedback	NaN	NaN	NaN	NaN	NaN	NaN	NaN	NaN	NaN	NaN	NaN	NaN	NaN
645.9611042999986	0.4996	sub-01	1	localizer	stimulus	Schuh	NaN	0	2.552009500001077	NaN	True	NaN	NaN	NaN	NaN	NaN	NaN	NaN
646.4440677999992	2.552	sub-01	1	localizer	blank	interval	NaN	NaN	NaN	NaN	NaN	NaN	NaN	NaN	NaN	NaN	NaN	NaN
649.2972202000001	0.4994	sub-01	1	localizer	stimulus	Gesicht	NaN	180	2.6187411999999313	-43.56648060000043	True	NaN	NaN	NaN	NaN	NaN	NaN	NaN
649.7802057999997	2.6187	sub-01	1	localizer	blank	interval	NaN	NaN	NaN	NaN	NaN	NaN	NaN	NaN	NaN	NaN	NaN	NaN
652.6999220999987	0.4996	sub-01	1	localizer	stimulus	Gesicht	NaN	0	1.1674253000001045	NaN	True	NaN	NaN	NaN	NaN	NaN	NaN	NaN
653.1830379000003	1.1674	sub-01	1	localizer	blank	interval	NaN	NaN	NaN	NaN	NaN	NaN	NaN	NaN	NaN	NaN	NaN	NaN
654.6517131	0.4994	sub-01	1	localizer	stimulus	Stuhl	NaN	0	2.635109899998497	NaN	True	NaN	NaN	NaN	NaN	NaN	NaN	NaN
655.1345958000002	2.6351	sub-01	1	localizer	blank	interval	NaN	NaN	NaN	NaN	NaN	NaN	NaN	NaN	NaN	NaN	NaN	NaN
658.0711455000001	0.4992	sub-01	1	localizer	stimulus	Stuhl	NaN	0	1.8179173999997147	NaN	True	NaN	NaN	NaN	NaN	NaN	NaN	NaN
658.5540266999997	1.8179	sub-01	1	localizer	blank	interval	NaN	NaN	NaN	NaN	NaN	NaN	NaN	NaN	NaN	NaN	NaN	NaN
660.673101299999	0.4995	sub-01	1	localizer	stimulus	Gesicht	NaN	0	2.301768599998468	NaN	True	NaN	NaN	NaN	NaN	NaN	NaN	NaN
661.1560809000002	2.3018	sub-01	1	localizer	blank	interval	NaN	NaN	NaN	NaN	NaN	NaN	NaN	NaN	NaN	NaN	NaN	NaN
663.7589671999995	0.4998	sub-01	1	localizer	stimulus	Haus	NaN	180	2.3850641999997606	-43.58924090000073	True	NaN	NaN	NaN	NaN	NaN	NaN	NaN
664.2418909999997	2.3851	sub-01	1	localizer	blank	interval	NaN	NaN	NaN	NaN	NaN	NaN	NaN	NaN	NaN	NaN	NaN	NaN
666.9280677999996	0.4996	sub-01	1	localizer	stimulus	Katze	NaN	0	2.7855433999993693	NaN	True	NaN	NaN	NaN	NaN	NaN	NaN	NaN
667.4110082999996	2.7855	sub-01	1	localizer	blank	interval	NaN	NaN	NaN	NaN	NaN	NaN	NaN	NaN	NaN	NaN	NaN	NaN
670.4977889999991	0.4995	sub-01	1	localizer	stimulus	Gesicht	NaN	0	2.618692199999714	NaN	True	NaN	NaN	NaN	NaN	NaN	NaN	NaN
670.9806193999993	2.6187	sub-01	1	localizer	blank	interval	NaN	NaN	NaN	NaN	NaN	NaN	NaN	NaN	NaN	NaN	NaN	NaN
673.9004329999989	0.4996	sub-01	1	localizer	stimulus	Schuh	NaN	180	2.8020247999993444	-43.64241560000119	True	NaN	NaN	NaN	NaN	NaN	NaN	NaN
674.3834396000002	2.802	sub-01	1	localizer	blank	interval	NaN	NaN	NaN	NaN	NaN	NaN	NaN	NaN	NaN	NaN	NaN	NaN
677.4866387999991	0.4995	sub-01	1	localizer	stimulus	Haus	NaN	0	1.884888199998386	NaN	True	NaN	NaN	NaN	NaN	NaN	NaN	NaN
677.9695582000004	1.8849	sub-01	1	localizer	blank	interval	NaN	NaN	NaN	NaN	NaN	NaN	NaN	NaN	NaN	NaN	NaN	NaN
680.1555226	0.4995	sub-01	1	localizer	stimulus	Gesicht	NaN	0	3.9863538999998127	NaN	True	NaN	NaN	NaN	NaN	NaN	NaN	NaN
680.6385303999996	3.9864	sub-01	1	localizer	blank	interval	NaN	NaN	NaN	NaN	NaN	NaN	NaN	NaN	NaN	NaN	NaN	NaN
684.926105999999	0.4993	sub-01	1	localizer	stimulus	Katze	NaN	0	3.135717899998781	NaN	True	NaN	NaN	NaN	NaN	NaN	NaN	NaN
685.4089027999999	3.1357	sub-01	1	localizer	blank	interval	NaN	NaN	NaN	NaN	NaN	NaN	NaN	NaN	NaN	NaN	NaN	NaN
688.8458233999991	0.4995	sub-01	1	localizer	stimulus	Haus	NaN	0	3.102629299999535	NaN	True	NaN	NaN	NaN	NaN	NaN	NaN	NaN
689.3287719	3.1026	sub-01	1	localizer	blank	interval	NaN	NaN	NaN	NaN	NaN	NaN	NaN	NaN	NaN	NaN	NaN	NaN
692.7323823999996	0.4997	sub-01	1	localizer	stimulus	Schuh	NaN	0	3.002060900000288	NaN	True	NaN	NaN	NaN	NaN	NaN	NaN	NaN
693.2154644999991	3.0021	sub-01	1	localizer	blank	interval	NaN	NaN	NaN	NaN	NaN	NaN	NaN	NaN	NaN	NaN	NaN	NaN
696.5187174000002	0.4994	sub-01	1	localizer	stimulus	Katze	NaN	0	2.902153199998793	NaN	True	NaN	NaN	NaN	NaN	NaN	NaN	NaN
697.0016661999998	2.9022	sub-01	1	localizer	blank	interval	NaN	NaN	NaN	NaN	NaN	NaN	NaN	NaN	NaN	NaN	NaN	NaN
700.205140099999	0.4995	sub-01	1	localizer	stimulus	Katze	NaN	180	2.8688500999996904	-43.55481350000082	True	NaN	NaN	NaN	NaN	NaN	NaN	NaN
700.6881467000003	2.8689	sub-01	1	localizer	blank	interval	NaN	NaN	NaN	NaN	NaN	NaN	NaN	NaN	NaN	NaN	NaN	NaN
703.8581317999997	0.4993	sub-01	1	localizer	stimulus	Stuhl	NaN	0	2.301632400000017	NaN	True	NaN	NaN	NaN	NaN	NaN	NaN	NaN
704.3409892	2.3016	sub-01	1	localizer	blank	interval	NaN	NaN	NaN	NaN	NaN	NaN	NaN	NaN	NaN	NaN	NaN	NaN
706.9438152000002	0.4994	sub-01	1	localizer	stimulus	Schuh	NaN	0	2.6519849999986036	NaN	True	NaN	NaN	NaN	NaN	NaN	NaN	NaN
707.4267280000004	2.652	sub-01	1	localizer	blank	interval	NaN	NaN	NaN	NaN	NaN	NaN	NaN	NaN	NaN	NaN	NaN	NaN
710.3799210999987	0.4996	sub-01	1	localizer	stimulus	Schuh	NaN	0	2.9356924000003346	NaN	True	NaN	NaN	NaN	NaN	NaN	NaN	NaN
710.8629043000001	2.9357	sub-01	1	localizer	blank	interval	NaN	NaN	NaN	NaN	NaN	NaN	NaN	NaN	NaN	NaN	NaN	NaN
714.0997976999988	0.4993	sub-01	1	localizer	stimulus	Stuhl	NaN	0	2.4517708999992465	NaN	True	NaN	NaN	NaN	NaN	NaN	NaN	NaN
714.5825843000002	2.4518	sub-01	1	localizer	blank	interval	NaN	NaN	NaN	NaN	NaN	NaN	NaN	NaN	NaN	NaN	NaN	NaN
717.3355161	0.4995	sub-01	1	localizer	stimulus	Haus	NaN	0	2.0014675999991596	NaN	True	NaN	NaN	NaN	NaN	NaN	NaN	NaN
717.8184805000001	2.0015	sub-01	1	localizer	blank	interval	NaN	NaN	NaN	NaN	NaN	NaN	NaN	NaN	NaN	NaN	NaN	NaN
720.1211328999998	0.4994	sub-01	1	localizer	stimulus	Haus	NaN	0	2.852372600000308	NaN	True	NaN	NaN	NaN	NaN	NaN	NaN	NaN
720.6040764999998	2.8524	sub-01	1	localizer	blank	interval	NaN	NaN	NaN	NaN	NaN	NaN	NaN	NaN	NaN	NaN	NaN	NaN
723.7574673999989	0.4995	sub-01	1	localizer	stimulus	Stuhl	NaN	180	3.1356863000000885	-43.60380450000048	True	NaN	NaN	NaN	NaN	NaN	NaN	NaN
724.2404621999995	3.1357	sub-01	1	localizer	blank	interval	NaN	NaN	NaN	NaN	NaN	NaN	NaN	NaN	NaN	NaN	NaN	NaN
727.6773470999997	0.4995	sub-01	1	localizer	stimulus	Katze	NaN	0	1.918170299999474	NaN	True	NaN	NaN	NaN	NaN	NaN	NaN	NaN
728.1602882999996	1.9182	sub-01	1	localizer	blank	interval	NaN	NaN	NaN	NaN	NaN	NaN	NaN	NaN	NaN	NaN	NaN	NaN
733.5652637000003	1.0001	sub-01	1	sequence	cue	Stuhl	NaN	NaN	NaN	NaN	NaN	NaN	NaN	NaN	NaN	NaN	NaN	NaN
734.5653624999995	2.0016	sub-01	1	sequence	blank	blank	NaN	NaN	NaN	NaN	NaN	NaN	NaN	NaN	NaN	NaN	NaN	NaN
736.5669332999987	0.3003	sub-01	1	sequence	fixation	dot	NaN	NaN	NaN	NaN	NaN	NaN	NaN	NaN	NaN	NaN	NaN	NaN
736.9006035000002	0.1001	sub-01	1	sequence	stimulus	Haus	NaN	NaN	32.0	NaN	NaN	2.0	1.0	NaN	NaN	NaN	NaN	NaN
737.0006902999994	0.0334	sub-01	1	sequence	interval	dot	NaN	NaN	NaN	NaN	NaN	NaN	NaN	NaN	NaN	NaN	NaN	NaN
737.0340902999997	0.0999	sub-01	1	sequence	stimulus	Gesicht	NaN	NaN	32.0	NaN	NaN	1.0	2.0	NaN	NaN	NaN	NaN	NaN
737.134027099999	0.0335	sub-01	1	sequence	interval	dot	NaN	NaN	NaN	NaN	NaN	NaN	NaN	NaN	NaN	NaN	NaN	NaN
737.1675020999992	0.1001	sub-01	1	sequence	stimulus	Stuhl	NaN	NaN	32.0	NaN	NaN	5.0	3.0	NaN	NaN	NaN	NaN	NaN
737.2675760999991	0.0334	sub-01	1	sequence	interval	dot	NaN	NaN	NaN	NaN	NaN	NaN	NaN	NaN	NaN	NaN	NaN	NaN
737.3009585	0.1	sub-01	1	sequence	stimulus	Katze	NaN	NaN	32.0	NaN	NaN	3.0	4.0	NaN	NaN	NaN	NaN	NaN
737.4009537999991	0.0335	sub-01	1	sequence	interval	dot	NaN	NaN	NaN	NaN	NaN	NaN	NaN	NaN	NaN	NaN	NaN	NaN
737.4344839999994	0.1	sub-01	1	sequence	stimulus	Schuh	NaN	NaN	32.0	NaN	NaN	4.0	5.0	NaN	NaN	NaN	NaN	NaN
737.5344789999999	0.0333	sub-01	1	sequence	interval	dot	NaN	NaN	NaN	NaN	NaN	NaN	NaN	NaN	NaN	NaN	NaN	NaN
737.5677570999997	8.5221	sub-01	1	sequence	delay	dot	NaN	NaN	NaN	NaN	NaN	NaN	NaN	NaN	NaN	NaN	NaN	NaN
746.0740311999998	1.2356	sub-01	1	sequence	choice	choice	right	NaN	NaN	-42.9438654000005	True	NaN	NaN	right	True	5.0	3.0	3.0
747.3100501999998	0.4997	sub-01	1	sequence	feedback	NaN	NaN	NaN	NaN	NaN	NaN	NaN	NaN	NaN	NaN	NaN	NaN	NaN
747.8099736000004	1.0002	sub-01	1	sequence	cue	Gesicht	NaN	NaN	NaN	NaN	NaN	NaN	NaN	NaN	NaN	NaN	NaN	NaN
748.8101778	2.0017	sub-01	1	sequence	blank	blank	NaN	NaN	NaN	NaN	NaN	NaN	NaN	NaN	NaN	NaN	NaN	NaN
750.811871599999	0.3001	sub-01	1	sequence	fixation	dot	NaN	NaN	NaN	NaN	NaN	NaN	NaN	NaN	NaN	NaN	NaN	NaN
751.1295047000003	0.0993	sub-01	1	sequence	stimulus	Stuhl	NaN	NaN	32.0	NaN	NaN	5.0	1.0	NaN	NaN	NaN	NaN	NaN
751.2288104999989	0.0335	sub-01	1	sequence	interval	dot	NaN	NaN	NaN	NaN	NaN	NaN	NaN	NaN	NaN	NaN	NaN	NaN
751.2622812999998	0.0998	sub-01	1	sequence	stimulus	Schuh	NaN	NaN	32.0	NaN	NaN	4.0	2.0	NaN	NaN	NaN	NaN	NaN
751.3621249999997	0.0336	sub-01	1	sequence	interval	dot	NaN	NaN	NaN	NaN	NaN	NaN	NaN	NaN	NaN	NaN	NaN	NaN
751.3957527000002	0.1	sub-01	1	sequence	stimulus	Haus	NaN	NaN	32.0	NaN	NaN	2.0	3.0	NaN	NaN	NaN	NaN	NaN
751.4957033999999	0.0334	sub-01	1	sequence	interval	dot	NaN	NaN	NaN	NaN	NaN	NaN	NaN	NaN	NaN	NaN	NaN	NaN
751.5291180999993	0.1	sub-01	1	sequence	stimulus	Gesicht	NaN	NaN	32.0	NaN	NaN	1.0	4.0	NaN	NaN	NaN	NaN	NaN
751.6291442000002	0.0334	sub-01	1	sequence	interval	dot	NaN	NaN	NaN	NaN	NaN	NaN	NaN	NaN	NaN	NaN	NaN	NaN
751.6625738999992	0.1	sub-01	1	sequence	stimulus	Katze	NaN	NaN	32.0	NaN	NaN	3.0	5.0	NaN	NaN	NaN	NaN	NaN
751.7626175999994	0.0333	sub-01	1	sequence	interval	dot	NaN	NaN	NaN	NaN	NaN	NaN	NaN	NaN	NaN	NaN	NaN	NaN
751.7959250999993	8.5386	sub-01	1	sequence	delay	dot	NaN	NaN	NaN	NaN	NaN	NaN	NaN	NaN	NaN	NaN	NaN	NaN
760.3217286999989	0.799	sub-01	1	sequence	choice	choice	left	NaN	NaN	-43.38069770000038	True	NaN	NaN	left	True	4.0	5.0	4.0
761.1209743	0.4997	sub-01	1	sequence	feedback	NaN	NaN	NaN	NaN	NaN	NaN	NaN	NaN	NaN	NaN	NaN	NaN	NaN
761.6207789	1.0005	sub-01	1	sequence	cue	Stuhl	NaN	NaN	NaN	NaN	NaN	NaN	NaN	NaN	NaN	NaN	NaN	NaN
762.6213150999993	2.0018	sub-01	1	sequence	blank	blank	NaN	NaN	NaN	NaN	NaN	NaN	NaN	NaN	NaN	NaN	NaN	NaN
764.6231092999988	0.3001	sub-01	1	sequence	fixation	dot	NaN	NaN	NaN	NaN	NaN	NaN	NaN	NaN	NaN	NaN	NaN	NaN
764.9407324999993	0.0992	sub-01	1	sequence	stimulus	Haus	NaN	NaN	128.0	NaN	NaN	2.0	1.0	NaN	NaN	NaN	NaN	NaN
765.0399803	0.1335	sub-01	1	sequence	interval	dot	NaN	NaN	NaN	NaN	NaN	NaN	NaN	NaN	NaN	NaN	NaN	NaN
765.173499999999	0.1	sub-01	1	sequence	stimulus	Katze	NaN	NaN	128.0	NaN	NaN	3.0	2.0	NaN	NaN	NaN	NaN	NaN
765.2735176999995	0.1335	sub-01	1	sequence	interval	dot	NaN	NaN	NaN	NaN	NaN	NaN	NaN	NaN	NaN	NaN	NaN	NaN
765.4070432999997	0.1	sub-01	1	sequence	stimulus	Stuhl	NaN	NaN	128.0	NaN	NaN	5.0	3.0	NaN	NaN	NaN	NaN	NaN
765.5070397999989	0.1335	sub-01	1	sequence	interval	dot	NaN	NaN	NaN	NaN	NaN	NaN	NaN	NaN	NaN	NaN	NaN	NaN
765.6405641999991	0.1	sub-01	1	sequence	stimulus	Gesicht	NaN	NaN	128.0	NaN	NaN	1.0	4.0	NaN	NaN	NaN	NaN	NaN
765.7405597999987	0.1336	sub-01	1	sequence	interval	dot	NaN	NaN	NaN	NaN	NaN	NaN	NaN	NaN	NaN	NaN	NaN	NaN
765.8741288000001	0.1001	sub-01	1	sequence	stimulus	Schuh	NaN	NaN	128.0	NaN	NaN	4.0	5.0	NaN	NaN	NaN	NaN	NaN
765.9741877999986	0.1334	sub-01	1	sequence	interval	dot	NaN	NaN	NaN	NaN	NaN	NaN	NaN	NaN	NaN	NaN	NaN	NaN
766.1075724999992	8.0715	sub-01	1	sequence	delay	dot	NaN	NaN	NaN	NaN	NaN	NaN	NaN	NaN	NaN	NaN	NaN	NaN
774.1534941999998	0.8622	sub-01	1	sequence	choice	choice	left	NaN	NaN	-43.32937750000019	True	NaN	NaN	left	True	3.0	1.0	3.0
775.0159488999998	0.4994	sub-01	1	sequence	feedback	NaN	NaN	NaN	NaN	NaN	NaN	NaN	NaN	NaN	NaN	NaN	NaN	NaN
775.5155443000003	1.0005	sub-01	1	sequence	cue	Gesicht	NaN	NaN	NaN	NaN	NaN	NaN	NaN	NaN	NaN	NaN	NaN	NaN
776.5160244999988	2.0015	sub-01	1	sequence	blank	blank	NaN	NaN	NaN	NaN	NaN	NaN	NaN	NaN	NaN	NaN	NaN	NaN
778.5175493999996	0.3003	sub-01	1	sequence	fixation	dot	NaN	NaN	NaN	NaN	NaN	NaN	NaN	NaN	NaN	NaN	NaN	NaN
778.8360984999999	0.1151	sub-01	1	sequence	stimulus	Katze	NaN	NaN	64.0	NaN	NaN	3.0	1.0	NaN	NaN	NaN	NaN	NaN
778.9511612999995	0.0668	sub-01	1	sequence	interval	dot	NaN	NaN	NaN	NaN	NaN	NaN	NaN	NaN	NaN	NaN	NaN	NaN
779.0179601999989	0.1	sub-01	1	sequence	stimulus	Schuh	NaN	NaN	64.0	NaN	NaN	4.0	2.0	NaN	NaN	NaN	NaN	NaN
779.1179468999999	0.0668	sub-01	1	sequence	interval	dot	NaN	NaN	NaN	NaN	NaN	NaN	NaN	NaN	NaN	NaN	NaN	NaN
779.1847698999991	0.1	sub-01	1	sequence	stimulus	Stuhl	NaN	NaN	64.0	NaN	NaN	5.0	3.0	NaN	NaN	NaN	NaN	NaN
779.2847547000001	0.0669	sub-01	1	sequence	interval	dot	NaN	NaN	NaN	NaN	NaN	NaN	NaN	NaN	NaN	NaN	NaN	NaN
779.3516073999999	0.0999	sub-01	1	sequence	stimulus	Haus	NaN	NaN	64.0	NaN	NaN	2.0	4.0	NaN	NaN	NaN	NaN	NaN
779.4515465999993	0.0669	sub-01	1	sequence	interval	dot	NaN	NaN	NaN	NaN	NaN	NaN	NaN	NaN	NaN	NaN	NaN	NaN
779.5183980000002	0.0999	sub-01	1	sequence	stimulus	Gesicht	NaN	NaN	64.0	NaN	NaN	1.0	5.0	NaN	NaN	NaN	NaN	NaN
779.6183346999987	0.0668	sub-01	1	sequence	interval	dot	NaN	NaN	NaN	NaN	NaN	NaN	NaN	NaN	NaN	NaN	NaN	NaN
779.6851073999987	8.372	sub-01	1	sequence	delay	dot	NaN	NaN	NaN	NaN	NaN	NaN	NaN	NaN	NaN	NaN	NaN	NaN
788.0371211999991	0.9227	sub-01	1	sequence	choice	choice	left	NaN	NaN	-43.27187800000138	True	NaN	NaN	left	True	5.0	3.0	5.0
788.9601141999992	0.4997	sub-01	1	sequence	feedback	NaN	NaN	NaN	NaN	NaN	NaN	NaN	NaN	NaN	NaN	NaN	NaN	NaN
789.4599276999998	1.0006	sub-01	1	sequence	cue	Katze	NaN	NaN	NaN	NaN	NaN	NaN	NaN	NaN	NaN	NaN	NaN	NaN
790.4605128000003	2.0016	sub-01	1	sequence	blank	blank	NaN	NaN	NaN	NaN	NaN	NaN	NaN	NaN	NaN	NaN	NaN	NaN
792.4620924999999	0.3003	sub-01	1	sequence	fixation	dot	NaN	NaN	NaN	NaN	NaN	NaN	NaN	NaN	NaN	NaN	NaN	NaN
792.7801339999987	0.0989	sub-01	1	sequence	stimulus	Haus	NaN	NaN	128.0	NaN	NaN	2.0	1.0	NaN	NaN	NaN	NaN	NaN
792.8790749999989	0.1337	sub-01	1	sequence	interval	dot	NaN	NaN	NaN	NaN	NaN	NaN	NaN	NaN	NaN	NaN	NaN	NaN
793.0127408999997	0.0999	sub-01	1	sequence	stimulus	Stuhl	NaN	NaN	128.0	NaN	NaN	5.0	2.0	NaN	NaN	NaN	NaN	NaN
793.1126010999997	0.1338	sub-01	1	sequence	interval	dot	NaN	NaN	NaN	NaN	NaN	NaN	NaN	NaN	NaN	NaN	NaN	NaN
793.2463714999994	0.0999	sub-01	1	sequence	stimulus	Schuh	NaN	NaN	128.0	NaN	NaN	4.0	3.0	NaN	NaN	NaN	NaN	NaN
793.3462873999997	0.1336	sub-01	1	sequence	interval	dot	NaN	NaN	NaN	NaN	NaN	NaN	NaN	NaN	NaN	NaN	NaN	NaN
793.479859699999	0.1	sub-01	1	sequence	stimulus	Katze	NaN	NaN	128.0	NaN	NaN	3.0	4.0	NaN	NaN	NaN	NaN	NaN
793.5798279999999	0.1336	sub-01	1	sequence	interval	dot	NaN	NaN	NaN	NaN	NaN	NaN	NaN	NaN	NaN	NaN	NaN	NaN
793.7134050999994	0.1	sub-01	1	sequence	stimulus	Gesicht	NaN	NaN	128.0	NaN	NaN	1.0	5.0	NaN	NaN	NaN	NaN	NaN
793.8133574999993	0.1335	sub-01	1	sequence	interval	dot	NaN	NaN	NaN	NaN	NaN	NaN	NaN	NaN	NaN	NaN	NaN	NaN
793.9468090999999	8.0715	sub-01	1	sequence	delay	dot	NaN	NaN	NaN	NaN	NaN	NaN	NaN	NaN	NaN	NaN	NaN	NaN
801.9988692999996	0.8721	sub-01	1	sequence	choice	choice	right	NaN	NaN	-43.31289190000098	True	NaN	NaN	right	True	5.0	4.0	4.0
802.871280899999	0.4999	sub-01	1	sequence	feedback	NaN	NaN	NaN	NaN	NaN	NaN	NaN	NaN	NaN	NaN	NaN	NaN	NaN
803.3714499999987	1.0003	sub-01	1	sequence	cue	Katze	NaN	NaN	NaN	NaN	NaN	NaN	NaN	NaN	NaN	NaN	NaN	NaN
804.3717348999999	2.0018	sub-01	1	sequence	blank	blank	NaN	NaN	NaN	NaN	NaN	NaN	NaN	NaN	NaN	NaN	NaN	NaN
806.3735089999991	0.3002	sub-01	1	sequence	fixation	dot	NaN	NaN	NaN	NaN	NaN	NaN	NaN	NaN	NaN	NaN	NaN	NaN
806.6911870000004	0.0993	sub-01	1	sequence	stimulus	Haus	NaN	NaN	512.0	NaN	NaN	2.0	1.0	NaN	NaN	NaN	NaN	NaN
806.7904565999997	0.5172	sub-01	1	sequence	interval	dot	NaN	NaN	NaN	NaN	NaN	NaN	NaN	NaN	NaN	NaN	NaN	NaN
807.3076187999995	0.1	sub-01	1	sequence	stimulus	Katze	NaN	NaN	512.0	NaN	NaN	3.0	2.0	NaN	NaN	NaN	NaN	NaN
807.4075768000002	0.5174	sub-01	1	sequence	interval	dot	NaN	NaN	NaN	NaN	NaN	NaN	NaN	NaN	NaN	NaN	NaN	NaN
807.9249268000003	0.1	sub-01	1	sequence	stimulus	Stuhl	NaN	NaN	512.0	NaN	NaN	5.0	3.0	NaN	NaN	NaN	NaN	NaN
808.0249060999995	0.5172	sub-01	1	sequence	interval	dot	NaN	NaN	NaN	NaN	NaN	NaN	NaN	NaN	NaN	NaN	NaN	NaN
808.5421226999988	0.0999	sub-01	1	sequence	stimulus	Schuh	NaN	NaN	512.0	NaN	NaN	4.0	4.0	NaN	NaN	NaN	NaN	NaN
808.6420221999997	0.5171	sub-01	1	sequence	interval	dot	NaN	NaN	NaN	NaN	NaN	NaN	NaN	NaN	NaN	NaN	NaN	NaN
809.1591165999998	0.1	sub-01	1	sequence	stimulus	Gesicht	NaN	NaN	512.0	NaN	NaN	1.0	5.0	NaN	NaN	NaN	NaN	NaN
809.2591376	0.517	sub-01	1	sequence	interval	dot	NaN	NaN	NaN	NaN	NaN	NaN	NaN	NaN	NaN	NaN	NaN	NaN
809.7761790999994	6.1535	sub-01	1	sequence	delay	dot	NaN	NaN	NaN	NaN	NaN	NaN	NaN	NaN	NaN	NaN	NaN	NaN
815.9085708999992	0.9407	sub-01	1	sequence	choice	choice	left	NaN	NaN	-43.24776480000037	True	NaN	NaN	left	True	2.0	5.0	2.0
816.8495162999989	0.4998	sub-01	1	sequence	feedback	NaN	NaN	NaN	NaN	NaN	NaN	NaN	NaN	NaN	NaN	NaN	NaN	NaN
817.349545699999	1.0002	sub-01	1	sequence	cue	Stuhl	NaN	NaN	NaN	NaN	NaN	NaN	NaN	NaN	NaN	NaN	NaN	NaN
818.3497217999993	2.0016	sub-01	1	sequence	blank	blank	NaN	NaN	NaN	NaN	NaN	NaN	NaN	NaN	NaN	NaN	NaN	NaN
820.3513254999998	0.3003	sub-01	1	sequence	fixation	dot	NaN	NaN	NaN	NaN	NaN	NaN	NaN	NaN	NaN	NaN	NaN	NaN
820.6699048999999	0.1152	sub-01	1	sequence	stimulus	Gesicht	NaN	NaN	64.0	NaN	NaN	1.0	1.0	NaN	NaN	NaN	NaN	NaN
820.7850677999995	0.0668	sub-01	1	sequence	interval	dot	NaN	NaN	NaN	NaN	NaN	NaN	NaN	NaN	NaN	NaN	NaN	NaN
820.8518399000004	0.1001	sub-01	1	sequence	stimulus	Haus	NaN	NaN	64.0	NaN	NaN	2.0	2.0	NaN	NaN	NaN	NaN	NaN
820.9519280999993	0.0668	sub-01	1	sequence	interval	dot	NaN	NaN	NaN	NaN	NaN	NaN	NaN	NaN	NaN	NaN	NaN	NaN
821.0187521999997	0.0998	sub-01	1	sequence	stimulus	Katze	NaN	NaN	64.0	NaN	NaN	3.0	3.0	NaN	NaN	NaN	NaN	NaN
821.118577199999	0.0669	sub-01	1	sequence	interval	dot	NaN	NaN	NaN	NaN	NaN	NaN	NaN	NaN	NaN	NaN	NaN	NaN
821.1855118000003	0.0999	sub-01	1	sequence	stimulus	Schuh	NaN	NaN	64.0	NaN	NaN	4.0	4.0	NaN	NaN	NaN	NaN	NaN
821.2854583999997	0.0669	sub-01	1	sequence	interval	dot	NaN	NaN	NaN	NaN	NaN	NaN	NaN	NaN	NaN	NaN	NaN	NaN
821.3523540999995	0.1	sub-01	1	sequence	stimulus	Stuhl	NaN	NaN	64.0	NaN	NaN	5.0	5.0	NaN	NaN	NaN	NaN	NaN
821.4523138999994	0.0667	sub-01	1	sequence	interval	dot	NaN	NaN	NaN	NaN	NaN	NaN	NaN	NaN	NaN	NaN	NaN	NaN
821.5189969000003	8.372	sub-01	1	sequence	delay	dot	NaN	NaN	NaN	NaN	NaN	NaN	NaN	NaN	NaN	NaN	NaN	NaN
829.8702646000002	0.8068	sub-01	1	sequence	choice	choice	right	NaN	NaN	-43.37785950000216	True	NaN	NaN	right	True	3.0	5.0	5.0
830.6773758999989	0.4997	sub-01	1	sequence	feedback	NaN	NaN	NaN	NaN	NaN	NaN	NaN	NaN	NaN	NaN	NaN	NaN	NaN
831.1773462000001	1.0003	sub-01	1	sequence	cue	Gesicht	NaN	NaN	NaN	NaN	NaN	NaN	NaN	NaN	NaN	NaN	NaN	NaN
832.1776964000001	2.0017	sub-01	1	sequence	blank	blank	NaN	NaN	NaN	NaN	NaN	NaN	NaN	NaN	NaN	NaN	NaN	NaN
834.1794481999987	0.3002	sub-01	1	sequence	fixation	dot	NaN	NaN	NaN	NaN	NaN	NaN	NaN	NaN	NaN	NaN	NaN	NaN
834.496976299999	0.0994	sub-01	1	sequence	stimulus	Gesicht	NaN	NaN	512.0	NaN	NaN	1.0	1.0	NaN	NaN	NaN	NaN	NaN
834.5963436000002	0.5172	sub-01	1	sequence	interval	dot	NaN	NaN	NaN	NaN	NaN	NaN	NaN	NaN	NaN	NaN	NaN	NaN
835.1135207999996	0.0999	sub-01	1	sequence	stimulus	Haus	NaN	NaN	512.0	NaN	NaN	2.0	2.0	NaN	NaN	NaN	NaN	NaN
835.2134049999986	0.5172	sub-01	1	sequence	interval	dot	NaN	NaN	NaN	NaN	NaN	NaN	NaN	NaN	NaN	NaN	NaN	NaN
835.7306437999996	0.0999	sub-01	1	sequence	stimulus	Stuhl	NaN	NaN	512.0	NaN	NaN	5.0	3.0	NaN	NaN	NaN	NaN	NaN
835.8305885999998	0.5174	sub-01	1	sequence	interval	dot	NaN	NaN	NaN	NaN	NaN	NaN	NaN	NaN	NaN	NaN	NaN	NaN
836.3479647999993	0.0999	sub-01	1	sequence	stimulus	Schuh	NaN	NaN	512.0	NaN	NaN	4.0	4.0	NaN	NaN	NaN	NaN	NaN
836.4478325	0.5172	sub-01	1	sequence	interval	dot	NaN	NaN	NaN	NaN	NaN	NaN	NaN	NaN	NaN	NaN	NaN	NaN
836.9650482999987	0.0999	sub-01	1	sequence	stimulus	Katze	NaN	NaN	512.0	NaN	NaN	3.0	5.0	NaN	NaN	NaN	NaN	NaN
837.0649656999994	0.517	sub-01	1	sequence	interval	dot	NaN	NaN	NaN	NaN	NaN	NaN	NaN	NaN	NaN	NaN	NaN	NaN
837.5819539000004	6.1368	sub-01	1	sequence	delay	dot	NaN	NaN	NaN	NaN	NaN	NaN	NaN	NaN	NaN	NaN	NaN	NaN
843.7020425999999	0.8528	sub-01	1	sequence	choice	choice	right	NaN	NaN	-43.34113520000028	True	NaN	NaN	right	True	3.0	1.0	1.0
844.5551151999989	0.4999	sub-01	1	sequence	feedback	NaN	NaN	NaN	NaN	NaN	NaN	NaN	NaN	NaN	NaN	NaN	NaN	NaN
845.0554894999987	16.6799	sub-01	1	other	break	break	NaN	NaN	NaN	NaN	NaN	NaN	NaN	NaN	NaN	NaN	NaN	NaN
865.5554642999996	0.4995	sub-01	1	localizer	stimulus	Stuhl	NaN	180	3.152897199999643	-43.54571630000101	True	NaN	NaN	NaN	NaN	NaN	NaN	NaN
866.054920999999	3.1529	sub-01	1	localizer	blank	interval	NaN	NaN	NaN	NaN	NaN	NaN	NaN	NaN	NaN	NaN	NaN	NaN
869.5086605999986	0.4996	sub-01	1	localizer	stimulus	Schuh	NaN	0	2.5685173999991093	NaN	True	NaN	NaN	NaN	NaN	NaN	NaN	NaN
869.9916778999996	2.5685	sub-01	1	localizer	blank	interval	NaN	NaN	NaN	NaN	NaN	NaN	NaN	NaN	NaN	NaN	NaN	NaN
872.8615296999997	0.4993	sub-01	1	localizer	stimulus	Haus	NaN	180	2.868925200000376	-43.62815469999987	True	NaN	NaN	NaN	NaN	NaN	NaN	NaN
873.3443074999996	2.8689	sub-01	1	localizer	blank	interval	NaN	NaN	NaN	NaN	NaN	NaN	NaN	NaN	NaN	NaN	NaN	NaN
876.514455999999	0.4996	sub-01	1	localizer	stimulus	Gesicht	NaN	0	3.2022678999983327	NaN	True	NaN	NaN	NaN	NaN	NaN	NaN	NaN
876.9974748000004	3.2023	sub-01	1	localizer	blank	interval	NaN	NaN	NaN	NaN	NaN	NaN	NaN	NaN	NaN	NaN	NaN	NaN
880.5010027999997	0.4993	sub-01	1	localizer	stimulus	Stuhl	NaN	0	2.8522109999994427	NaN	True	NaN	NaN	NaN	NaN	NaN	NaN	NaN
880.9838029999992	2.8522	sub-01	1	localizer	blank	interval	NaN	NaN	NaN	NaN	NaN	NaN	NaN	NaN	NaN	NaN	NaN	NaN
884.1371854999998	0.4994	sub-01	1	localizer	stimulus	Stuhl	NaN	0	3.569573800001308	NaN	True	NaN	NaN	NaN	NaN	NaN	NaN	NaN
884.6200990999987	3.5696	sub-01	1	localizer	blank	interval	NaN	NaN	NaN	NaN	NaN	NaN	NaN	NaN	NaN	NaN	NaN	NaN
888.4910757999987	0.4991	sub-01	1	localizer	stimulus	Katze	NaN	180	2.301785800000289	-43.60080489999928	True	NaN	NaN	NaN	NaN	NaN	NaN	NaN
888.9737638999995	2.3018	sub-01	1	localizer	blank	interval	NaN	NaN	NaN	NaN	NaN	NaN	NaN	NaN	NaN	NaN	NaN	NaN
891.5767708000003	0.4994	sub-01	1	localizer	stimulus	Stuhl	NaN	0	2.518580399999337	NaN	True	NaN	NaN	NaN	NaN	NaN	NaN	NaN
892.0596612999998	2.5186	sub-01	1	localizer	blank	interval	NaN	NaN	NaN	NaN	NaN	NaN	NaN	NaN	NaN	NaN	NaN	NaN
894.8792300999994	0.4996	sub-01	1	localizer	stimulus	Haus	NaN	0	2.935380000000805	NaN	True	NaN	NaN	NaN	NaN	NaN	NaN	NaN
895.3623033999993	2.9354	sub-01	1	localizer	blank	interval	NaN	NaN	NaN	NaN	NaN	NaN	NaN	NaN	NaN	NaN	NaN	NaN
898.5989050999997	0.4994	sub-01	1	localizer	stimulus	Schuh	NaN	0	2.818880300001183	NaN	True	NaN	NaN	NaN	NaN	NaN	NaN	NaN
899.0817527999989	2.8189	sub-01	1	localizer	blank	interval	NaN	NaN	NaN	NaN	NaN	NaN	NaN	NaN	NaN	NaN	NaN	NaN
902.2017920999988	0.4995	sub-01	1	localizer	stimulus	Schuh	NaN	180	2.8175111999989895	-43.60866460000034	True	NaN	NaN	NaN	NaN	NaN	NaN	NaN
902.6860139	2.8175	sub-01	1	localizer	blank	interval	NaN	NaN	NaN	NaN	NaN	NaN	NaN	NaN	NaN	NaN	NaN	NaN
905.8047303999992	0.4995	sub-01	1	localizer	stimulus	Gesicht	NaN	0	3.202414600000452	NaN	True	NaN	NaN	NaN	NaN	NaN	NaN	NaN
906.2876729	3.2024	sub-01	1	localizer	blank	interval	NaN	NaN	NaN	NaN	NaN	NaN	NaN	NaN	NaN	NaN	NaN	NaN
909.7913561999994	0.4995	sub-01	1	localizer	stimulus	Gesicht	NaN	180	2.418514399998344	-43.64542410000104	True	NaN	NaN	NaN	NaN	NaN	NaN	NaN
910.2743876000004	2.4185	sub-01	1	localizer	blank	interval	NaN	NaN	NaN	NaN	NaN	NaN	NaN	NaN	NaN	NaN	NaN	NaN
912.9943740999988	0.4992	sub-01	1	localizer	stimulus	Haus	NaN	0	1.951431800000023	NaN	True	NaN	NaN	NaN	NaN	NaN	NaN	NaN
913.4770861999988	1.9514	sub-01	1	localizer	blank	interval	NaN	NaN	NaN	NaN	NaN	NaN	NaN	NaN	NaN	NaN	NaN	NaN
915.7293871000002	0.4995	sub-01	1	localizer	stimulus	Katze	NaN	0	2.95205290000024	NaN	True	NaN	NaN	NaN	NaN	NaN	NaN	NaN
916.212516399999	2.9521	sub-01	1	localizer	blank	interval	NaN	NaN	NaN	NaN	NaN	NaN	NaN	NaN	NaN	NaN	NaN	NaN
919.4657773	0.4995	sub-01	1	localizer	stimulus	Schuh	NaN	0	1.9348448000000644	NaN	True	NaN	NaN	NaN	NaN	NaN	NaN	NaN
919.9487161999988	1.9348	sub-01	1	localizer	blank	interval	NaN	NaN	NaN	NaN	NaN	NaN	NaN	NaN	NaN	NaN	NaN	NaN
922.1847249999992	0.4995	sub-01	1	localizer	stimulus	Katze	NaN	0	2.0347449999989067	NaN	True	NaN	NaN	NaN	NaN	NaN	NaN	NaN
922.6676816	2.0347	sub-01	1	localizer	blank	interval	NaN	NaN	NaN	NaN	NaN	NaN	NaN	NaN	NaN	NaN	NaN	NaN
925.0035804999987	0.4995	sub-01	1	localizer	stimulus	Gesicht	NaN	0	2.6186240000006364	NaN	True	NaN	NaN	NaN	NaN	NaN	NaN	NaN
925.4865040999994	2.6186	sub-01	1	localizer	blank	interval	NaN	NaN	NaN	NaN	NaN	NaN	NaN	NaN	NaN	NaN	NaN	NaN
928.4062940000003	0.4995	sub-01	1	localizer	stimulus	Schuh	NaN	0	2.085084199999983	NaN	True	NaN	NaN	NaN	NaN	NaN	NaN	NaN
928.8892133999998	2.0851	sub-01	1	localizer	blank	interval	NaN	NaN	NaN	NaN	NaN	NaN	NaN	NaN	NaN	NaN	NaN	NaN
931.2753316999988	0.4996	sub-01	1	localizer	stimulus	Stuhl	NaN	0	2.885774300000776	NaN	True	NaN	NaN	NaN	NaN	NaN	NaN	NaN
931.758393099999	2.8858	sub-01	1	localizer	blank	interval	NaN	NaN	NaN	NaN	NaN	NaN	NaN	NaN	NaN	NaN	NaN	NaN
934.9449879999992	0.4996	sub-01	1	localizer	stimulus	Gesicht	NaN	0	2.518549900000039	NaN	True	NaN	NaN	NaN	NaN	NaN	NaN	NaN
935.4280669999988	2.5185	sub-01	1	localizer	blank	interval	NaN	NaN	NaN	NaN	NaN	NaN	NaN	NaN	NaN	NaN	NaN	NaN
938.2477426999994	0.4994	sub-01	1	localizer	stimulus	Katze	NaN	0	2.835128200000213	NaN	True	NaN	NaN	NaN	NaN	NaN	NaN	NaN
938.730918199999	2.8351	sub-01	1	localizer	blank	interval	NaN	NaN	NaN	NaN	NaN	NaN	NaN	NaN	NaN	NaN	NaN	NaN
941.8672363999996	0.4995	sub-01	1	localizer	stimulus	Katze	NaN	0	2.918950099999961	NaN	True	NaN	NaN	NaN	NaN	NaN	NaN	NaN
942.3501411999988	2.919	sub-01	1	localizer	blank	interval	NaN	NaN	NaN	NaN	NaN	NaN	NaN	NaN	NaN	NaN	NaN	NaN
945.572102099999	0.5143	sub-01	1	localizer	stimulus	Haus	NaN	0	2.53519580000102	NaN	True	NaN	NaN	NaN	NaN	NaN	NaN	NaN
946.0531735999994	2.5352	sub-01	1	localizer	blank	interval	NaN	NaN	NaN	NaN	NaN	NaN	NaN	NaN	NaN	NaN	NaN	NaN
948.8896036999996	0.4994	sub-01	1	localizer	stimulus	Haus	NaN	0	3.1692872000002126	NaN	True	NaN	NaN	NaN	NaN	NaN	NaN	NaN
949.3725063999992	3.1693	sub-01	1	localizer	blank	interval	NaN	NaN	NaN	NaN	NaN	NaN	NaN	NaN	NaN	NaN	NaN	NaN
956.0282386999988	1.0004	sub-01	1	sequence	cue	Schuh	NaN	NaN	NaN	NaN	NaN	NaN	NaN	NaN	NaN	NaN	NaN	NaN
957.0286649999998	2.0015	sub-01	1	sequence	blank	blank	NaN	NaN	NaN	NaN	NaN	NaN	NaN	NaN	NaN	NaN	NaN	NaN
959.0301713999996	0.3003	sub-01	1	sequence	fixation	dot	NaN	NaN	NaN	NaN	NaN	NaN	NaN	NaN	NaN	NaN	NaN	NaN
959.3480889999992	0.0991	sub-01	1	sequence	stimulus	Haus	NaN	NaN	128.0	NaN	NaN	2.0	1.0	NaN	NaN	NaN	NaN	NaN
959.4471792000004	0.1336	sub-01	1	sequence	interval	dot	NaN	NaN	NaN	NaN	NaN	NaN	NaN	NaN	NaN	NaN	NaN	NaN
959.5807552999996	0.0999	sub-01	1	sequence	stimulus	Katze	NaN	NaN	128.0	NaN	NaN	3.0	2.0	NaN	NaN	NaN	NaN	NaN
959.6806992000002	0.1335	sub-01	1	sequence	interval	dot	NaN	NaN	NaN	NaN	NaN	NaN	NaN	NaN	NaN	NaN	NaN	NaN
959.8142489999992	0.1	sub-01	1	sequence	stimulus	Stuhl	NaN	NaN	128.0	NaN	NaN	5.0	3.0	NaN	NaN	NaN	NaN	NaN
959.9142195999992	0.1336	sub-01	1	sequence	interval	dot	NaN	NaN	NaN	NaN	NaN	NaN	NaN	NaN	NaN	NaN	NaN	NaN
960.0478332999992	0.0999	sub-01	1	sequence	stimulus	Gesicht	NaN	NaN	128.0	NaN	NaN	1.0	4.0	NaN	NaN	NaN	NaN	NaN
960.1477670999992	0.1336	sub-01	1	sequence	interval	dot	NaN	NaN	NaN	NaN	NaN	NaN	NaN	NaN	NaN	NaN	NaN	NaN
960.2813274	0.1	sub-01	1	sequence	stimulus	Schuh	NaN	NaN	128.0	NaN	NaN	4.0	5.0	NaN	NaN	NaN	NaN	NaN
960.3813334999996	0.1334	sub-01	1	sequence	interval	dot	NaN	NaN	NaN	NaN	NaN	NaN	NaN	NaN	NaN	NaN	NaN	NaN
960.5146970999996	8.055	sub-01	1	sequence	delay	dot	NaN	NaN	NaN	NaN	NaN	NaN	NaN	NaN	NaN	NaN	NaN	NaN
968.5514777999996	1.0378	sub-01	1	sequence	choice	choice	right	NaN	NaN	-43.15218840000125	True	NaN	NaN	right	True	4.0	5.0	5.0
969.5896565000004	0.4996	sub-01	1	sequence	feedback	NaN	NaN	NaN	NaN	NaN	NaN	NaN	NaN	NaN	NaN	NaN	NaN	NaN
970.0894253999996	1.0005	sub-01	1	sequence	cue	Katze	NaN	NaN	NaN	NaN	NaN	NaN	NaN	NaN	NaN	NaN	NaN	NaN
971.0899634999988	2.0018	sub-01	1	sequence	blank	blank	NaN	NaN	NaN	NaN	NaN	NaN	NaN	NaN	NaN	NaN	NaN	NaN
973.0917996999996	0.3002	sub-01	1	sequence	fixation	dot	NaN	NaN	NaN	NaN	NaN	NaN	NaN	NaN	NaN	NaN	NaN	NaN
973.4096114999992	0.0992	sub-01	1	sequence	stimulus	Gesicht	NaN	NaN	64.0	NaN	NaN	1.0	1.0	NaN	NaN	NaN	NaN	NaN
973.5087712000004	0.0669	sub-01	1	sequence	interval	dot	NaN	NaN	NaN	NaN	NaN	NaN	NaN	NaN	NaN	NaN	NaN	NaN
973.5756423999992	0.1	sub-01	1	sequence	stimulus	Haus	NaN	NaN	64.0	NaN	NaN	2.0	2.0	NaN	NaN	NaN	NaN	NaN
973.6755988999994	0.0668	sub-01	1	sequence	interval	dot	NaN	NaN	NaN	NaN	NaN	NaN	NaN	NaN	NaN	NaN	NaN	NaN
973.7424155999996	0.1	sub-01	1	sequence	stimulus	Katze	NaN	NaN	64.0	NaN	NaN	3.0	3.0	NaN	NaN	NaN	NaN	NaN
973.8423696999998	0.0668	sub-01	1	sequence	interval	dot	NaN	NaN	NaN	NaN	NaN	NaN	NaN	NaN	NaN	NaN	NaN	NaN
973.9091584999989	0.1	sub-01	1	sequence	stimulus	Schuh	NaN	NaN	64.0	NaN	NaN	4.0	4.0	NaN	NaN	NaN	NaN	NaN
974.0091235	0.0669	sub-01	1	sequence	interval	dot	NaN	NaN	NaN	NaN	NaN	NaN	NaN	NaN	NaN	NaN	NaN	NaN
974.0760269999992	0.0999	sub-01	1	sequence	stimulus	Stuhl	NaN	NaN	64.0	NaN	NaN	5.0	5.0	NaN	NaN	NaN	NaN	NaN
974.1759471999994	0.0667	sub-01	1	sequence	interval	dot	NaN	NaN	NaN	NaN	NaN	NaN	NaN	NaN	NaN	NaN	NaN	NaN
974.242651999999	8.3885	sub-01	1	sequence	delay	dot	NaN	NaN	NaN	NaN	NaN	NaN	NaN	NaN	NaN	NaN	NaN	NaN
982.6171533999986	1.2672	sub-01	1	sequence	choice	choice	left	NaN	NaN	-42.9095625000009	False	NaN	NaN	right	True	4.0	3.0	3.0
983.8846445	0.4998	sub-01	1	sequence	feedback	NaN	NaN	NaN	NaN	NaN	NaN	NaN	NaN	NaN	NaN	NaN	NaN	NaN
984.3846433999988	1.0003	sub-01	1	sequence	cue	Gesicht	NaN	NaN	NaN	NaN	NaN	NaN	NaN	NaN	NaN	NaN	NaN	NaN
985.3849697999996	2.0015	sub-01	1	sequence	blank	blank	NaN	NaN	NaN	NaN	NaN	NaN	NaN	NaN	NaN	NaN	NaN	NaN
987.3864611999998	0.3002	sub-01	1	sequence	fixation	dot	NaN	NaN	NaN	NaN	NaN	NaN	NaN	NaN	NaN	NaN	NaN	NaN
987.7050495000004	0.1151	sub-01	1	sequence	stimulus	Stuhl	NaN	NaN	32.0	NaN	NaN	5.0	1.0	NaN	NaN	NaN	NaN	NaN
987.8201255000004	0.0335	sub-01	1	sequence	interval	dot	NaN	NaN	NaN	NaN	NaN	NaN	NaN	NaN	NaN	NaN	NaN	NaN
987.8536103999996	0.1	sub-01	1	sequence	stimulus	Schuh	NaN	NaN	32.0	NaN	NaN	4.0	2.0	NaN	NaN	NaN	NaN	NaN
987.9535732000004	0.0335	sub-01	1	sequence	interval	dot	NaN	NaN	NaN	NaN	NaN	NaN	NaN	NaN	NaN	NaN	NaN	NaN
987.9871129999992	0.0999	sub-01	1	sequence	stimulus	Haus	NaN	NaN	32.0	NaN	NaN	2.0	3.0	NaN	NaN	NaN	NaN	NaN
988.0870380999986	0.0335	sub-01	1	sequence	interval	dot	NaN	NaN	NaN	NaN	NaN	NaN	NaN	NaN	NaN	NaN	NaN	NaN
988.1205164000004	0.0999	sub-01	1	sequence	stimulus	Gesicht	NaN	NaN	32.0	NaN	NaN	1.0	4.0	NaN	NaN	NaN	NaN	NaN
988.2204478000004	0.0335	sub-01	1	sequence	interval	dot	NaN	NaN	NaN	NaN	NaN	NaN	NaN	NaN	NaN	NaN	NaN	NaN
988.2539399999988	0.1	sub-01	1	sequence	stimulus	Katze	NaN	NaN	32.0	NaN	NaN	3.0	5.0	NaN	NaN	NaN	NaN	NaN
988.3539165999993	0.0334	sub-01	1	sequence	interval	dot	NaN	NaN	NaN	NaN	NaN	NaN	NaN	NaN	NaN	NaN	NaN	NaN
988.3872702999996	8.5223	sub-01	1	sequence	delay	dot	NaN	NaN	NaN	NaN	NaN	NaN	NaN	NaN	NaN	NaN	NaN	NaN
996.8908300999992	0.9716	sub-01	1	sequence	choice	choice	left	NaN	NaN	-43.21148660000108	True	NaN	NaN	left	True	4.0	5.0	4.0
997.8626838	0.4998	sub-01	1	sequence	feedback	NaN	NaN	NaN	NaN	NaN	NaN	NaN	NaN	NaN	NaN	NaN	NaN	NaN
998.3626375999992	1.0002	sub-01	1	sequence	cue	Schuh	NaN	NaN	NaN	NaN	NaN	NaN	NaN	NaN	NaN	NaN	NaN	NaN
999.3628635999994	2.0016	sub-01	1	sequence	blank	blank	NaN	NaN	NaN	NaN	NaN	NaN	NaN	NaN	NaN	NaN	NaN	NaN
1001.3644547999992	0.3002	sub-01	1	sequence	fixation	dot	NaN	NaN	NaN	NaN	NaN	NaN	NaN	NaN	NaN	NaN	NaN	NaN
1001.6822914999992	0.0992	sub-01	1	sequence	stimulus	Haus	NaN	NaN	32.0	NaN	NaN	2.0	1.0	NaN	NaN	NaN	NaN	NaN
1001.7814471999992	0.0335	sub-01	1	sequence	interval	dot	NaN	NaN	NaN	NaN	NaN	NaN	NaN	NaN	NaN	NaN	NaN	NaN
1001.8149537999998	0.1	sub-01	1	sequence	stimulus	Gesicht	NaN	NaN	32.0	NaN	NaN	1.0	2.0	NaN	NaN	NaN	NaN	NaN
1001.9149122	0.0335	sub-01	1	sequence	interval	dot	NaN	NaN	NaN	NaN	NaN	NaN	NaN	NaN	NaN	NaN	NaN	NaN
1001.9483659999988	0.1	sub-01	1	sequence	stimulus	Stuhl	NaN	NaN	32.0	NaN	NaN	5.0	3.0	NaN	NaN	NaN	NaN	NaN
1002.0483215000004	0.0335	sub-01	1	sequence	interval	dot	NaN	NaN	NaN	NaN	NaN	NaN	NaN	NaN	NaN	NaN	NaN	NaN
1002.0818216999996	0.0999	sub-01	1	sequence	stimulus	Katze	NaN	NaN	32.0	NaN	NaN	3.0	4.0	NaN	NaN	NaN	NaN	NaN
1002.1817709999996	0.0335	sub-01	1	sequence	interval	dot	NaN	NaN	NaN	NaN	NaN	NaN	NaN	NaN	NaN	NaN	NaN	NaN
1002.2152305	0.1	sub-01	1	sequence	stimulus	Schuh	NaN	NaN	32.0	NaN	NaN	4.0	5.0	NaN	NaN	NaN	NaN	NaN
1002.3152661999992	0.0333	sub-01	1	sequence	interval	dot	NaN	NaN	NaN	NaN	NaN	NaN	NaN	NaN	NaN	NaN	NaN	NaN
1002.3485337000002	8.5221	sub-01	1	sequence	delay	dot	NaN	NaN	NaN	NaN	NaN	NaN	NaN	NaN	NaN	NaN	NaN	NaN
1010.8526677999998	0.8708	sub-01	1	sequence	choice	choice	left	NaN	NaN	-43.30919580000045	True	NaN	NaN	left	True	5.0	4.0	5.0
1011.7237033	0.4997	sub-01	1	sequence	feedback	NaN	NaN	NaN	NaN	NaN	NaN	NaN	NaN	NaN	NaN	NaN	NaN	NaN
1012.2234909999988	1.0005	sub-01	1	sequence	cue	Schuh	NaN	NaN	NaN	NaN	NaN	NaN	NaN	NaN	NaN	NaN	NaN	NaN
1013.2240432999988	2.0021	sub-01	1	sequence	blank	blank	NaN	NaN	NaN	NaN	NaN	NaN	NaN	NaN	NaN	NaN	NaN	NaN
1015.2261621999988	0.3003	sub-01	1	sequence	fixation	dot	NaN	NaN	NaN	NaN	NaN	NaN	NaN	NaN	NaN	NaN	NaN	NaN
1015.544443499999	0.1153	sub-01	1	sequence	stimulus	Katze	NaN	NaN	64.0	NaN	NaN	3.0	1.0	NaN	NaN	NaN	NaN	NaN
1015.6597330999994	0.0668	sub-01	1	sequence	interval	dot	NaN	NaN	NaN	NaN	NaN	NaN	NaN	NaN	NaN	NaN	NaN	NaN
1015.7265458999992	0.0999	sub-01	1	sequence	stimulus	Schuh	NaN	NaN	64.0	NaN	NaN	4.0	2.0	NaN	NaN	NaN	NaN	NaN
1015.8264922999988	0.0669	sub-01	1	sequence	interval	dot	NaN	NaN	NaN	NaN	NaN	NaN	NaN	NaN	NaN	NaN	NaN	NaN
1015.8934278999986	0.0999	sub-01	1	sequence	stimulus	Stuhl	NaN	NaN	64.0	NaN	NaN	5.0	3.0	NaN	NaN	NaN	NaN	NaN
1015.9932967999994	0.0669	sub-01	1	sequence	interval	dot	NaN	NaN	NaN	NaN	NaN	NaN	NaN	NaN	NaN	NaN	NaN	NaN
1016.0601726999994	0.0999	sub-01	1	sequence	stimulus	Haus	NaN	NaN	64.0	NaN	NaN	2.0	4.0	NaN	NaN	NaN	NaN	NaN
1016.1600848999988	0.0669	sub-01	1	sequence	interval	dot	NaN	NaN	NaN	NaN	NaN	NaN	NaN	NaN	NaN	NaN	NaN	NaN
1016.2269348999998	0.1	sub-01	1	sequence	stimulus	Gesicht	NaN	NaN	64.0	NaN	NaN	1.0	5.0	NaN	NaN	NaN	NaN	NaN
1016.3268927999998	0.0666	sub-01	1	sequence	interval	dot	NaN	NaN	NaN	NaN	NaN	NaN	NaN	NaN	NaN	NaN	NaN	NaN
1016.3935361999992	8.3883	sub-01	1	sequence	delay	dot	NaN	NaN	NaN	NaN	NaN	NaN	NaN	NaN	NaN	NaN	NaN	NaN
1024.762199299999	1.2229	sub-01	1	sequence	choice	choice	left	NaN	NaN	-42.96379709999928	True	NaN	NaN	left	True	2.0	5.0	2.0
1025.9853587999987	0.4998	sub-01	1	sequence	feedback	NaN	NaN	NaN	NaN	NaN	NaN	NaN	NaN	NaN	NaN	NaN	NaN	NaN
1026.4853308000002	1.0003	sub-01	1	sequence	cue	Katze	NaN	NaN	NaN	NaN	NaN	NaN	NaN	NaN	NaN	NaN	NaN	NaN
1027.4856166999998	2.0017	sub-01	1	sequence	blank	blank	NaN	NaN	NaN	NaN	NaN	NaN	NaN	NaN	NaN	NaN	NaN	NaN
1029.4873528999997	0.3002	sub-01	1	sequence	fixation	dot	NaN	NaN	NaN	NaN	NaN	NaN	NaN	NaN	NaN	NaN	NaN	NaN
1029.8209661	0.1001	sub-01	1	sequence	stimulus	Gesicht	NaN	NaN	512.0	NaN	NaN	1.0	1.0	NaN	NaN	NaN	NaN	NaN
1029.9210218999997	0.5171	sub-01	1	sequence	interval	dot	NaN	NaN	NaN	NaN	NaN	NaN	NaN	NaN	NaN	NaN	NaN	NaN
1030.4381567	0.1	sub-01	1	sequence	stimulus	Haus	NaN	NaN	512.0	NaN	NaN	2.0	2.0	NaN	NaN	NaN	NaN	NaN
1030.5381404	0.5172	sub-01	1	sequence	interval	dot	NaN	NaN	NaN	NaN	NaN	NaN	NaN	NaN	NaN	NaN	NaN	NaN
1031.055305	0.1	sub-01	1	sequence	stimulus	Stuhl	NaN	NaN	512.0	NaN	NaN	5.0	3.0	NaN	NaN	NaN	NaN	NaN
1031.155346599999	0.5172	sub-01	1	sequence	interval	dot	NaN	NaN	NaN	NaN	NaN	NaN	NaN	NaN	NaN	NaN	NaN	NaN
1031.672513399999	0.1	sub-01	1	sequence	stimulus	Schuh	NaN	NaN	512.0	NaN	NaN	4.0	4.0	NaN	NaN	NaN	NaN	NaN
1031.772490899999	0.5171	sub-01	1	sequence	interval	dot	NaN	NaN	NaN	NaN	NaN	NaN	NaN	NaN	NaN	NaN	NaN	NaN
1032.2896373999993	0.1	sub-01	1	sequence	stimulus	Katze	NaN	NaN	512.0	NaN	NaN	3.0	5.0	NaN	NaN	NaN	NaN	NaN
1032.3896540999997	0.517	sub-01	1	sequence	interval	dot	NaN	NaN	NaN	NaN	NaN	NaN	NaN	NaN	NaN	NaN	NaN	NaN
1032.9066427999987	6.1538	sub-01	1	sequence	delay	dot	NaN	NaN	NaN	NaN	NaN	NaN	NaN	NaN	NaN	NaN	NaN	NaN
1039.0360024	0.8601	sub-01	1	sequence	choice	choice	left	NaN	NaN	-43.33057160000135	True	NaN	NaN	left	True	5.0	3.0	5.0
1039.8963619999995	0.5	sub-01	1	sequence	feedback	NaN	NaN	NaN	NaN	NaN	NaN	NaN	NaN	NaN	NaN	NaN	NaN	NaN
1040.3965552999998	1.0004	sub-01	1	sequence	cue	Gesicht	NaN	NaN	NaN	NaN	NaN	NaN	NaN	NaN	NaN	NaN	NaN	NaN
1041.396918999999	2.0017	sub-01	1	sequence	blank	blank	NaN	NaN	NaN	NaN	NaN	NaN	NaN	NaN	NaN	NaN	NaN	NaN
1043.3985818	0.3002	sub-01	1	sequence	fixation	dot	NaN	NaN	NaN	NaN	NaN	NaN	NaN	NaN	NaN	NaN	NaN	NaN
1043.731206299999	0.1009	sub-01	1	sequence	stimulus	Haus	NaN	NaN	128.0	NaN	NaN	2.0	1.0	NaN	NaN	NaN	NaN	NaN
1043.832080099999	0.1336	sub-01	1	sequence	interval	dot	NaN	NaN	NaN	NaN	NaN	NaN	NaN	NaN	NaN	NaN	NaN	NaN
1043.9656658999993	0.1	sub-01	1	sequence	stimulus	Stuhl	NaN	NaN	128.0	NaN	NaN	5.0	2.0	NaN	NaN	NaN	NaN	NaN
1044.0656289	0.1336	sub-01	1	sequence	interval	dot	NaN	NaN	NaN	NaN	NaN	NaN	NaN	NaN	NaN	NaN	NaN	NaN
1044.1991937000005	0.0999	sub-01	1	sequence	stimulus	Schuh	NaN	NaN	128.0	NaN	NaN	4.0	3.0	NaN	NaN	NaN	NaN	NaN
1044.299136399999	0.1336	sub-01	1	sequence	interval	dot	NaN	NaN	NaN	NaN	NaN	NaN	NaN	NaN	NaN	NaN	NaN	NaN
1044.4327503999991	0.0999	sub-01	1	sequence	stimulus	Katze	NaN	NaN	128.0	NaN	NaN	3.0	4.0	NaN	NaN	NaN	NaN	NaN
1044.5326834999996	0.1336	sub-01	1	sequence	interval	dot	NaN	NaN	NaN	NaN	NaN	NaN	NaN	NaN	NaN	NaN	NaN	NaN
1044.666244	0.0999	sub-01	1	sequence	stimulus	Gesicht	NaN	NaN	128.0	NaN	NaN	1.0	5.0	NaN	NaN	NaN	NaN	NaN
1044.7661878999988	0.1335	sub-01	1	sequence	interval	dot	NaN	NaN	NaN	NaN	NaN	NaN	NaN	NaN	NaN	NaN	NaN	NaN
1044.8996485999996	8.0717	sub-01	1	sequence	delay	dot	NaN	NaN	NaN	NaN	NaN	NaN	NaN	NaN	NaN	NaN	NaN	NaN
1052.9456159	0.7951	sub-01	1	sequence	choice	choice	right	NaN	NaN	-43.39357299999938	True	NaN	NaN	right	True	4.0	5.0	5.0
1053.7410096999993	0.4997	sub-01	1	sequence	feedback	NaN	NaN	NaN	NaN	NaN	NaN	NaN	NaN	NaN	NaN	NaN	NaN	NaN
1054.2408856000002	1.0005	sub-01	1	sequence	cue	Gesicht	NaN	NaN	NaN	NaN	NaN	NaN	NaN	NaN	NaN	NaN	NaN	NaN
1055.2414045999994	2.0019	sub-01	1	sequence	blank	blank	NaN	NaN	NaN	NaN	NaN	NaN	NaN	NaN	NaN	NaN	NaN	NaN
1057.2433533999993	0.3002	sub-01	1	sequence	fixation	dot	NaN	NaN	NaN	NaN	NaN	NaN	NaN	NaN	NaN	NaN	NaN	NaN
1057.560833599999	0.0994	sub-01	1	sequence	stimulus	Haus	NaN	NaN	512.0	NaN	NaN	2.0	1.0	NaN	NaN	NaN	NaN	NaN
1057.6602762000002	0.5172	sub-01	1	sequence	interval	dot	NaN	NaN	NaN	NaN	NaN	NaN	NaN	NaN	NaN	NaN	NaN	NaN
1058.177470499999	0.1	sub-01	1	sequence	stimulus	Katze	NaN	NaN	512.0	NaN	NaN	3.0	2.0	NaN	NaN	NaN	NaN	NaN
1058.2774267999994	0.5172	sub-01	1	sequence	interval	dot	NaN	NaN	NaN	NaN	NaN	NaN	NaN	NaN	NaN	NaN	NaN	NaN
1058.794646299999	0.0999	sub-01	1	sequence	stimulus	Stuhl	NaN	NaN	512.0	NaN	NaN	5.0	3.0	NaN	NaN	NaN	NaN	NaN
1058.8945900999988	0.5173	sub-01	1	sequence	interval	dot	NaN	NaN	NaN	NaN	NaN	NaN	NaN	NaN	NaN	NaN	NaN	NaN
1059.4118548999995	0.0999	sub-01	1	sequence	stimulus	Schuh	NaN	NaN	512.0	NaN	NaN	4.0	4.0	NaN	NaN	NaN	NaN	NaN
1059.5117579999987	0.5171	sub-01	1	sequence	interval	dot	NaN	NaN	NaN	NaN	NaN	NaN	NaN	NaN	NaN	NaN	NaN	NaN
1060.0288588000003	0.0999	sub-01	1	sequence	stimulus	Gesicht	NaN	NaN	512.0	NaN	NaN	1.0	5.0	NaN	NaN	NaN	NaN	NaN
1060.1287948999998	0.517	sub-01	1	sequence	interval	dot	NaN	NaN	NaN	NaN	NaN	NaN	NaN	NaN	NaN	NaN	NaN	NaN
1060.645764199999	6.1535	sub-01	1	sequence	delay	dot	NaN	NaN	NaN	NaN	NaN	NaN	NaN	NaN	NaN	NaN	NaN	NaN
1066.7774245	0.7578	sub-01	1	sequence	choice	choice	right	NaN	NaN	-43.436490899999626	True	NaN	NaN	right	True	4.0	5.0	5.0
1067.5355041999992	0.4998	sub-01	1	sequence	feedback	NaN	NaN	NaN	NaN	NaN	NaN	NaN	NaN	NaN	NaN	NaN	NaN	NaN
1071.8557332	0.4994	sub-01	1	localizer	stimulus	Schuh	NaN	0	2.685418099999879	NaN	True	NaN	NaN	NaN	NaN	NaN	NaN	NaN
1072.3386173999988	2.6854	sub-01	1	localizer	blank	interval	NaN	NaN	NaN	NaN	NaN	NaN	NaN	NaN	NaN	NaN	NaN	NaN
1075.325406	0.4993	sub-01	1	localizer	stimulus	Gesicht	NaN	0	1.7849442000006093	NaN	True	NaN	NaN	NaN	NaN	NaN	NaN	NaN
1075.8081196999992	1.7849	sub-01	1	localizer	blank	interval	NaN	NaN	NaN	NaN	NaN	NaN	NaN	NaN	NaN	NaN	NaN	NaN
1077.8940189999994	0.4997	sub-01	1	localizer	stimulus	Haus	NaN	0	3.1188046999996004	NaN	True	NaN	NaN	NaN	NaN	NaN	NaN	NaN
1078.3772021999994	3.1188	sub-01	1	localizer	blank	interval	NaN	NaN	NaN	NaN	NaN	NaN	NaN	NaN	NaN	NaN	NaN	NaN
1081.7971292000002	0.4994	sub-01	1	localizer	stimulus	Katze	NaN	0	2.0014682000000903	NaN	True	NaN	NaN	NaN	NaN	NaN	NaN	NaN
1082.2800475999993	2.0015	sub-01	1	localizer	blank	interval	NaN	NaN	NaN	NaN	NaN	NaN	NaN	NaN	NaN	NaN	NaN	NaN
1084.5827646999987	0.4994	sub-01	1	localizer	stimulus	Haus	NaN	0	3.3196041000010155	NaN	True	NaN	NaN	NaN	NaN	NaN	NaN	NaN
1085.0657288999992	3.3196	sub-01	1	localizer	blank	interval	NaN	NaN	NaN	NaN	NaN	NaN	NaN	NaN	NaN	NaN	NaN	NaN
1088.6861353000004	0.4994	sub-01	1	localizer	stimulus	Haus	NaN	0	2.0515674999987823	NaN	True	NaN	NaN	NaN	NaN	NaN	NaN	NaN
1089.1689745000003	2.0516	sub-01	1	localizer	blank	interval	NaN	NaN	NaN	NaN	NaN	NaN	NaN	NaN	NaN	NaN	NaN	NaN
1091.5218071999989	0.4993	sub-01	1	localizer	stimulus	Schuh	NaN	0	2.5520022999990033	NaN	True	NaN	NaN	NaN	NaN	NaN	NaN	NaN
1092.0045719999998	2.552	sub-01	1	localizer	blank	interval	NaN	NaN	NaN	NaN	NaN	NaN	NaN	NaN	NaN	NaN	NaN	NaN
1094.8576476999988	0.4995	sub-01	1	localizer	stimulus	Stuhl	NaN	180	2.2018057000004774	-43.54374920000009	True	NaN	NaN	NaN	NaN	NaN	NaN	NaN
1095.340594899999	2.2018	sub-01	1	localizer	blank	interval	NaN	NaN	NaN	NaN	NaN	NaN	NaN	NaN	NaN	NaN	NaN	NaN
1097.8435850999997	0.4994	sub-01	1	localizer	stimulus	Stuhl	NaN	0	2.735391800000798	NaN	True	NaN	NaN	NaN	NaN	NaN	NaN	NaN
1098.3264934999988	2.7354	sub-01	1	localizer	blank	interval	NaN	NaN	NaN	NaN	NaN	NaN	NaN	NaN	NaN	NaN	NaN	NaN
1101.3631367999988	0.4995	sub-01	1	localizer	stimulus	Katze	NaN	180	1.9347311999988506	-43.61734890000116	True	NaN	NaN	NaN	NaN	NaN	NaN	NaN
1101.8460548000005	1.9347	sub-01	1	localizer	blank	interval	NaN	NaN	NaN	NaN	NaN	NaN	NaN	NaN	NaN	NaN	NaN	NaN
1104.0817663999987	0.4996	sub-01	1	localizer	stimulus	Schuh	NaN	0	3.469365900000412	NaN	True	NaN	NaN	NaN	NaN	NaN	NaN	NaN
1104.5647958999998	3.4694	sub-01	1	localizer	blank	interval	NaN	NaN	NaN	NaN	NaN	NaN	NaN	NaN	NaN	NaN	NaN	NaN
1108.3352429999995	0.4996	sub-01	1	localizer	stimulus	Haus	NaN	0	2.5685326999991958	NaN	True	NaN	NaN	NaN	NaN	NaN	NaN	NaN
1108.8182741	2.5685	sub-01	1	localizer	blank	interval	NaN	NaN	NaN	NaN	NaN	NaN	NaN	NaN	NaN	NaN	NaN	NaN
1111.6879401999995	0.4995	sub-01	1	localizer	stimulus	Gesicht	NaN	0	1.8512785999992047	NaN	True	NaN	NaN	NaN	NaN	NaN	NaN	NaN
1112.1709264	1.8513	sub-01	1	localizer	blank	interval	NaN	NaN	NaN	NaN	NaN	NaN	NaN	NaN	NaN	NaN	NaN	NaN
1114.3233870000004	0.4996	sub-01	1	localizer	stimulus	Katze	NaN	0	1.8016008000013244	NaN	True	NaN	NaN	NaN	NaN	NaN	NaN	NaN
