onset	duration	subject	session	condition	trial_type	stim_label	key_down	orientation	interval_time	response_time	accuracy	stim_index	serial_position	key_expected	key_pressed	choice_left	choice_right	choice_correct
1.2627826999996614	2.0818	sub-22	1	instruction	instruction	language_selection	german	NaN	NaN	NaN	NaN	NaN	NaN	NaN	NaN	NaN	NaN	NaN
38.423760599999696	0.4995	sub-22	1	localizer	stimulus	Katze	NaN	0	2.6855035000007845	NaN	1.0	NaN	NaN	NaN	NaN	NaN	NaN	NaN
38.90663259999928	2.6855	sub-22	1	localizer	blank	interval	NaN	NaN	NaN	NaN	NaN	NaN	NaN	NaN	NaN	NaN	NaN	NaN
41.8932707999993	0.4996	sub-22	1	localizer	stimulus	Katze	NaN	0	2.2682170999996742	NaN	True	NaN	NaN	NaN	NaN	NaN	NaN	NaN
42.376303899999584	2.2682	sub-22	1	localizer	blank	interval	NaN	NaN	NaN	NaN	NaN	NaN	NaN	NaN	NaN	NaN	NaN	NaN
44.945628399999805	0.4995	sub-22	1	localizer	stimulus	Gesicht	NaN	0	2.3184387999999743	NaN	True	NaN	NaN	NaN	NaN	NaN	NaN	NaN
45.42859229999976	2.3184	sub-22	1	localizer	blank	interval	NaN	NaN	NaN	NaN	NaN	NaN	NaN	NaN	NaN	NaN	NaN	NaN
48.048114299999725	0.4995	sub-22	1	localizer	stimulus	Haus	NaN	0	1.6511752999995224	NaN	True	NaN	NaN	NaN	NaN	NaN	NaN	NaN
48.5312415999997	1.6512	sub-22	1	localizer	blank	interval	NaN	NaN	NaN	NaN	NaN	NaN	NaN	NaN	NaN	NaN	NaN	NaN
50.4834495999994	0.4995	sub-22	1	localizer	stimulus	Schuh	NaN	0	2.8353872999996312	NaN	True	NaN	NaN	NaN	NaN	NaN	NaN	NaN
50.96650979999959	2.8354	sub-22	1	localizer	blank	interval	NaN	NaN	NaN	NaN	NaN	NaN	NaN	NaN	NaN	NaN	NaN	NaN
54.10300439999992	0.4996	sub-22	1	localizer	stimulus	Stuhl	NaN	0	1.4677364999997735	NaN	True	NaN	NaN	NaN	NaN	NaN	NaN	NaN
54.586003499999606	1.4677	sub-22	1	localizer	blank	interval	NaN	NaN	NaN	NaN	NaN	NaN	NaN	NaN	NaN	NaN	NaN	NaN
56.35482629999933	0.4996	sub-22	1	localizer	stimulus	Schuh	NaN	180	2.6352489000000787	1.0170781999995595	True	NaN	NaN	NaN	NaN	NaN	NaN	NaN
56.83792589999939	2.6352	sub-22	1	localizer	blank	interval	NaN	NaN	NaN	NaN	NaN	NaN	NaN	NaN	NaN	NaN	NaN	NaN
59.77442449999944	0.4994	sub-22	1	localizer	stimulus	Katze	NaN	0	2.8023559000002933	NaN	True	NaN	NaN	NaN	NaN	NaN	NaN	NaN
60.25735009999971	2.8024	sub-22	1	localizer	blank	interval	NaN	NaN	NaN	NaN	NaN	NaN	NaN	NaN	NaN	NaN	NaN	NaN
63.36070819999986	0.4996	sub-22	1	localizer	stimulus	Schuh	NaN	0	2.3349268000001757	NaN	True	NaN	NaN	NaN	NaN	NaN	NaN	NaN
63.84368469999936	2.3349	sub-22	1	localizer	blank	interval	NaN	NaN	NaN	NaN	NaN	NaN	NaN	NaN	NaN	NaN	NaN	NaN
66.47974290000002	0.4995	sub-22	1	localizer	stimulus	Gesicht	NaN	0	3.1191343000000415	NaN	True	NaN	NaN	NaN	NaN	NaN	NaN	NaN
66.96270679999998	3.1191	sub-22	1	localizer	blank	interval	NaN	NaN	NaN	NaN	NaN	NaN	NaN	NaN	NaN	NaN	NaN	NaN
70.3829014999992	0.4995	sub-22	1	localizer	stimulus	Katze	NaN	0	3.135656200000085	NaN	True	NaN	NaN	NaN	NaN	NaN	NaN	NaN
70.86596599999939	3.1357	sub-22	1	localizer	blank	interval	NaN	NaN	NaN	NaN	NaN	NaN	NaN	NaN	NaN	NaN	NaN	NaN
74.30273919999945	0.4996	sub-22	1	localizer	stimulus	Stuhl	NaN	180	2.2516915999995035	0.6768652000000657	True	NaN	NaN	NaN	NaN	NaN	NaN	NaN
74.78570279999985	2.2517	sub-22	1	localizer	blank	interval	NaN	NaN	NaN	NaN	NaN	NaN	NaN	NaN	NaN	NaN	NaN	NaN
77.33853689999978	0.4995	sub-22	1	localizer	stimulus	Haus	NaN	0	2.5686429999996108	NaN	True	NaN	NaN	NaN	NaN	NaN	NaN	NaN
77.82152289999976	2.5686	sub-22	1	localizer	blank	interval	NaN	NaN	NaN	NaN	NaN	NaN	NaN	NaN	NaN	NaN	NaN	NaN
80.69144519999918	0.4993	sub-22	1	localizer	stimulus	Gesicht	NaN	180	3.052364999999554	0.776241000000482	True	NaN	NaN	NaN	NaN	NaN	NaN	NaN
81.17435019999994	3.0524	sub-22	1	localizer	blank	interval	NaN	NaN	NaN	NaN	NaN	NaN	NaN	NaN	NaN	NaN	NaN	NaN
84.52790449999975	0.4994	sub-22	1	localizer	stimulus	Stuhl	NaN	0	3.0020519999998214	NaN	True	NaN	NaN	NaN	NaN	NaN	NaN	NaN
85.01089609999963	3.0021	sub-22	1	localizer	blank	interval	NaN	NaN	NaN	NaN	NaN	NaN	NaN	NaN	NaN	NaN	NaN	NaN
88.31407989999934	0.4995	sub-22	1	localizer	stimulus	Gesicht	NaN	0	2.1182831000005393	NaN	True	NaN	NaN	NaN	NaN	NaN	NaN	NaN
88.7970394999993	2.1183	sub-22	1	localizer	blank	interval	NaN	NaN	NaN	NaN	NaN	NaN	NaN	NaN	NaN	NaN	NaN	NaN
91.21643869999934	0.4995	sub-22	1	localizer	stimulus	Gesicht	NaN	0	3.052460999999326	NaN	True	NaN	NaN	NaN	NaN	NaN	NaN	NaN
91.699388	3.0525	sub-22	1	localizer	blank	interval	NaN	NaN	NaN	NaN	NaN	NaN	NaN	NaN	NaN	NaN	NaN	NaN
95.0528824999992	0.4995	sub-22	1	localizer	stimulus	Schuh	NaN	0	2.5520981999998185	NaN	True	NaN	NaN	NaN	NaN	NaN	NaN	NaN
95.53583029999936	2.5521	sub-22	1	localizer	blank	interval	NaN	NaN	NaN	NaN	NaN	NaN	NaN	NaN	NaN	NaN	NaN	NaN
98.38889299999936	0.4995	sub-22	1	localizer	stimulus	Schuh	NaN	0	2.451864800000294	0.4707763000005798	False	NaN	NaN	NaN	NaN	NaN	NaN	NaN
98.87189359999957	2.4519	sub-22	1	localizer	blank	interval	NaN	NaN	NaN	NaN	NaN	NaN	NaN	NaN	NaN	NaN	NaN	NaN
101.62509539999974	0.4993	sub-22	1	localizer	stimulus	Haus	NaN	180	1.768096900000259	0.6665809999994963	True	NaN	NaN	NaN	NaN	NaN	NaN	NaN
102.1079734999994	1.7681	sub-22	1	localizer	blank	interval	NaN	NaN	NaN	NaN	NaN	NaN	NaN	NaN	NaN	NaN	NaN	NaN
104.17701829999989	0.4996	sub-22	1	localizer	stimulus	Haus	NaN	0	2.60148560000016	NaN	True	NaN	NaN	NaN	NaN	NaN	NaN	NaN
104.66055419999977	2.6015	sub-22	1	localizer	blank	interval	NaN	NaN	NaN	NaN	NaN	NaN	NaN	NaN	NaN	NaN	NaN	NaN
107.56301649999932	0.4994	sub-22	1	localizer	stimulus	Katze	NaN	180	2.3184503000002223	0.6246928999999	True	NaN	NaN	NaN	NaN	NaN	NaN	NaN
108.04596719999972	2.3185	sub-22	1	localizer	blank	interval	NaN	NaN	NaN	NaN	NaN	NaN	NaN	NaN	NaN	NaN	NaN	NaN
110.66557099999956	0.4995	sub-22	1	localizer	stimulus	Haus	NaN	0	2.6519960000005085	NaN	True	NaN	NaN	NaN	NaN	NaN	NaN	NaN
111.14851089999956	2.652	sub-22	1	localizer	blank	interval	NaN	NaN	NaN	NaN	NaN	NaN	NaN	NaN	NaN	NaN	NaN	NaN
114.10176049999971	0.4995	sub-22	1	localizer	stimulus	Stuhl	NaN	0	3.0189467999998527	NaN	True	NaN	NaN	NaN	NaN	NaN	NaN	NaN
114.58469100000002	3.0189	sub-22	1	localizer	blank	interval	NaN	NaN	NaN	NaN	NaN	NaN	NaN	NaN	NaN	NaN	NaN	NaN
117.90469699999994	0.4997	sub-22	1	localizer	stimulus	Stuhl	NaN	0	2.6186258999996426	NaN	True	NaN	NaN	NaN	NaN	NaN	NaN	NaN
118.3877978999999	2.6186	sub-22	1	localizer	blank	interval	NaN	NaN	NaN	NaN	NaN	NaN	NaN	NaN	NaN	NaN	NaN	NaN
124.49305370000002	1.0004	sub-22	1	sequence	cue	Haus	NaN	NaN	NaN	NaN	NaN	NaN	NaN	NaN	NaN	NaN	NaN	NaN
125.49350779999986	2.0016	sub-22	1	sequence	blank	blank	NaN	NaN	NaN	NaN	NaN	NaN	NaN	NaN	NaN	NaN	NaN	NaN
127.49509639999997	0.3002	sub-22	1	sequence	fixation	dot	NaN	NaN	NaN	NaN	NaN	NaN	NaN	NaN	NaN	NaN	NaN	NaN
127.8604351999993	0.1016	sub-22	1	sequence	stimulus	Katze	NaN	NaN	512.0	NaN	NaN	3.0	1.0	NaN	NaN	NaN	NaN	NaN
127.96204059999944	0.5172	sub-22	1	sequence	interval	dot	NaN	NaN	NaN	NaN	NaN	NaN	NaN	NaN	NaN	NaN	NaN	NaN
128.47919759999968	0.1	sub-22	1	sequence	stimulus	Gesicht	NaN	NaN	512.0	NaN	NaN	1.0	2.0	NaN	NaN	NaN	NaN	NaN
128.5791580999994	0.5172	sub-22	1	sequence	interval	dot	NaN	NaN	NaN	NaN	NaN	NaN	NaN	NaN	NaN	NaN	NaN	NaN
129.09638579999955	0.1	sub-22	1	sequence	stimulus	Stuhl	NaN	NaN	512.0	NaN	NaN	5.0	3.0	NaN	NaN	NaN	NaN	NaN
129.19636249999985	0.5172	sub-22	1	sequence	interval	dot	NaN	NaN	NaN	NaN	NaN	NaN	NaN	NaN	NaN	NaN	NaN	NaN
129.71356599999945	0.0999	sub-22	1	sequence	stimulus	Haus	NaN	NaN	512.0	NaN	NaN	2.0	4.0	NaN	NaN	NaN	NaN	NaN
129.8134999999993	0.5172	sub-22	1	sequence	interval	dot	NaN	NaN	NaN	NaN	NaN	NaN	NaN	NaN	NaN	NaN	NaN	NaN
130.33074439999928	0.0999	sub-22	1	sequence	stimulus	Schuh	NaN	NaN	512.0	NaN	NaN	4.0	5.0	NaN	NaN	NaN	NaN	NaN
130.43068049999965	0.5172	sub-22	1	sequence	interval	dot	NaN	NaN	NaN	NaN	NaN	NaN	NaN	NaN	NaN	NaN	NaN	NaN
130.94787869999982	6.1528	sub-22	1	sequence	delay	dot	NaN	NaN	NaN	NaN	NaN	NaN	NaN	NaN	NaN	NaN	NaN	NaN
137.08639159999984	1.2342	sub-22	1	sequence	choice	choice	left	NaN	NaN	1.2069718999991892	True	NaN	NaN	left	1.0	4.0	5.0	4.0
138.32095539999955	0.5005	sub-22	1	sequence	feedback	NaN	NaN	NaN	NaN	NaN	NaN	NaN	NaN	NaN	NaN	NaN	NaN	NaN
138.82167089999984	0.9999	sub-22	1	sequence	cue	Stuhl	NaN	NaN	NaN	NaN	NaN	NaN	NaN	NaN	NaN	NaN	NaN	NaN
139.82162029999927	2.0016	sub-22	1	sequence	blank	blank	NaN	NaN	NaN	NaN	NaN	NaN	NaN	NaN	NaN	NaN	NaN	NaN
141.8232081999995	0.3003	sub-22	1	sequence	fixation	dot	NaN	NaN	NaN	NaN	NaN	NaN	NaN	NaN	NaN	NaN	NaN	NaN
142.14134999999987	0.1156	sub-22	1	sequence	stimulus	Katze	NaN	NaN	128.0	NaN	NaN	3.0	1.0	NaN	NaN	NaN	NaN	NaN
142.25690499999928	0.1336	sub-22	1	sequence	interval	dot	NaN	NaN	NaN	NaN	NaN	NaN	NaN	NaN	NaN	NaN	NaN	NaN
142.39050059999954	0.1	sub-22	1	sequence	stimulus	Haus	NaN	NaN	128.0	NaN	NaN	2.0	2.0	NaN	NaN	NaN	NaN	NaN
142.49045149999984	0.1335	sub-22	1	sequence	interval	dot	NaN	NaN	NaN	NaN	NaN	NaN	NaN	NaN	NaN	NaN	NaN	NaN
142.6239842999994	0.1	sub-22	1	sequence	stimulus	Schuh	NaN	NaN	128.0	NaN	NaN	4.0	3.0	NaN	NaN	NaN	NaN	NaN
142.72399959999984	0.1335	sub-22	1	sequence	interval	dot	NaN	NaN	NaN	NaN	NaN	NaN	NaN	NaN	NaN	NaN	NaN	NaN
142.8575168999996	0.1	sub-22	1	sequence	stimulus	Gesicht	NaN	NaN	128.0	NaN	NaN	1.0	4.0	NaN	NaN	NaN	NaN	NaN
142.95748490000005	0.1336	sub-22	1	sequence	interval	dot	NaN	NaN	NaN	NaN	NaN	NaN	NaN	NaN	NaN	NaN	NaN	NaN
143.09108769999966	0.0999	sub-22	1	sequence	stimulus	Stuhl	NaN	NaN	128.0	NaN	NaN	5.0	5.0	NaN	NaN	NaN	NaN	NaN
143.19098529999974	0.1334	sub-22	1	sequence	interval	dot	NaN	NaN	NaN	NaN	NaN	NaN	NaN	NaN	NaN	NaN	NaN	NaN
143.3244307999994	8.0545	sub-22	1	sequence	delay	dot	NaN	NaN	NaN	NaN	NaN	NaN	NaN	NaN	NaN	NaN	NaN	NaN
151.36013719999937	1.0719	sub-22	1	sequence	choice	choice	left	NaN	NaN	1.0488345999992816	True	NaN	NaN	left	True	5.0	3.0	5.0
152.43237150000004	0.4999	sub-22	1	sequence	feedback	NaN	NaN	NaN	NaN	NaN	NaN	NaN	NaN	NaN	NaN	NaN	NaN	NaN
152.93240960000003	1.0007	sub-22	1	sequence	cue	Schuh	NaN	NaN	NaN	NaN	NaN	NaN	NaN	NaN	NaN	NaN	NaN	NaN
153.9330731	2.0017	sub-22	1	sequence	blank	blank	NaN	NaN	NaN	NaN	NaN	NaN	NaN	NaN	NaN	NaN	NaN	NaN
155.9347601999998	0.3003	sub-22	1	sequence	fixation	dot	NaN	NaN	NaN	NaN	NaN	NaN	NaN	NaN	NaN	NaN	NaN	NaN
156.26706229999945	0.1013	sub-22	1	sequence	stimulus	Gesicht	NaN	NaN	512.0	NaN	NaN	1.0	1.0	NaN	NaN	NaN	NaN	NaN
156.36834069999986	0.5172	sub-22	1	sequence	interval	dot	NaN	NaN	NaN	NaN	NaN	NaN	NaN	NaN	NaN	NaN	NaN	NaN
156.88552629999958	0.1	sub-22	1	sequence	stimulus	Stuhl	NaN	NaN	512.0	NaN	NaN	5.0	2.0	NaN	NaN	NaN	NaN	NaN
156.98550579999937	0.5172	sub-22	1	sequence	interval	dot	NaN	NaN	NaN	NaN	NaN	NaN	NaN	NaN	NaN	NaN	NaN	NaN
157.50271840000005	0.0999	sub-22	1	sequence	stimulus	Haus	NaN	NaN	512.0	NaN	NaN	2.0	3.0	NaN	NaN	NaN	NaN	NaN
157.60264049999932	0.5172	sub-22	1	sequence	interval	dot	NaN	NaN	NaN	NaN	NaN	NaN	NaN	NaN	NaN	NaN	NaN	NaN
158.11988369999926	0.0999	sub-22	1	sequence	stimulus	Schuh	NaN	NaN	512.0	NaN	NaN	4.0	4.0	NaN	NaN	NaN	NaN	NaN
158.21982949999983	0.5173	sub-22	1	sequence	interval	dot	NaN	NaN	NaN	NaN	NaN	NaN	NaN	NaN	NaN	NaN	NaN	NaN
158.73715360000006	0.0998	sub-22	1	sequence	stimulus	Katze	NaN	NaN	512.0	NaN	NaN	3.0	5.0	NaN	NaN	NaN	NaN	NaN
158.83699049999996	0.5172	sub-22	1	sequence	interval	dot	NaN	NaN	NaN	NaN	NaN	NaN	NaN	NaN	NaN	NaN	NaN	NaN
159.35417589999997	6.153	sub-22	1	sequence	delay	dot	NaN	NaN	NaN	NaN	NaN	NaN	NaN	NaN	NaN	NaN	NaN	NaN
165.4780813999996	1.7827	sub-22	1	sequence	choice	choice	right	NaN	NaN	1.736513300000297	False	NaN	NaN	left	True	4.0	5.0	4.0
167.26099749999958	0.5001	sub-22	1	sequence	feedback	NaN	NaN	NaN	NaN	NaN	NaN	NaN	NaN	NaN	NaN	NaN	NaN	NaN
167.76137649999964	1.0006	sub-22	1	sequence	cue	Schuh	NaN	NaN	NaN	NaN	NaN	NaN	NaN	NaN	NaN	NaN	NaN	NaN
168.76197520000005	2.0014	sub-22	1	sequence	blank	blank	NaN	NaN	NaN	NaN	NaN	NaN	NaN	NaN	NaN	NaN	NaN	NaN
170.76342589999967	0.3003	sub-22	1	sequence	fixation	dot	NaN	NaN	NaN	NaN	NaN	NaN	NaN	NaN	NaN	NaN	NaN	NaN
171.09688000000006	0.1002	sub-22	1	sequence	stimulus	Stuhl	NaN	NaN	64.0	NaN	NaN	5.0	1.0	NaN	NaN	NaN	NaN	NaN
171.19704009999987	0.0668	sub-22	1	sequence	interval	dot	NaN	NaN	NaN	NaN	NaN	NaN	NaN	NaN	NaN	NaN	NaN	NaN
171.26384809999945	0.1	sub-22	1	sequence	stimulus	Schuh	NaN	NaN	64.0	NaN	NaN	4.0	2.0	NaN	NaN	NaN	NaN	NaN
171.36382589999994	0.067	sub-22	1	sequence	interval	dot	NaN	NaN	NaN	NaN	NaN	NaN	NaN	NaN	NaN	NaN	NaN	NaN
171.43082109999978	0.0998	sub-22	1	sequence	stimulus	Haus	NaN	NaN	64.0	NaN	NaN	2.0	3.0	NaN	NaN	NaN	NaN	NaN
171.53066809999928	0.0668	sub-22	1	sequence	interval	dot	NaN	NaN	NaN	NaN	NaN	NaN	NaN	NaN	NaN	NaN	NaN	NaN
171.59747220000008	0.1	sub-22	1	sequence	stimulus	Katze	NaN	NaN	64.0	NaN	NaN	3.0	4.0	NaN	NaN	NaN	NaN	NaN
171.69750699999986	0.0668	sub-22	1	sequence	interval	dot	NaN	NaN	NaN	NaN	NaN	NaN	NaN	NaN	NaN	NaN	NaN	NaN
171.76432659999955	0.0999	sub-22	1	sequence	stimulus	Gesicht	NaN	NaN	64.0	NaN	NaN	1.0	5.0	NaN	NaN	NaN	NaN	NaN
171.86422159999984	0.0667	sub-22	1	sequence	interval	dot	NaN	NaN	NaN	NaN	NaN	NaN	NaN	NaN	NaN	NaN	NaN	NaN
171.93095899999935	8.3881	sub-22	1	sequence	delay	dot	NaN	NaN	NaN	NaN	NaN	NaN	NaN	NaN	NaN	NaN	NaN	NaN
180.29749829999943	2.509	sub-22	1	sequence	choice	choice	NaN	NaN	NaN	NaN	False	NaN	NaN	right	False	5.0	2.0	2.0
182.8066417	0.5002	sub-22	1	sequence	feedback	NaN	NaN	NaN	NaN	NaN	NaN	NaN	NaN	NaN	NaN	NaN	NaN	NaN
183.30698369999936	1.0008	sub-22	1	sequence	cue	Katze	NaN	NaN	NaN	NaN	NaN	NaN	NaN	NaN	NaN	NaN	NaN	NaN
184.30774819999988	2.0017	sub-22	1	sequence	blank	blank	NaN	NaN	NaN	NaN	NaN	NaN	NaN	NaN	NaN	NaN	NaN	NaN
186.30941769999936	0.3002	sub-22	1	sequence	fixation	dot	NaN	NaN	NaN	NaN	NaN	NaN	NaN	NaN	NaN	NaN	NaN	NaN
186.6271301999996	0.0993	sub-22	1	sequence	stimulus	Stuhl	NaN	NaN	64.0	NaN	NaN	5.0	1.0	NaN	NaN	NaN	NaN	NaN
186.72638039999947	0.0669	sub-22	1	sequence	interval	dot	NaN	NaN	NaN	NaN	NaN	NaN	NaN	NaN	NaN	NaN	NaN	NaN
186.79324069999984	0.0999	sub-22	1	sequence	stimulus	Katze	NaN	NaN	64.0	NaN	NaN	3.0	2.0	NaN	NaN	NaN	NaN	NaN
186.89317949999983	0.0668	sub-22	1	sequence	interval	dot	NaN	NaN	NaN	NaN	NaN	NaN	NaN	NaN	NaN	NaN	NaN	NaN
186.95998419999975	0.1	sub-22	1	sequence	stimulus	Schuh	NaN	NaN	64.0	NaN	NaN	4.0	3.0	NaN	NaN	NaN	NaN	NaN
187.0600136999992	0.0668	sub-22	1	sequence	interval	dot	NaN	NaN	NaN	NaN	NaN	NaN	NaN	NaN	NaN	NaN	NaN	NaN
187.1268438999996	0.1001	sub-22	1	sequence	stimulus	Gesicht	NaN	NaN	64.0	NaN	NaN	1.0	4.0	NaN	NaN	NaN	NaN	NaN
187.22690779999996	0.0668	sub-22	1	sequence	interval	dot	NaN	NaN	NaN	NaN	NaN	NaN	NaN	NaN	NaN	NaN	NaN	NaN
187.29366469999968	0.1	sub-22	1	sequence	stimulus	Haus	NaN	NaN	64.0	NaN	NaN	2.0	5.0	NaN	NaN	NaN	NaN	NaN
187.39361669999928	0.0667	sub-22	1	sequence	interval	dot	NaN	NaN	NaN	NaN	NaN	NaN	NaN	NaN	NaN	NaN	NaN	NaN
187.46034439999949	8.3881	sub-22	1	sequence	delay	dot	NaN	NaN	NaN	NaN	NaN	NaN	NaN	NaN	NaN	NaN	NaN	NaN
195.81937209999975	1.1321	sub-22	1	sequence	choice	choice	right	NaN	NaN	1.0912812000005945	True	NaN	NaN	right	True	3.0	2.0	2.0
196.9517346999992	0.5	sub-22	1	sequence	feedback	NaN	NaN	NaN	NaN	NaN	NaN	NaN	NaN	NaN	NaN	NaN	NaN	NaN
197.4518382999995	1.0007	sub-22	1	sequence	cue	Gesicht	NaN	NaN	NaN	NaN	NaN	NaN	NaN	NaN	NaN	NaN	NaN	NaN
198.45254549999936	2.0016	sub-22	1	sequence	blank	blank	NaN	NaN	NaN	NaN	NaN	NaN	NaN	NaN	NaN	NaN	NaN	NaN
200.45413000000008	0.3003	sub-22	1	sequence	fixation	dot	NaN	NaN	NaN	NaN	NaN	NaN	NaN	NaN	NaN	NaN	NaN	NaN
200.7719731999996	0.0991	sub-22	1	sequence	stimulus	Schuh	NaN	NaN	128.0	NaN	NaN	4.0	1.0	NaN	NaN	NaN	NaN	NaN
200.8710421999995	0.1335	sub-22	1	sequence	interval	dot	NaN	NaN	NaN	NaN	NaN	NaN	NaN	NaN	NaN	NaN	NaN	NaN
201.0045547	0.1001	sub-22	1	sequence	stimulus	Stuhl	NaN	NaN	128.0	NaN	NaN	5.0	2.0	NaN	NaN	NaN	NaN	NaN
201.1046227999996	0.1336	sub-22	1	sequence	interval	dot	NaN	NaN	NaN	NaN	NaN	NaN	NaN	NaN	NaN	NaN	NaN	NaN
201.2381894	0.1	sub-22	1	sequence	stimulus	Katze	NaN	NaN	128.0	NaN	NaN	3.0	3.0	NaN	NaN	NaN	NaN	NaN
201.3381688999998	0.1336	sub-22	1	sequence	interval	dot	NaN	NaN	NaN	NaN	NaN	NaN	NaN	NaN	NaN	NaN	NaN	NaN
201.47177199999987	0.1	sub-22	1	sequence	stimulus	Haus	NaN	NaN	128.0	NaN	NaN	2.0	4.0	NaN	NaN	NaN	NaN	NaN
201.57173669999972	0.1335	sub-22	1	sequence	interval	dot	NaN	NaN	NaN	NaN	NaN	NaN	NaN	NaN	NaN	NaN	NaN	NaN
201.7052122999994	0.0999	sub-22	1	sequence	stimulus	Gesicht	NaN	NaN	128.0	NaN	NaN	1.0	5.0	NaN	NaN	NaN	NaN	NaN
201.80511380000007	0.1336	sub-22	1	sequence	interval	dot	NaN	NaN	NaN	NaN	NaN	NaN	NaN	NaN	NaN	NaN	NaN	NaN
201.9386748999996	8.0714	sub-22	1	sequence	delay	dot	NaN	NaN	NaN	NaN	NaN	NaN	NaN	NaN	NaN	NaN	NaN	NaN
209.98893509999925	0.924	sub-22	1	sequence	choice	choice	left	NaN	NaN	0.8897204000004422	True	NaN	NaN	left	True	5.0	4.0	5.0
210.91324609999992	0.4998	sub-22	1	sequence	feedback	NaN	NaN	NaN	NaN	NaN	NaN	NaN	NaN	NaN	NaN	NaN	NaN	NaN
211.4131872999997	1.0006	sub-22	1	sequence	cue	Schuh	NaN	NaN	NaN	NaN	NaN	NaN	NaN	NaN	NaN	NaN	NaN	NaN
212.4137895999993	2.0017	sub-22	1	sequence	blank	blank	NaN	NaN	NaN	NaN	NaN	NaN	NaN	NaN	NaN	NaN	NaN	NaN
214.41546190000008	0.3001	sub-22	1	sequence	fixation	dot	NaN	NaN	NaN	NaN	NaN	NaN	NaN	NaN	NaN	NaN	NaN	NaN
214.73392329999933	0.1151	sub-22	1	sequence	stimulus	Katze	NaN	NaN	32.0	NaN	NaN	3.0	1.0	NaN	NaN	NaN	NaN	NaN
214.8490213999994	0.0335	sub-22	1	sequence	interval	dot	NaN	NaN	NaN	NaN	NaN	NaN	NaN	NaN	NaN	NaN	NaN	NaN
214.88253339999935	0.0999	sub-22	1	sequence	stimulus	Gesicht	NaN	NaN	32.0	NaN	NaN	1.0	2.0	NaN	NaN	NaN	NaN	NaN
214.98245869999937	0.0335	sub-22	1	sequence	interval	dot	NaN	NaN	NaN	NaN	NaN	NaN	NaN	NaN	NaN	NaN	NaN	NaN
215.01595929999985	0.1	sub-22	1	sequence	stimulus	Haus	NaN	NaN	32.0	NaN	NaN	2.0	3.0	NaN	NaN	NaN	NaN	NaN
215.1160009999994	0.0334	sub-22	1	sequence	interval	dot	NaN	NaN	NaN	NaN	NaN	NaN	NaN	NaN	NaN	NaN	NaN	NaN
215.14939109999975	0.1	sub-22	1	sequence	stimulus	Stuhl	NaN	NaN	32.0	NaN	NaN	5.0	4.0	NaN	NaN	NaN	NaN	NaN
215.24934649999977	0.0335	sub-22	1	sequence	interval	dot	NaN	NaN	NaN	NaN	NaN	NaN	NaN	NaN	NaN	NaN	NaN	NaN
215.28283629999987	0.1	sub-22	1	sequence	stimulus	Schuh	NaN	NaN	32.0	NaN	NaN	4.0	5.0	NaN	NaN	NaN	NaN	NaN
215.3827961999996	0.0334	sub-22	1	sequence	interval	dot	NaN	NaN	NaN	NaN	NaN	NaN	NaN	NaN	NaN	NaN	NaN	NaN
215.41614750000008	8.5217	sub-22	1	sequence	delay	dot	NaN	NaN	NaN	NaN	NaN	NaN	NaN	NaN	NaN	NaN	NaN	NaN
223.92461039999944	2.4506	sub-22	1	sequence	choice	choice	left	NaN	NaN	2.426022799999373	False	NaN	NaN	right	True	2.0	5.0	5.0
226.3755143999997	0.5001	sub-22	1	sequence	feedback	NaN	NaN	NaN	NaN	NaN	NaN	NaN	NaN	NaN	NaN	NaN	NaN	NaN
226.8758341999992	1.0006	sub-22	1	sequence	cue	Haus	NaN	NaN	NaN	NaN	NaN	NaN	NaN	NaN	NaN	NaN	NaN	NaN
227.87639510000008	1.9996	sub-22	1	sequence	blank	blank	NaN	NaN	NaN	NaN	NaN	NaN	NaN	NaN	NaN	NaN	NaN	NaN
229.87603729999955	0.3024	sub-22	1	sequence	fixation	dot	NaN	NaN	NaN	NaN	NaN	NaN	NaN	NaN	NaN	NaN	NaN	NaN
230.19575469999927	0.0992	sub-22	1	sequence	stimulus	Katze	NaN	NaN	32.0	NaN	NaN	3.0	1.0	NaN	NaN	NaN	NaN	NaN
230.2949532999992	0.0335	sub-22	1	sequence	interval	dot	NaN	NaN	NaN	NaN	NaN	NaN	NaN	NaN	NaN	NaN	NaN	NaN
230.32844399999976	0.1	sub-22	1	sequence	stimulus	Gesicht	NaN	NaN	32.0	NaN	NaN	1.0	2.0	NaN	NaN	NaN	NaN	NaN
230.42841449999923	0.0335	sub-22	1	sequence	interval	dot	NaN	NaN	NaN	NaN	NaN	NaN	NaN	NaN	NaN	NaN	NaN	NaN
230.4618905999996	0.1	sub-22	1	sequence	stimulus	Schuh	NaN	NaN	32.0	NaN	NaN	4.0	3.0	NaN	NaN	NaN	NaN	NaN
230.56187429999957	0.0335	sub-22	1	sequence	interval	dot	NaN	NaN	NaN	NaN	NaN	NaN	NaN	NaN	NaN	NaN	NaN	NaN
230.5953788999996	0.0999	sub-22	1	sequence	stimulus	Haus	NaN	NaN	32.0	NaN	NaN	2.0	4.0	NaN	NaN	NaN	NaN	NaN
230.69530579999991	0.0335	sub-22	1	sequence	interval	dot	NaN	NaN	NaN	NaN	NaN	NaN	NaN	NaN	NaN	NaN	NaN	NaN
230.72880889999945	0.1	sub-22	1	sequence	stimulus	Stuhl	NaN	NaN	32.0	NaN	NaN	5.0	5.0	NaN	NaN	NaN	NaN	NaN
230.8287606999993	0.0334	sub-22	1	sequence	interval	dot	NaN	NaN	NaN	NaN	NaN	NaN	NaN	NaN	NaN	NaN	NaN	NaN
230.8621325999993	8.5216	sub-22	1	sequence	delay	dot	NaN	NaN	NaN	NaN	NaN	NaN	NaN	NaN	NaN	NaN	NaN	NaN
239.3682511999996	1.7023	sub-22	1	sequence	choice	choice	right	NaN	NaN	1.6842327999993358	True	NaN	NaN	right	True	5.0	4.0	4.0
241.07079559999968	0.4999	sub-22	1	sequence	feedback	NaN	NaN	NaN	NaN	NaN	NaN	NaN	NaN	NaN	NaN	NaN	NaN	NaN
245.3913917	0.4995	sub-22	1	localizer	stimulus	Stuhl	NaN	0	2.7187087000002066	NaN	True	NaN	NaN	NaN	NaN	NaN	NaN	NaN
245.87427169999955	2.7187	sub-22	1	localizer	blank	interval	NaN	NaN	NaN	NaN	NaN	NaN	NaN	NaN	NaN	NaN	NaN	NaN
248.8943516999998	0.4994	sub-22	1	localizer	stimulus	Haus	NaN	0	2.902191999999559	NaN	True	NaN	NaN	NaN	NaN	NaN	NaN	NaN
249.37736330000007	2.9022	sub-22	1	localizer	blank	interval	NaN	NaN	NaN	NaN	NaN	NaN	NaN	NaN	NaN	NaN	NaN	NaN
252.58066599999984	0.4994	sub-22	1	localizer	stimulus	Haus	NaN	0	2.5852362000004803	NaN	True	NaN	NaN	NaN	NaN	NaN	NaN	NaN
253.0635460999993	2.5852	sub-22	1	localizer	blank	interval	NaN	NaN	NaN	NaN	NaN	NaN	NaN	NaN	NaN	NaN	NaN	NaN
255.9498856	0.4995	sub-22	1	localizer	stimulus	Katze	NaN	0	3.686370999999781	NaN	True	NaN	NaN	NaN	NaN	NaN	NaN	NaN
256.4327913999996	3.6864	sub-22	1	localizer	blank	interval	NaN	NaN	NaN	NaN	NaN	NaN	NaN	NaN	NaN	NaN	NaN	NaN
260.4201483999996	0.4995	sub-22	1	localizer	stimulus	Gesicht	NaN	0	2.5519446999996944	NaN	True	NaN	NaN	NaN	NaN	NaN	NaN	NaN
260.9031114999998	2.5519	sub-22	1	localizer	blank	interval	NaN	NaN	NaN	NaN	NaN	NaN	NaN	NaN	NaN	NaN	NaN	NaN
263.7561835999996	0.4995	sub-22	1	localizer	stimulus	Haus	NaN	0	1.83460709999963	NaN	True	NaN	NaN	NaN	NaN	NaN	NaN	NaN
264.23927809999986	1.8346	sub-22	1	localizer	blank	interval	NaN	NaN	NaN	NaN	NaN	NaN	NaN	NaN	NaN	NaN	NaN	NaN
266.3749487999994	0.4995	sub-22	1	localizer	stimulus	Schuh	NaN	0	2.718931800000064	NaN	True	NaN	NaN	NaN	NaN	NaN	NaN	NaN
266.8579002999995	2.7189	sub-22	1	localizer	blank	interval	NaN	NaN	NaN	NaN	NaN	NaN	NaN	NaN	NaN	NaN	NaN	NaN
269.8779629999999	0.4994	sub-22	1	localizer	stimulus	Schuh	NaN	0	2.5521752999993055	NaN	True	NaN	NaN	NaN	NaN	NaN	NaN	NaN
270.3608617	2.5522	sub-22	1	localizer	blank	interval	NaN	NaN	NaN	NaN	NaN	NaN	NaN	NaN	NaN	NaN	NaN	NaN
273.2140772999992	0.4994	sub-22	1	localizer	stimulus	Haus	NaN	0	2.3349530999994386	NaN	True	NaN	NaN	NaN	NaN	NaN	NaN	NaN
273.6970762000001	2.335	sub-22	1	localizer	blank	interval	NaN	NaN	NaN	NaN	NaN	NaN	NaN	NaN	NaN	NaN	NaN	NaN
276.33301239999946	0.4996	sub-22	1	localizer	stimulus	Gesicht	NaN	180	2.8688944000004994	0.6627576999999292	True	NaN	NaN	NaN	NaN	NaN	NaN	NaN
276.8159792999995	2.8689	sub-22	1	localizer	blank	interval	NaN	NaN	NaN	NaN	NaN	NaN	NaN	NaN	NaN	NaN	NaN	NaN
279.9859792999996	0.4995	sub-22	1	localizer	stimulus	Schuh	NaN	0	2.9855156000003262	NaN	True	NaN	NaN	NaN	NaN	NaN	NaN	NaN
280.46904709999944	2.9855	sub-22	1	localizer	blank	interval	NaN	NaN	NaN	NaN	NaN	NaN	NaN	NaN	NaN	NaN	NaN	NaN
283.75572659999943	0.4996	sub-22	1	localizer	stimulus	Gesicht	NaN	0	2.902250600000116	NaN	True	NaN	NaN	NaN	NaN	NaN	NaN	NaN
284.2386607999997	2.9023	sub-22	1	localizer	blank	interval	NaN	NaN	NaN	NaN	NaN	NaN	NaN	NaN	NaN	NaN	NaN	NaN
287.4420094999996	0.4995	sub-22	1	localizer	stimulus	Stuhl	NaN	180	2.618779999999788	0.6660276000002341	True	NaN	NaN	NaN	NaN	NaN	NaN	NaN
287.9250007999999	2.6188	sub-22	1	localizer	blank	interval	NaN	NaN	NaN	NaN	NaN	NaN	NaN	NaN	NaN	NaN	NaN	NaN
290.84493049999946	0.4999	sub-22	1	localizer	stimulus	Stuhl	NaN	0	2.0849545999998895	NaN	True	NaN	NaN	NaN	NaN	NaN	NaN	NaN
291.3279782	2.085	sub-22	1	localizer	blank	interval	NaN	NaN	NaN	NaN	NaN	NaN	NaN	NaN	NaN	NaN	NaN	NaN
293.7139416	0.4995	sub-22	1	localizer	stimulus	Katze	NaN	180	2.401747599999908	0.7298688999999285	True	NaN	NaN	NaN	NaN	NaN	NaN	NaN
294.1969457999994	2.4017	sub-22	1	localizer	blank	interval	NaN	NaN	NaN	NaN	NaN	NaN	NaN	NaN	NaN	NaN	NaN	NaN
296.8996684999993	0.4999	sub-22	1	localizer	stimulus	Schuh	NaN	0	3.135856599999954	NaN	True	NaN	NaN	NaN	NaN	NaN	NaN	NaN
297.3826897999997	3.1359	sub-22	1	localizer	blank	interval	NaN	NaN	NaN	NaN	NaN	NaN	NaN	NaN	NaN	NaN	NaN	NaN
300.81953350000003	0.4995	sub-22	1	localizer	stimulus	Stuhl	NaN	0	2.0015091999994183	NaN	True	NaN	NaN	NaN	NaN	NaN	NaN	NaN
301.30248029999984	2.0015	sub-22	1	localizer	blank	interval	NaN	NaN	NaN	NaN	NaN	NaN	NaN	NaN	NaN	NaN	NaN	NaN
303.6050886999992	0.4995	sub-22	1	localizer	stimulus	Schuh	NaN	180	1.784660199999962	0.7027189999998882	True	NaN	NaN	NaN	NaN	NaN	NaN	NaN
304.0880976999997	1.7847	sub-22	1	localizer	blank	interval	NaN	NaN	NaN	NaN	NaN	NaN	NaN	NaN	NaN	NaN	NaN	NaN
306.1738664999993	0.4995	sub-22	1	localizer	stimulus	Katze	NaN	0	2.602097400000332	NaN	True	NaN	NaN	NaN	NaN	NaN	NaN	NaN
306.6568429999997	2.6021	sub-22	1	localizer	blank	interval	NaN	NaN	NaN	NaN	NaN	NaN	NaN	NaN	NaN	NaN	NaN	NaN
309.5599827999995	0.4995	sub-22	1	localizer	stimulus	Haus	NaN	180	2.18497769999982	0.700027300000329	True	NaN	NaN	NaN	NaN	NaN	NaN	NaN
310.0429992999998	2.185	sub-22	1	localizer	blank	interval	NaN	NaN	NaN	NaN	NaN	NaN	NaN	NaN	NaN	NaN	NaN	NaN
312.52908359999947	0.4996	sub-22	1	localizer	stimulus	Stuhl	NaN	0	1.8680893000000651	NaN	True	NaN	NaN	NaN	NaN	NaN	NaN	NaN
313.01213329999973	1.8681	sub-22	1	localizer	blank	interval	NaN	NaN	NaN	NaN	NaN	NaN	NaN	NaN	NaN	NaN	NaN	NaN
315.1814085999995	0.4994	sub-22	1	localizer	stimulus	Gesicht	NaN	0	3.002167499999814	NaN	True	NaN	NaN	NaN	NaN	NaN	NaN	NaN
315.6642974999995	3.0022	sub-22	1	localizer	blank	interval	NaN	NaN	NaN	NaN	NaN	NaN	NaN	NaN	NaN	NaN	NaN	NaN
318.9675838999992	0.4996	sub-22	1	localizer	stimulus	Gesicht	NaN	0	2.0515456000002814	NaN	True	NaN	NaN	NaN	NaN	NaN	NaN	NaN
319.4505094999995	2.0515	sub-22	1	localizer	blank	interval	NaN	NaN	NaN	NaN	NaN	NaN	NaN	NaN	NaN	NaN	NaN	NaN
321.8031618999994	0.4995	sub-22	1	localizer	stimulus	Katze	NaN	0	2.585152300000118	NaN	True	NaN	NaN	NaN	NaN	NaN	NaN	NaN
322.2862970999995	2.5852	sub-22	1	localizer	blank	interval	NaN	NaN	NaN	NaN	NaN	NaN	NaN	NaN	NaN	NaN	NaN	NaN
325.1725766	0.4995	sub-22	1	localizer	stimulus	Katze	NaN	0	2.2683765000001586	NaN	True	NaN	NaN	NaN	NaN	NaN	NaN	NaN
325.6555307999997	2.2684	sub-22	1	localizer	blank	interval	NaN	NaN	NaN	NaN	NaN	NaN	NaN	NaN	NaN	NaN	NaN	NaN
331.4104127999999	1.0005	sub-22	1	sequence	cue	Schuh	NaN	NaN	NaN	NaN	NaN	NaN	NaN	NaN	NaN	NaN	NaN	NaN
332.41094769999927	2.0017	sub-22	1	sequence	blank	blank	NaN	NaN	NaN	NaN	NaN	NaN	NaN	NaN	NaN	NaN	NaN	NaN
334.41266989999986	0.3003	sub-22	1	sequence	fixation	dot	NaN	NaN	NaN	NaN	NaN	NaN	NaN	NaN	NaN	NaN	NaN	NaN
334.7303886	0.0971	sub-22	1	sequence	stimulus	Katze	NaN	NaN	512.0	NaN	NaN	3.0	1.0	NaN	NaN	NaN	NaN	NaN
334.8275341999997	0.5195	sub-22	1	sequence	interval	dot	NaN	NaN	NaN	NaN	NaN	NaN	NaN	NaN	NaN	NaN	NaN	NaN
335.3470263999998	0.0998	sub-22	1	sequence	stimulus	Gesicht	NaN	NaN	512.0	NaN	NaN	1.0	2.0	NaN	NaN	NaN	NaN	NaN
335.4468637	0.5174	sub-22	1	sequence	interval	dot	NaN	NaN	NaN	NaN	NaN	NaN	NaN	NaN	NaN	NaN	NaN	NaN
335.9642170999996	0.0998	sub-22	1	sequence	stimulus	Stuhl	NaN	NaN	512.0	NaN	NaN	5.0	3.0	NaN	NaN	NaN	NaN	NaN
336.06405839999934	0.5172	sub-22	1	sequence	interval	dot	NaN	NaN	NaN	NaN	NaN	NaN	NaN	NaN	NaN	NaN	NaN	NaN
336.58126189999984	0.0999	sub-22	1	sequence	stimulus	Haus	NaN	NaN	512.0	NaN	NaN	2.0	4.0	NaN	NaN	NaN	NaN	NaN
336.68119260000003	0.5171	sub-22	1	sequence	interval	dot	NaN	NaN	NaN	NaN	NaN	NaN	NaN	NaN	NaN	NaN	NaN	NaN
337.1982459000001	0.0999	sub-22	1	sequence	stimulus	Schuh	NaN	NaN	512.0	NaN	NaN	4.0	5.0	NaN	NaN	NaN	NaN	NaN
337.29817959999946	0.5171	sub-22	1	sequence	interval	dot	NaN	NaN	NaN	NaN	NaN	NaN	NaN	NaN	NaN	NaN	NaN	NaN
337.81527169999936	6.1365	sub-22	1	sequence	delay	dot	NaN	NaN	NaN	NaN	NaN	NaN	NaN	NaN	NaN	NaN	NaN	NaN
343.9381321000001	1.2666	sub-22	1	sequence	choice	choice	left	NaN	NaN	1.2520964999994249	True	NaN	NaN	left	True	5.0	4.0	5.0
345.2049197999995	0.5002	sub-22	1	sequence	feedback	NaN	NaN	NaN	NaN	NaN	NaN	NaN	NaN	NaN	NaN	NaN	NaN	NaN
345.70528059999924	1.0006	sub-22	1	sequence	cue	Stuhl	NaN	NaN	NaN	NaN	NaN	NaN	NaN	NaN	NaN	NaN	NaN	NaN
346.7058543999992	2.0017	sub-22	1	sequence	blank	blank	NaN	NaN	NaN	NaN	NaN	NaN	NaN	NaN	NaN	NaN	NaN	NaN
348.7076068999995	0.3001	sub-22	1	sequence	fixation	dot	NaN	NaN	NaN	NaN	NaN	NaN	NaN	NaN	NaN	NaN	NaN	NaN
349.02616510000007	0.115	sub-22	1	sequence	stimulus	Katze	NaN	NaN	128.0	NaN	NaN	3.0	1.0	NaN	NaN	NaN	NaN	NaN
349.14113689999976	0.1336	sub-22	1	sequence	interval	dot	NaN	NaN	NaN	NaN	NaN	NaN	NaN	NaN	NaN	NaN	NaN	NaN
349.2747015999994	0.0999	sub-22	1	sequence	stimulus	Haus	NaN	NaN	128.0	NaN	NaN	2.0	2.0	NaN	NaN	NaN	NaN	NaN
349.3746388	0.1335	sub-22	1	sequence	interval	dot	NaN	NaN	NaN	NaN	NaN	NaN	NaN	NaN	NaN	NaN	NaN	NaN
349.50818079999954	0.1	sub-22	1	sequence	stimulus	Schuh	NaN	NaN	128.0	NaN	NaN	4.0	3.0	NaN	NaN	NaN	NaN	NaN
349.6081682999993	0.1336	sub-22	1	sequence	interval	dot	NaN	NaN	NaN	NaN	NaN	NaN	NaN	NaN	NaN	NaN	NaN	NaN
349.74173339999925	0.1001	sub-22	1	sequence	stimulus	Gesicht	NaN	NaN	128.0	NaN	NaN	1.0	4.0	NaN	NaN	NaN	NaN	NaN
349.84181269999954	0.1334	sub-22	1	sequence	interval	dot	NaN	NaN	NaN	NaN	NaN	NaN	NaN	NaN	NaN	NaN	NaN	NaN
349.97523980000005	0.1001	sub-22	1	sequence	stimulus	Stuhl	NaN	NaN	128.0	NaN	NaN	5.0	5.0	NaN	NaN	NaN	NaN	NaN
350.07531199999994	0.1334	sub-22	1	sequence	interval	dot	NaN	NaN	NaN	NaN	NaN	NaN	NaN	NaN	NaN	NaN	NaN	NaN
350.20868829999927	8.0714	sub-22	1	sequence	delay	dot	NaN	NaN	NaN	NaN	NaN	NaN	NaN	NaN	NaN	NaN	NaN	NaN
358.2638225999999	1.0524	sub-22	1	sequence	choice	choice	left	NaN	NaN	1.0199373000004923	False	NaN	NaN	right	True	4.0	5.0	5.0
359.3164825999993	0.5001	sub-22	1	sequence	feedback	NaN	NaN	NaN	NaN	NaN	NaN	NaN	NaN	NaN	NaN	NaN	NaN	NaN
359.8167137999999	1.0007	sub-22	1	sequence	cue	Gesicht	NaN	NaN	NaN	NaN	NaN	NaN	NaN	NaN	NaN	NaN	NaN	NaN
360.81738719999976	2.0015	sub-22	1	sequence	blank	blank	NaN	NaN	NaN	NaN	NaN	NaN	NaN	NaN	NaN	NaN	NaN	NaN
362.8188836999998	0.3003	sub-22	1	sequence	fixation	dot	NaN	NaN	NaN	NaN	NaN	NaN	NaN	NaN	NaN	NaN	NaN	NaN
363.13745349999954	0.1151	sub-22	1	sequence	stimulus	Gesicht	NaN	NaN	512.0	NaN	NaN	1.0	1.0	NaN	NaN	NaN	NaN	NaN
363.2525608999995	0.5172	sub-22	1	sequence	interval	dot	NaN	NaN	NaN	NaN	NaN	NaN	NaN	NaN	NaN	NaN	NaN	NaN
363.7697457999993	0.1	sub-22	1	sequence	stimulus	Stuhl	NaN	NaN	512.0	NaN	NaN	5.0	2.0	NaN	NaN	NaN	NaN	NaN
363.8697888999996	0.5172	sub-22	1	sequence	interval	dot	NaN	NaN	NaN	NaN	NaN	NaN	NaN	NaN	NaN	NaN	NaN	NaN
364.3869464999998	0.0999	sub-22	1	sequence	stimulus	Haus	NaN	NaN	512.0	NaN	NaN	2.0	3.0	NaN	NaN	NaN	NaN	NaN
364.4868735999999	0.5174	sub-22	1	sequence	interval	dot	NaN	NaN	NaN	NaN	NaN	NaN	NaN	NaN	NaN	NaN	NaN	NaN
365.004226	0.0999	sub-22	1	sequence	stimulus	Schuh	NaN	NaN	512.0	NaN	NaN	4.0	4.0	NaN	NaN	NaN	NaN	NaN
365.1041188999998	0.5172	sub-22	1	sequence	interval	dot	NaN	NaN	NaN	NaN	NaN	NaN	NaN	NaN	NaN	NaN	NaN	NaN
365.6213584999996	0.1	sub-22	1	sequence	stimulus	Katze	NaN	NaN	512.0	NaN	NaN	3.0	5.0	NaN	NaN	NaN	NaN	NaN
365.72134899999946	0.517	sub-22	1	sequence	interval	dot	NaN	NaN	NaN	NaN	NaN	NaN	NaN	NaN	NaN	NaN	NaN	NaN
366.2383373999992	6.1362	sub-22	1	sequence	delay	dot	NaN	NaN	NaN	NaN	NaN	NaN	NaN	NaN	NaN	NaN	NaN	NaN
372.3555207	0.9386	sub-22	1	sequence	choice	choice	left	NaN	NaN	0.9095048999997744	True	NaN	NaN	left	True	1.0	4.0	1.0
373.2942912999997	0.5003	sub-22	1	sequence	feedback	NaN	NaN	NaN	NaN	NaN	NaN	NaN	NaN	NaN	NaN	NaN	NaN	NaN
373.7946945999993	1.0006	sub-22	1	sequence	cue	Stuhl	NaN	NaN	NaN	NaN	NaN	NaN	NaN	NaN	NaN	NaN	NaN	NaN
374.7953263999998	1.9996	sub-22	1	sequence	blank	blank	NaN	NaN	NaN	NaN	NaN	NaN	NaN	NaN	NaN	NaN	NaN	NaN
376.7948956	0.3024	sub-22	1	sequence	fixation	dot	NaN	NaN	NaN	NaN	NaN	NaN	NaN	NaN	NaN	NaN	NaN	NaN
377.1147484999992	0.0993	sub-22	1	sequence	stimulus	Katze	NaN	NaN	32.0	NaN	NaN	3.0	1.0	NaN	NaN	NaN	NaN	NaN
377.2140626999999	0.0334	sub-22	1	sequence	interval	dot	NaN	NaN	NaN	NaN	NaN	NaN	NaN	NaN	NaN	NaN	NaN	NaN
377.24748779999936	0.1001	sub-22	1	sequence	stimulus	Gesicht	NaN	NaN	32.0	NaN	NaN	1.0	2.0	NaN	NaN	NaN	NaN	NaN
377.3475825999994	0.0335	sub-22	1	sequence	interval	dot	NaN	NaN	NaN	NaN	NaN	NaN	NaN	NaN	NaN	NaN	NaN	NaN
377.3810893	0.0999	sub-22	1	sequence	stimulus	Haus	NaN	NaN	32.0	NaN	NaN	2.0	3.0	NaN	NaN	NaN	NaN	NaN
377.4810061999997	0.0335	sub-22	1	sequence	interval	dot	NaN	NaN	NaN	NaN	NaN	NaN	NaN	NaN	NaN	NaN	NaN	NaN
377.5144780999999	0.1	sub-22	1	sequence	stimulus	Stuhl	NaN	NaN	32.0	NaN	NaN	5.0	4.0	NaN	NaN	NaN	NaN	NaN
377.61444739999934	0.0335	sub-22	1	sequence	interval	dot	NaN	NaN	NaN	NaN	NaN	NaN	NaN	NaN	NaN	NaN	NaN	NaN
377.6479649999992	0.1	sub-22	1	sequence	stimulus	Schuh	NaN	NaN	32.0	NaN	NaN	4.0	5.0	NaN	NaN	NaN	NaN	NaN
377.7479564999994	0.0333	sub-22	1	sequence	interval	dot	NaN	NaN	NaN	NaN	NaN	NaN	NaN	NaN	NaN	NaN	NaN	NaN
377.78122039999926	8.5216	sub-22	1	sequence	delay	dot	NaN	NaN	NaN	NaN	NaN	NaN	NaN	NaN	NaN	NaN	NaN	NaN
386.29131469999993	2.4988	sub-22	1	sequence	choice	choice	NaN	NaN	NaN	NaN	False	NaN	NaN	left	False	4.0	5.0	4.0
388.7901861999999	0.5003	sub-22	1	sequence	feedback	NaN	NaN	NaN	NaN	NaN	NaN	NaN	NaN	NaN	NaN	NaN	NaN	NaN
389.2906641999998	1.0006	sub-22	1	sequence	cue	Gesicht	NaN	NaN	NaN	NaN	NaN	NaN	NaN	NaN	NaN	NaN	NaN	NaN
390.2912465	2.0015	sub-22	1	sequence	blank	blank	NaN	NaN	NaN	NaN	NaN	NaN	NaN	NaN	NaN	NaN	NaN	NaN
392.2927985999995	0.3002	sub-22	1	sequence	fixation	dot	NaN	NaN	NaN	NaN	NaN	NaN	NaN	NaN	NaN	NaN	NaN	NaN
392.61146159999953	0.115	sub-22	1	sequence	stimulus	Stuhl	NaN	NaN	64.0	NaN	NaN	5.0	1.0	NaN	NaN	NaN	NaN	NaN
392.7264335	0.0668	sub-22	1	sequence	interval	dot	NaN	NaN	NaN	NaN	NaN	NaN	NaN	NaN	NaN	NaN	NaN	NaN
392.7932783999995	0.0999	sub-22	1	sequence	stimulus	Schuh	NaN	NaN	64.0	NaN	NaN	4.0	2.0	NaN	NaN	NaN	NaN	NaN
392.8932230999999	0.067	sub-22	1	sequence	interval	dot	NaN	NaN	NaN	NaN	NaN	NaN	NaN	NaN	NaN	NaN	NaN	NaN
392.96017779999966	0.0998	sub-22	1	sequence	stimulus	Haus	NaN	NaN	64.0	NaN	NaN	2.0	3.0	NaN	NaN	NaN	NaN	NaN
393.0600275999996	0.0669	sub-22	1	sequence	interval	dot	NaN	NaN	NaN	NaN	NaN	NaN	NaN	NaN	NaN	NaN	NaN	NaN
393.1268868999996	0.1	sub-22	1	sequence	stimulus	Katze	NaN	NaN	64.0	NaN	NaN	3.0	4.0	NaN	NaN	NaN	NaN	NaN
393.22683869999946	0.0669	sub-22	1	sequence	interval	dot	NaN	NaN	NaN	NaN	NaN	NaN	NaN	NaN	NaN	NaN	NaN	NaN
393.2937144999996	0.0999	sub-22	1	sequence	stimulus	Gesicht	NaN	NaN	64.0	NaN	NaN	1.0	5.0	NaN	NaN	NaN	NaN	NaN
393.3936464999997	0.0667	sub-22	1	sequence	interval	dot	NaN	NaN	NaN	NaN	NaN	NaN	NaN	NaN	NaN	NaN	NaN	NaN
393.46035669999947	8.4051	sub-22	1	sequence	delay	dot	NaN	NaN	NaN	NaN	NaN	NaN	NaN	NaN	NaN	NaN	NaN	NaN
401.8390045999995	1.3461	sub-22	1	sequence	choice	choice	right	NaN	NaN	1.3066584999996849	True	NaN	NaN	right	True	2.0	5.0	5.0
403.1853481999997	0.5001	sub-22	1	sequence	feedback	NaN	NaN	NaN	NaN	NaN	NaN	NaN	NaN	NaN	NaN	NaN	NaN	NaN
403.6856957	1.0004	sub-22	1	sequence	cue	Haus	NaN	NaN	NaN	NaN	NaN	NaN	NaN	NaN	NaN	NaN	NaN	NaN
404.6861315999995	2.0016	sub-22	1	sequence	blank	blank	NaN	NaN	NaN	NaN	NaN	NaN	NaN	NaN	NaN	NaN	NaN	NaN
406.6877482	0.3002	sub-22	1	sequence	fixation	dot	NaN	NaN	NaN	NaN	NaN	NaN	NaN	NaN	NaN	NaN	NaN	NaN
407.0063063999996	0.1151	sub-22	1	sequence	stimulus	Schuh	NaN	NaN	128.0	NaN	NaN	4.0	1.0	NaN	NaN	NaN	NaN	NaN
407.1214252	0.1336	sub-22	1	sequence	interval	dot	NaN	NaN	NaN	NaN	NaN	NaN	NaN	NaN	NaN	NaN	NaN	NaN
407.25498269999935	0.0999	sub-22	1	sequence	stimulus	Stuhl	NaN	NaN	128.0	NaN	NaN	5.0	2.0	NaN	NaN	NaN	NaN	NaN
407.35491269999966	0.1336	sub-22	1	sequence	interval	dot	NaN	NaN	NaN	NaN	NaN	NaN	NaN	NaN	NaN	NaN	NaN	NaN
407.4884992999996	0.0999	sub-22	1	sequence	stimulus	Katze	NaN	NaN	128.0	NaN	NaN	3.0	3.0	NaN	NaN	NaN	NaN	NaN
407.5884487999992	0.1336	sub-22	1	sequence	interval	dot	NaN	NaN	NaN	NaN	NaN	NaN	NaN	NaN	NaN	NaN	NaN	NaN
407.7220465	0.0999	sub-22	1	sequence	stimulus	Haus	NaN	NaN	128.0	NaN	NaN	2.0	4.0	NaN	NaN	NaN	NaN	NaN
407.8219782999995	0.1336	sub-22	1	sequence	interval	dot	NaN	NaN	NaN	NaN	NaN	NaN	NaN	NaN	NaN	NaN	NaN	NaN
407.9555470999994	0.1001	sub-22	1	sequence	stimulus	Gesicht	NaN	NaN	128.0	NaN	NaN	1.0	5.0	NaN	NaN	NaN	NaN	NaN
408.0556655999999	0.1333	sub-22	1	sequence	interval	dot	NaN	NaN	NaN	NaN	NaN	NaN	NaN	NaN	NaN	NaN	NaN	NaN
408.1889211999997	8.0717	sub-22	1	sequence	delay	dot	NaN	NaN	NaN	NaN	NaN	NaN	NaN	NaN	NaN	NaN	NaN	NaN
416.2426145999998	1.1876	sub-22	1	sequence	choice	choice	right	NaN	NaN	1.1675060999996276	True	NaN	NaN	right	True	3.0	4.0	4.0
417.4304244999994	0.5	sub-22	1	sequence	feedback	NaN	NaN	NaN	NaN	NaN	NaN	NaN	NaN	NaN	NaN	NaN	NaN	NaN
417.9305502999996	1.0006	sub-22	1	sequence	cue	Gesicht	NaN	NaN	NaN	NaN	NaN	NaN	NaN	NaN	NaN	NaN	NaN	NaN
418.93112609999935	2.0016	sub-22	1	sequence	blank	blank	NaN	NaN	NaN	NaN	NaN	NaN	NaN	NaN	NaN	NaN	NaN	NaN
420.93273659999977	0.3001	sub-22	1	sequence	fixation	dot	NaN	NaN	NaN	NaN	NaN	NaN	NaN	NaN	NaN	NaN	NaN	NaN
421.2503774999996	0.0992	sub-22	1	sequence	stimulus	Katze	NaN	NaN	32.0	NaN	NaN	3.0	1.0	NaN	NaN	NaN	NaN	NaN
421.3496218	0.0335	sub-22	1	sequence	interval	dot	NaN	NaN	NaN	NaN	NaN	NaN	NaN	NaN	NaN	NaN	NaN	NaN
421.3831125999996	0.0999	sub-22	1	sequence	stimulus	Gesicht	NaN	NaN	32.0	NaN	NaN	1.0	2.0	NaN	NaN	NaN	NaN	NaN
421.4830560999999	0.0335	sub-22	1	sequence	interval	dot	NaN	NaN	NaN	NaN	NaN	NaN	NaN	NaN	NaN	NaN	NaN	NaN
421.5165236999992	0.1	sub-22	1	sequence	stimulus	Schuh	NaN	NaN	32.0	NaN	NaN	4.0	3.0	NaN	NaN	NaN	NaN	NaN
421.6164992999993	0.0335	sub-22	1	sequence	interval	dot	NaN	NaN	NaN	NaN	NaN	NaN	NaN	NaN	NaN	NaN	NaN	NaN
421.6500042999997	0.0999	sub-22	1	sequence	stimulus	Haus	NaN	NaN	32.0	NaN	NaN	2.0	4.0	NaN	NaN	NaN	NaN	NaN
421.7499509999998	0.0335	sub-22	1	sequence	interval	dot	NaN	NaN	NaN	NaN	NaN	NaN	NaN	NaN	NaN	NaN	NaN	NaN
421.7834195999994	0.1	sub-22	1	sequence	stimulus	Stuhl	NaN	NaN	32.0	NaN	NaN	5.0	5.0	NaN	NaN	NaN	NaN	NaN
421.8833826999999	0.0334	sub-22	1	sequence	interval	dot	NaN	NaN	NaN	NaN	NaN	NaN	NaN	NaN	NaN	NaN	NaN	NaN
421.9167505999994	8.5384	sub-22	1	sequence	delay	dot	NaN	NaN	NaN	NaN	NaN	NaN	NaN	NaN	NaN	NaN	NaN	NaN
430.43839429999935	0.9195	sub-22	1	sequence	choice	choice	left	NaN	NaN	0.900814900000114	True	NaN	NaN	left	True	2.0	5.0	2.0
431.3581682999993	0.5	sub-22	1	sequence	feedback	NaN	NaN	NaN	NaN	NaN	NaN	NaN	NaN	NaN	NaN	NaN	NaN	NaN
431.8584263999992	1.0007	sub-22	1	sequence	cue	Gesicht	NaN	NaN	NaN	NaN	NaN	NaN	NaN	NaN	NaN	NaN	NaN	NaN
432.8590992999998	2.0016	sub-22	1	sequence	blank	blank	NaN	NaN	NaN	NaN	NaN	NaN	NaN	NaN	NaN	NaN	NaN	NaN
434.8606813999995	0.3001	sub-22	1	sequence	fixation	dot	NaN	NaN	NaN	NaN	NaN	NaN	NaN	NaN	NaN	NaN	NaN	NaN
435.1792122999996	0.1151	sub-22	1	sequence	stimulus	Stuhl	NaN	NaN	64.0	NaN	NaN	5.0	1.0	NaN	NaN	NaN	NaN	NaN
435.2943261999999	0.0667	sub-22	1	sequence	interval	dot	NaN	NaN	NaN	NaN	NaN	NaN	NaN	NaN	NaN	NaN	NaN	NaN
435.3610718	0.1	sub-22	1	sequence	stimulus	Katze	NaN	NaN	64.0	NaN	NaN	3.0	2.0	NaN	NaN	NaN	NaN	NaN
435.4610372999996	0.0668	sub-22	1	sequence	interval	dot	NaN	NaN	NaN	NaN	NaN	NaN	NaN	NaN	NaN	NaN	NaN	NaN
435.5278716999992	0.1	sub-22	1	sequence	stimulus	Schuh	NaN	NaN	64.0	NaN	NaN	4.0	3.0	NaN	NaN	NaN	NaN	NaN
435.6278284999999	0.0668	sub-22	1	sequence	interval	dot	NaN	NaN	NaN	NaN	NaN	NaN	NaN	NaN	NaN	NaN	NaN	NaN
435.6946754000001	0.1	sub-22	1	sequence	stimulus	Gesicht	NaN	NaN	64.0	NaN	NaN	1.0	4.0	NaN	NaN	NaN	NaN	NaN
435.79468409999936	0.0668	sub-22	1	sequence	interval	dot	NaN	NaN	NaN	NaN	NaN	NaN	NaN	NaN	NaN	NaN	NaN	NaN
435.8614947999995	0.1	sub-22	1	sequence	stimulus	Haus	NaN	NaN	64.0	NaN	NaN	2.0	5.0	NaN	NaN	NaN	NaN	NaN
435.9614529999999	0.0667	sub-22	1	sequence	interval	dot	NaN	NaN	NaN	NaN	NaN	NaN	NaN	NaN	NaN	NaN	NaN	NaN
436.02818750000006	8.3883	sub-22	1	sequence	delay	dot	NaN	NaN	NaN	NaN	NaN	NaN	NaN	NaN	NaN	NaN	NaN	NaN
444.4000428	1.1862	sub-22	1	sequence	choice	choice	right	NaN	NaN	1.1555474999995567	True	NaN	NaN	right	True	5.0	4.0	4.0
445.5864783999996	0.5	sub-22	1	sequence	feedback	NaN	NaN	NaN	NaN	NaN	NaN	NaN	NaN	NaN	NaN	NaN	NaN	NaN
446.0867986999992	39.3149	sub-22	1	other	break	break	NaN	NaN	NaN	NaN	NaN	NaN	NaN	NaN	NaN	NaN	NaN	NaN
489.22212189999937	0.4995	sub-22	1	localizer	stimulus	Schuh	NaN	0	2.7523458000004553	NaN	True	NaN	NaN	NaN	NaN	NaN	NaN	NaN
489.7216464999992	2.7523	sub-22	1	localizer	blank	interval	NaN	NaN	NaN	NaN	NaN	NaN	NaN	NaN	NaN	NaN	NaN	NaN
492.7749975999996	0.4995	sub-22	1	localizer	stimulus	Haus	NaN	0	2.1181852999998227	NaN	True	NaN	NaN	NaN	NaN	NaN	NaN	NaN
493.2580806999995	2.1182	sub-22	1	localizer	blank	interval	NaN	NaN	NaN	NaN	NaN	NaN	NaN	NaN	NaN	NaN	NaN	NaN
495.6773994999994	0.4995	sub-22	1	localizer	stimulus	Haus	NaN	0	3.1858242999996946	NaN	True	NaN	NaN	NaN	NaN	NaN	NaN	NaN
496.1603710999998	3.1858	sub-22	1	localizer	blank	interval	NaN	NaN	NaN	NaN	NaN	NaN	NaN	NaN	NaN	NaN	NaN	NaN
499.64741259999937	0.4993	sub-22	1	localizer	stimulus	Katze	NaN	0	3.052378800000099	NaN	True	NaN	NaN	NaN	NaN	NaN	NaN	NaN
500.1302851	3.0524	sub-22	1	localizer	blank	interval	NaN	NaN	NaN	NaN	NaN	NaN	NaN	NaN	NaN	NaN	NaN	NaN
503.4838839999993	0.4995	sub-22	1	localizer	stimulus	Katze	NaN	180	3.552676899999881	0.7360423999998602	True	NaN	NaN	NaN	NaN	NaN	NaN	NaN
503.9667694999998	3.5527	sub-22	1	localizer	blank	interval	NaN	NaN	NaN	NaN	NaN	NaN	NaN	NaN	NaN	NaN	NaN	NaN
507.82059709999976	0.4995	sub-22	1	localizer	stimulus	Schuh	NaN	0	2.3851353000000017	NaN	True	NaN	NaN	NaN	NaN	NaN	NaN	NaN
508.3036167	2.3851	sub-22	1	localizer	blank	interval	NaN	NaN	NaN	NaN	NaN	NaN	NaN	NaN	NaN	NaN	NaN	NaN
510.9897623999996	0.4996	sub-22	1	localizer	stimulus	Katze	NaN	0	3.4694429999999556	NaN	True	NaN	NaN	NaN	NaN	NaN	NaN	NaN
511.4726946999999	3.4694	sub-22	1	localizer	blank	interval	NaN	NaN	NaN	NaN	NaN	NaN	NaN	NaN	NaN	NaN	NaN	NaN
515.2432031999997	0.4996	sub-22	1	localizer	stimulus	Haus	NaN	0	2.3350370999996812	NaN	True	NaN	NaN	NaN	NaN	NaN	NaN	NaN
515.7262154	2.335	sub-22	1	localizer	blank	interval	NaN	NaN	NaN	NaN	NaN	NaN	NaN	NaN	NaN	NaN	NaN	NaN
518.3624018999999	0.4996	sub-22	1	localizer	stimulus	Schuh	NaN	180	2.8355670000000828	0.7776229999999487	True	NaN	NaN	NaN	NaN	NaN	NaN	NaN
518.8454065999995	2.8356	sub-22	1	localizer	blank	interval	NaN	NaN	NaN	NaN	NaN	NaN	NaN	NaN	NaN	NaN	NaN	NaN
521.9821542	0.4995	sub-22	1	localizer	stimulus	Schuh	NaN	0	2.4185031000006347	NaN	True	NaN	NaN	NaN	NaN	NaN	NaN	NaN
522.4651866999993	2.4185	sub-22	1	localizer	blank	interval	NaN	NaN	NaN	NaN	NaN	NaN	NaN	NaN	NaN	NaN	NaN	NaN
525.1847462999995	0.4993	sub-22	1	localizer	stimulus	Gesicht	NaN	0	2.9521193999999014	NaN	True	NaN	NaN	NaN	NaN	NaN	NaN	NaN
525.6676791999998	2.9521	sub-22	1	localizer	blank	interval	NaN	NaN	NaN	NaN	NaN	NaN	NaN	NaN	NaN	NaN	NaN	NaN
528.9209406	0.4995	sub-22	1	localizer	stimulus	Stuhl	NaN	0	1.8346613000003344	NaN	True	NaN	NaN	NaN	NaN	NaN	NaN	NaN
529.4039042999993	1.8347	sub-22	1	localizer	blank	interval	NaN	NaN	NaN	NaN	NaN	NaN	NaN	NaN	NaN	NaN	NaN	NaN
531.5397155999999	0.4996	sub-22	1	localizer	stimulus	Katze	NaN	0	2.9690341999994416	NaN	True	NaN	NaN	NaN	NaN	NaN	NaN	NaN
532.0227371000001	2.969	sub-22	1	localizer	blank	interval	NaN	NaN	NaN	NaN	NaN	NaN	NaN	NaN	NaN	NaN	NaN	NaN
535.2927173999997	0.4996	sub-22	1	localizer	stimulus	Stuhl	NaN	0	2.785474399999657	NaN	True	NaN	NaN	NaN	NaN	NaN	NaN	NaN
535.7757204999998	2.7855	sub-22	1	localizer	blank	interval	NaN	NaN	NaN	NaN	NaN	NaN	NaN	NaN	NaN	NaN	NaN	NaN
538.8623204999994	0.4996	sub-22	1	localizer	stimulus	Gesicht	NaN	0	1.9848055000002205	NaN	True	NaN	NaN	NaN	NaN	NaN	NaN	NaN
539.3454157999995	1.9848	sub-22	1	localizer	blank	interval	NaN	NaN	NaN	NaN	NaN	NaN	NaN	NaN	NaN	NaN	NaN	NaN
541.6314244999994	0.4994	sub-22	1	localizer	stimulus	Gesicht	NaN	0	2.2017572000004293	NaN	True	NaN	NaN	NaN	NaN	NaN	NaN	NaN
542.1143465999994	2.2018	sub-22	1	localizer	blank	interval	NaN	NaN	NaN	NaN	NaN	NaN	NaN	NaN	NaN	NaN	NaN	NaN
544.6171073999994	0.4997	sub-22	1	localizer	stimulus	Haus	NaN	0	2.7018801000003805	NaN	True	NaN	NaN	NaN	NaN	NaN	NaN	NaN
545.1001117999995	2.7019	sub-22	1	localizer	blank	interval	NaN	NaN	NaN	NaN	NaN	NaN	NaN	NaN	NaN	NaN	NaN	NaN
548.1031039999998	0.4995	sub-22	1	localizer	stimulus	Stuhl	NaN	0	2.685360400000718	NaN	True	NaN	NaN	NaN	NaN	NaN	NaN	NaN
548.5862340999993	2.6854	sub-22	1	localizer	blank	interval	NaN	NaN	NaN	NaN	NaN	NaN	NaN	NaN	NaN	NaN	NaN	NaN
551.5726142999993	0.4995	sub-22	1	localizer	stimulus	Haus	NaN	180	2.4352281000001312	0.6394442999999228	True	NaN	NaN	NaN	NaN	NaN	NaN	NaN
552.0556729999998	2.4352	sub-22	1	localizer	blank	interval	NaN	NaN	NaN	NaN	NaN	NaN	NaN	NaN	NaN	NaN	NaN	NaN
554.7919499	0.4995	sub-22	1	localizer	stimulus	Gesicht	NaN	0	3.0357405999993716	NaN	True	NaN	NaN	NaN	NaN	NaN	NaN	NaN
555.2748941	3.0357	sub-22	1	localizer	blank	interval	NaN	NaN	NaN	NaN	NaN	NaN	NaN	NaN	NaN	NaN	NaN	NaN
558.6116210999999	0.4995	sub-22	1	localizer	stimulus	Katze	NaN	0	1.4344006999999692	NaN	True	NaN	NaN	NaN	NaN	NaN	NaN	NaN
559.0946230999998	1.4344	sub-22	1	localizer	blank	interval	NaN	NaN	NaN	NaN	NaN	NaN	NaN	NaN	NaN	NaN	NaN	NaN
560.8301091999992	0.5001	sub-22	1	localizer	stimulus	Gesicht	NaN	180	2.70202209999934	0.7981089000004431	True	NaN	NaN	NaN	NaN	NaN	NaN	NaN
561.3133361	2.702	sub-22	1	localizer	blank	interval	NaN	NaN	NaN	NaN	NaN	NaN	NaN	NaN	NaN	NaN	NaN	NaN
564.3163425999992	0.4996	sub-22	1	localizer	stimulus	Schuh	NaN	0	2.618742800000291	NaN	True	NaN	NaN	NaN	NaN	NaN	NaN	NaN
564.7993437999994	2.6187	sub-22	1	localizer	blank	interval	NaN	NaN	NaN	NaN	NaN	NaN	NaN	NaN	NaN	NaN	NaN	NaN
567.7191625999994	0.4995	sub-22	1	localizer	stimulus	Stuhl	NaN	0	2.585244199999579	NaN	True	NaN	NaN	NaN	NaN	NaN	NaN	NaN
568.2020708	2.5852	sub-22	1	localizer	blank	interval	NaN	NaN	NaN	NaN	NaN	NaN	NaN	NaN	NaN	NaN	NaN	NaN
571.0884096	0.4995	sub-22	1	localizer	stimulus	Stuhl	NaN	180	2.535189199999877	0.5955794000001333	True	NaN	NaN	NaN	NaN	NaN	NaN	NaN
571.5714743999997	2.5352	sub-22	1	localizer	blank	interval	NaN	NaN	NaN	NaN	NaN	NaN	NaN	NaN	NaN	NaN	NaN	NaN
577.5931142999998	1.0005	sub-22	1	sequence	cue	Katze	NaN	NaN	NaN	NaN	NaN	NaN	NaN	NaN	NaN	NaN	NaN	NaN
578.5936517999999	2.0016	sub-22	1	sequence	blank	blank	NaN	NaN	NaN	NaN	NaN	NaN	NaN	NaN	NaN	NaN	NaN	NaN
580.5952510999996	0.3003	sub-22	1	sequence	fixation	dot	NaN	NaN	NaN	NaN	NaN	NaN	NaN	NaN	NaN	NaN	NaN	NaN
580.9151302	0.1138	sub-22	1	sequence	stimulus	Stuhl	NaN	NaN	64.0	NaN	NaN	5.0	1.0	NaN	NaN	NaN	NaN	NaN
581.0289318999994	0.0669	sub-22	1	sequence	interval	dot	NaN	NaN	NaN	NaN	NaN	NaN	NaN	NaN	NaN	NaN	NaN	NaN
581.0957936999994	0.0999	sub-22	1	sequence	stimulus	Katze	NaN	NaN	64.0	NaN	NaN	3.0	2.0	NaN	NaN	NaN	NaN	NaN
581.1957345999999	0.0668	sub-22	1	sequence	interval	dot	NaN	NaN	NaN	NaN	NaN	NaN	NaN	NaN	NaN	NaN	NaN	NaN
581.2625533999999	0.1	sub-22	1	sequence	stimulus	Schuh	NaN	NaN	64.0	NaN	NaN	4.0	3.0	NaN	NaN	NaN	NaN	NaN
581.3625372999995	0.0668	sub-22	1	sequence	interval	dot	NaN	NaN	NaN	NaN	NaN	NaN	NaN	NaN	NaN	NaN	NaN	NaN
581.4293756999996	0.1	sub-22	1	sequence	stimulus	Gesicht	NaN	NaN	64.0	NaN	NaN	1.0	4.0	NaN	NaN	NaN	NaN	NaN
581.5293454999992	0.0669	sub-22	1	sequence	interval	dot	NaN	NaN	NaN	NaN	NaN	NaN	NaN	NaN	NaN	NaN	NaN	NaN
581.5962297999995	0.0999	sub-22	1	sequence	stimulus	Haus	NaN	NaN	64.0	NaN	NaN	2.0	5.0	NaN	NaN	NaN	NaN	NaN
581.6961345	0.0667	sub-22	1	sequence	interval	dot	NaN	NaN	NaN	NaN	NaN	NaN	NaN	NaN	NaN	NaN	NaN	NaN
581.7628694999994	8.3884	sub-22	1	sequence	delay	dot	NaN	NaN	NaN	NaN	NaN	NaN	NaN	NaN	NaN	NaN	NaN	NaN
590.1271029	0.7935	sub-22	1	sequence	choice	choice	left	NaN	NaN	0.7568221999999878	True	NaN	NaN	left	True	2.0	3.0	2.0
590.9209591999997	0.4999	sub-22	1	sequence	feedback	NaN	NaN	NaN	NaN	NaN	NaN	NaN	NaN	NaN	NaN	NaN	NaN	NaN
591.4210423999994	1.0005	sub-22	1	sequence	cue	Katze	NaN	NaN	NaN	NaN	NaN	NaN	NaN	NaN	NaN	NaN	NaN	NaN
592.4215381999993	2.0017	sub-22	1	sequence	blank	blank	NaN	NaN	NaN	NaN	NaN	NaN	NaN	NaN	NaN	NaN	NaN	NaN
594.4232641999997	0.3001	sub-22	1	sequence	fixation	dot	NaN	NaN	NaN	NaN	NaN	NaN	NaN	NaN	NaN	NaN	NaN	NaN
594.7417428999997	0.1151	sub-22	1	sequence	stimulus	Stuhl	NaN	NaN	64.0	NaN	NaN	5.0	1.0	NaN	NaN	NaN	NaN	NaN
594.8568595999996	0.0669	sub-22	1	sequence	interval	dot	NaN	NaN	NaN	NaN	NaN	NaN	NaN	NaN	NaN	NaN	NaN	NaN
594.9237642999997	0.0998	sub-22	1	sequence	stimulus	Schuh	NaN	NaN	64.0	NaN	NaN	4.0	2.0	NaN	NaN	NaN	NaN	NaN
595.0236024999995	0.067	sub-22	1	sequence	interval	dot	NaN	NaN	NaN	NaN	NaN	NaN	NaN	NaN	NaN	NaN	NaN	NaN
595.0905761999993	0.0999	sub-22	1	sequence	stimulus	Haus	NaN	NaN	64.0	NaN	NaN	2.0	3.0	NaN	NaN	NaN	NaN	NaN
595.1904789999999	0.0668	sub-22	1	sequence	interval	dot	NaN	NaN	NaN	NaN	NaN	NaN	NaN	NaN	NaN	NaN	NaN	NaN
595.2572526999993	0.1	sub-22	1	sequence	stimulus	Katze	NaN	NaN	64.0	NaN	NaN	3.0	4.0	NaN	NaN	NaN	NaN	NaN
595.3572492999992	0.0669	sub-22	1	sequence	interval	dot	NaN	NaN	NaN	NaN	NaN	NaN	NaN	NaN	NaN	NaN	NaN	NaN
595.4241281999994	0.0999	sub-22	1	sequence	stimulus	Gesicht	NaN	NaN	64.0	NaN	NaN	1.0	5.0	NaN	NaN	NaN	NaN	NaN
595.5240322	0.0667	sub-22	1	sequence	interval	dot	NaN	NaN	NaN	NaN	NaN	NaN	NaN	NaN	NaN	NaN	NaN	NaN
595.5907276999997	8.3884	sub-22	1	sequence	delay	dot	NaN	NaN	NaN	NaN	NaN	NaN	NaN	NaN	NaN	NaN	NaN	NaN
603.9593319999994	1.1395	sub-22	1	sequence	choice	choice	right	NaN	NaN	1.1050600999997189	True	NaN	NaN	right	True	5.0	4.0	4.0
605.0991126999998	0.4999	sub-22	1	sequence	feedback	NaN	NaN	NaN	NaN	NaN	NaN	NaN	NaN	NaN	NaN	NaN	NaN	NaN
605.5991329999997	1.0017	sub-22	1	sequence	cue	Katze	NaN	NaN	NaN	NaN	NaN	NaN	NaN	NaN	NaN	NaN	NaN	NaN
606.6008556999996	2.0006	sub-22	1	sequence	blank	blank	NaN	NaN	NaN	NaN	NaN	NaN	NaN	NaN	NaN	NaN	NaN	NaN
608.6015044999995	0.3002	sub-22	1	sequence	fixation	dot	NaN	NaN	NaN	NaN	NaN	NaN	NaN	NaN	NaN	NaN	NaN	NaN
608.9192618999996	0.0992	sub-22	1	sequence	stimulus	Gesicht	NaN	NaN	512.0	NaN	NaN	1.0	1.0	NaN	NaN	NaN	NaN	NaN
609.0184558000001	0.5171	sub-22	1	sequence	interval	dot	NaN	NaN	NaN	NaN	NaN	NaN	NaN	NaN	NaN	NaN	NaN	NaN
609.5355094999995	0.1	sub-22	1	sequence	stimulus	Stuhl	NaN	NaN	512.0	NaN	NaN	5.0	2.0	NaN	NaN	NaN	NaN	NaN
609.6354618999994	0.5172	sub-22	1	sequence	interval	dot	NaN	NaN	NaN	NaN	NaN	NaN	NaN	NaN	NaN	NaN	NaN	NaN
610.1526883999995	0.0999	sub-22	1	sequence	stimulus	Haus	NaN	NaN	512.0	NaN	NaN	2.0	3.0	NaN	NaN	NaN	NaN	NaN
610.2525968999998	0.5172	sub-22	1	sequence	interval	dot	NaN	NaN	NaN	NaN	NaN	NaN	NaN	NaN	NaN	NaN	NaN	NaN
610.7698387	0.1	sub-22	1	sequence	stimulus	Schuh	NaN	NaN	512.0	NaN	NaN	4.0	4.0	NaN	NaN	NaN	NaN	NaN
610.8697999999995	0.5171	sub-22	1	sequence	interval	dot	NaN	NaN	NaN	NaN	NaN	NaN	NaN	NaN	NaN	NaN	NaN	NaN
611.3869484999996	0.1	sub-22	1	sequence	stimulus	Katze	NaN	NaN	512.0	NaN	NaN	3.0	5.0	NaN	NaN	NaN	NaN	NaN
611.4869258999997	0.5171	sub-22	1	sequence	interval	dot	NaN	NaN	NaN	NaN	NaN	NaN	NaN	NaN	NaN	NaN	NaN	NaN
612.0040457999994	6.1365	sub-22	1	sequence	delay	dot	NaN	NaN	NaN	NaN	NaN	NaN	NaN	NaN	NaN	NaN	NaN	NaN
618.1284409999998	0.9316	sub-22	1	sequence	choice	choice	right	NaN	NaN	0.9115796999994928	True	NaN	NaN	right	True	4.0	5.0	5.0
619.0603047999994	0.4999	sub-22	1	sequence	feedback	NaN	NaN	NaN	NaN	NaN	NaN	NaN	NaN	NaN	NaN	NaN	NaN	NaN
619.5604880999999	1.0007	sub-22	1	sequence	cue	Haus	NaN	NaN	NaN	NaN	NaN	NaN	NaN	NaN	NaN	NaN	NaN	NaN
620.5611690999995	2.0015	sub-22	1	sequence	blank	blank	NaN	NaN	NaN	NaN	NaN	NaN	NaN	NaN	NaN	NaN	NaN	NaN
622.5626824999999	0.3003	sub-22	1	sequence	fixation	dot	NaN	NaN	NaN	NaN	NaN	NaN	NaN	NaN	NaN	NaN	NaN	NaN
622.8952443999997	0.1011	sub-22	1	sequence	stimulus	Katze	NaN	NaN	32.0	NaN	NaN	3.0	1.0	NaN	NaN	NaN	NaN	NaN
622.9963437999995	0.0335	sub-22	1	sequence	interval	dot	NaN	NaN	NaN	NaN	NaN	NaN	NaN	NaN	NaN	NaN	NaN	NaN
623.0298359999997	0.0999	sub-22	1	sequence	stimulus	Gesicht	NaN	NaN	32.0	NaN	NaN	1.0	2.0	NaN	NaN	NaN	NaN	NaN
623.1297130999992	0.0336	sub-22	1	sequence	interval	dot	NaN	NaN	NaN	NaN	NaN	NaN	NaN	NaN	NaN	NaN	NaN	NaN
623.1632805999998	0.1	sub-22	1	sequence	stimulus	Schuh	NaN	NaN	32.0	NaN	NaN	4.0	3.0	NaN	NaN	NaN	NaN	NaN
623.2632330999995	0.0335	sub-22	1	sequence	interval	dot	NaN	NaN	NaN	NaN	NaN	NaN	NaN	NaN	NaN	NaN	NaN	NaN
623.2967718	0.0999	sub-22	1	sequence	stimulus	Haus	NaN	NaN	32.0	NaN	NaN	2.0	4.0	NaN	NaN	NaN	NaN	NaN
623.3966455999998	0.0334	sub-22	1	sequence	interval	dot	NaN	NaN	NaN	NaN	NaN	NaN	NaN	NaN	NaN	NaN	NaN	NaN
623.4300831	0.1	sub-22	1	sequence	stimulus	Stuhl	NaN	NaN	32.0	NaN	NaN	5.0	5.0	NaN	NaN	NaN	NaN	NaN
623.5301157999993	0.0334	sub-22	1	sequence	interval	dot	NaN	NaN	NaN	NaN	NaN	NaN	NaN	NaN	NaN	NaN	NaN	NaN
623.5635339999999	8.5215	sub-22	1	sequence	delay	dot	NaN	NaN	NaN	NaN	NaN	NaN	NaN	NaN	NaN	NaN	NaN	NaN
632.0641089999999	1.3909	sub-22	1	sequence	choice	choice	right	NaN	NaN	1.359065499999815	True	NaN	NaN	right	True	5.0	4.0	4.0
633.4552205	0.4999	sub-22	1	sequence	feedback	NaN	NaN	NaN	NaN	NaN	NaN	NaN	NaN	NaN	NaN	NaN	NaN	NaN
633.9553065999999	1.0007	sub-22	1	sequence	cue	Gesicht	NaN	NaN	NaN	NaN	NaN	NaN	NaN	NaN	NaN	NaN	NaN	NaN
634.9559899999995	2.0017	sub-22	1	sequence	blank	blank	NaN	NaN	NaN	NaN	NaN	NaN	NaN	NaN	NaN	NaN	NaN	NaN
636.9576729999999	0.3002	sub-22	1	sequence	fixation	dot	NaN	NaN	NaN	NaN	NaN	NaN	NaN	NaN	NaN	NaN	NaN	NaN
637.2761420999996	0.1151	sub-22	1	sequence	stimulus	Schuh	NaN	NaN	128.0	NaN	NaN	4.0	1.0	NaN	NaN	NaN	NaN	NaN
637.3912573999996	0.1335	sub-22	1	sequence	interval	dot	NaN	NaN	NaN	NaN	NaN	NaN	NaN	NaN	NaN	NaN	NaN	NaN
637.5247962999993	0.1	sub-22	1	sequence	stimulus	Stuhl	NaN	NaN	128.0	NaN	NaN	5.0	2.0	NaN	NaN	NaN	NaN	NaN
637.6247794000001	0.1335	sub-22	1	sequence	interval	dot	NaN	NaN	NaN	NaN	NaN	NaN	NaN	NaN	NaN	NaN	NaN	NaN
637.7583257999995	0.1001	sub-22	1	sequence	stimulus	Katze	NaN	NaN	128.0	NaN	NaN	3.0	3.0	NaN	NaN	NaN	NaN	NaN
637.8584290999997	0.1334	sub-22	1	sequence	interval	dot	NaN	NaN	NaN	NaN	NaN	NaN	NaN	NaN	NaN	NaN	NaN	NaN
637.9918696999994	0.1	sub-22	1	sequence	stimulus	Haus	NaN	NaN	128.0	NaN	NaN	2.0	4.0	NaN	NaN	NaN	NaN	NaN
638.0918421999995	0.1335	sub-22	1	sequence	interval	dot	NaN	NaN	NaN	NaN	NaN	NaN	NaN	NaN	NaN	NaN	NaN	NaN
638.2253731999999	0.1	sub-22	1	sequence	stimulus	Gesicht	NaN	NaN	128.0	NaN	NaN	1.0	5.0	NaN	NaN	NaN	NaN	NaN
638.3254167999994	0.1334	sub-22	1	sequence	interval	dot	NaN	NaN	NaN	NaN	NaN	NaN	NaN	NaN	NaN	NaN	NaN	NaN
638.4587824	8.0548	sub-22	1	sequence	delay	dot	NaN	NaN	NaN	NaN	NaN	NaN	NaN	NaN	NaN	NaN	NaN	NaN
646.4938918999997	1.6898	sub-22	1	sequence	choice	choice	right	NaN	NaN	1.658505200000036	False	NaN	NaN	left	True	5.0	3.0	5.0
648.1839522999999	0.502	sub-22	1	sequence	feedback	NaN	NaN	NaN	NaN	NaN	NaN	NaN	NaN	NaN	NaN	NaN	NaN	NaN
648.6860798999996	1.0003	sub-22	1	sequence	cue	Schuh	NaN	NaN	NaN	NaN	NaN	NaN	NaN	NaN	NaN	NaN	NaN	NaN
649.6863524999999	2.0	sub-22	1	sequence	blank	blank	NaN	NaN	NaN	NaN	NaN	NaN	NaN	NaN	NaN	NaN	NaN	NaN
651.6863433999997	0.3001	sub-22	1	sequence	fixation	dot	NaN	NaN	NaN	NaN	NaN	NaN	NaN	NaN	NaN	NaN	NaN	NaN
652.0039500999992	0.0993	sub-22	1	sequence	stimulus	Katze	NaN	NaN	512.0	NaN	NaN	3.0	1.0	NaN	NaN	NaN	NaN	NaN
652.1032513	0.5172	sub-22	1	sequence	interval	dot	NaN	NaN	NaN	NaN	NaN	NaN	NaN	NaN	NaN	NaN	NaN	NaN
652.620484	0.1	sub-22	1	sequence	stimulus	Gesicht	NaN	NaN	512.0	NaN	NaN	1.0	2.0	NaN	NaN	NaN	NaN	NaN
652.7204643999994	0.5171	sub-22	1	sequence	interval	dot	NaN	NaN	NaN	NaN	NaN	NaN	NaN	NaN	NaN	NaN	NaN	NaN
653.2375652999999	0.1	sub-22	1	sequence	stimulus	Stuhl	NaN	NaN	512.0	NaN	NaN	5.0	3.0	NaN	NaN	NaN	NaN	NaN
653.3375177999997	0.5173	sub-22	1	sequence	interval	dot	NaN	NaN	NaN	NaN	NaN	NaN	NaN	NaN	NaN	NaN	NaN	NaN
653.8548438999997	0.0999	sub-22	1	sequence	stimulus	Haus	NaN	NaN	512.0	NaN	NaN	2.0	4.0	NaN	NaN	NaN	NaN	NaN
653.9547184999992	0.5172	sub-22	1	sequence	interval	dot	NaN	NaN	NaN	NaN	NaN	NaN	NaN	NaN	NaN	NaN	NaN	NaN
654.4718914999994	0.0999	sub-22	1	sequence	stimulus	Schuh	NaN	NaN	512.0	NaN	NaN	4.0	5.0	NaN	NaN	NaN	NaN	NaN
654.5718244	0.5172	sub-22	1	sequence	interval	dot	NaN	NaN	NaN	NaN	NaN	NaN	NaN	NaN	NaN	NaN	NaN	NaN
655.0890352999995	6.1362	sub-22	1	sequence	delay	dot	NaN	NaN	NaN	NaN	NaN	NaN	NaN	NaN	NaN	NaN	NaN	NaN
661.2095317999992	1.1689	sub-22	1	sequence	choice	choice	left	NaN	NaN	1.1469625999998243	True	NaN	NaN	left	True	5.0	4.0	5.0
662.3787045999998	0.4999	sub-22	1	sequence	feedback	NaN	NaN	NaN	NaN	NaN	NaN	NaN	NaN	NaN	NaN	NaN	NaN	NaN
662.8787634	1.0006	sub-22	1	sequence	cue	Gesicht	NaN	NaN	NaN	NaN	NaN	NaN	NaN	NaN	NaN	NaN	NaN	NaN
663.8794171999998	2.0016	sub-22	1	sequence	blank	blank	NaN	NaN	NaN	NaN	NaN	NaN	NaN	NaN	NaN	NaN	NaN	NaN
665.8810453999995	0.3003	sub-22	1	sequence	fixation	dot	NaN	NaN	NaN	NaN	NaN	NaN	NaN	NaN	NaN	NaN	NaN	NaN
666.1990349999996	0.099	sub-22	1	sequence	stimulus	Katze	NaN	NaN	32.0	NaN	NaN	3.0	1.0	NaN	NaN	NaN	NaN	NaN
666.2980159999997	0.0335	sub-22	1	sequence	interval	dot	NaN	NaN	NaN	NaN	NaN	NaN	NaN	NaN	NaN	NaN	NaN	NaN
666.3314839999994	0.1001	sub-22	1	sequence	stimulus	Gesicht	NaN	NaN	32.0	NaN	NaN	1.0	2.0	NaN	NaN	NaN	NaN	NaN
666.4316267999993	0.0333	sub-22	1	sequence	interval	dot	NaN	NaN	NaN	NaN	NaN	NaN	NaN	NaN	NaN	NaN	NaN	NaN
666.4649292999993	0.1	sub-22	1	sequence	stimulus	Haus	NaN	NaN	32.0	NaN	NaN	2.0	3.0	NaN	NaN	NaN	NaN	NaN
666.5649042999994	0.0335	sub-22	1	sequence	interval	dot	NaN	NaN	NaN	NaN	NaN	NaN	NaN	NaN	NaN	NaN	NaN	NaN
666.5983784999999	0.0999	sub-22	1	sequence	stimulus	Stuhl	NaN	NaN	32.0	NaN	NaN	5.0	4.0	NaN	NaN	NaN	NaN	NaN
666.6983264	0.0335	sub-22	1	sequence	interval	dot	NaN	NaN	NaN	NaN	NaN	NaN	NaN	NaN	NaN	NaN	NaN	NaN
666.7318407999992	0.0999	sub-22	1	sequence	stimulus	Schuh	NaN	NaN	32.0	NaN	NaN	4.0	5.0	NaN	NaN	NaN	NaN	NaN
666.8317766999999	0.0334	sub-22	1	sequence	interval	dot	NaN	NaN	NaN	NaN	NaN	NaN	NaN	NaN	NaN	NaN	NaN	NaN
666.8651373999992	8.5383	sub-22	1	sequence	delay	dot	NaN	NaN	NaN	NaN	NaN	NaN	NaN	NaN	NaN	NaN	NaN	NaN
675.3794124999995	2.0444	sub-22	1	sequence	choice	choice	left	NaN	NaN	2.008859400000801	True	NaN	NaN	left	True	2.0	5.0	2.0
677.4241087999999	0.5	sub-22	1	sequence	feedback	NaN	NaN	NaN	NaN	NaN	NaN	NaN	NaN	NaN	NaN	NaN	NaN	NaN
677.9242863	1.0006	sub-22	1	sequence	cue	Haus	NaN	NaN	NaN	NaN	NaN	NaN	NaN	NaN	NaN	NaN	NaN	NaN
678.9249077999993	2.0016	sub-22	1	sequence	blank	blank	NaN	NaN	NaN	NaN	NaN	NaN	NaN	NaN	NaN	NaN	NaN	NaN
680.9265284999992	0.3003	sub-22	1	sequence	fixation	dot	NaN	NaN	NaN	NaN	NaN	NaN	NaN	NaN	NaN	NaN	NaN	NaN
681.2451211999996	0.1151	sub-22	1	sequence	stimulus	Katze	NaN	NaN	128.0	NaN	NaN	3.0	1.0	NaN	NaN	NaN	NaN	NaN
681.3602096999994	0.1336	sub-22	1	sequence	interval	dot	NaN	NaN	NaN	NaN	NaN	NaN	NaN	NaN	NaN	NaN	NaN	NaN
681.4937934	0.0999	sub-22	1	sequence	stimulus	Haus	NaN	NaN	128.0	NaN	NaN	2.0	2.0	NaN	NaN	NaN	NaN	NaN
681.5937228999992	0.1336	sub-22	1	sequence	interval	dot	NaN	NaN	NaN	NaN	NaN	NaN	NaN	NaN	NaN	NaN	NaN	NaN
681.7272841999993	0.1	sub-22	1	sequence	stimulus	Schuh	NaN	NaN	128.0	NaN	NaN	4.0	3.0	NaN	NaN	NaN	NaN	NaN
681.8272577999996	0.1337	sub-22	1	sequence	interval	dot	NaN	NaN	NaN	NaN	NaN	NaN	NaN	NaN	NaN	NaN	NaN	NaN
681.9609533999992	0.1	sub-22	1	sequence	stimulus	Gesicht	NaN	NaN	128.0	NaN	NaN	1.0	4.0	NaN	NaN	NaN	NaN	NaN
682.0609097999995	0.1335	sub-22	1	sequence	interval	dot	NaN	NaN	NaN	NaN	NaN	NaN	NaN	NaN	NaN	NaN	NaN	NaN
682.1944488999998	0.0999	sub-22	1	sequence	stimulus	Stuhl	NaN	NaN	128.0	NaN	NaN	5.0	5.0	NaN	NaN	NaN	NaN	NaN
682.2943832999999	0.1333	sub-22	1	sequence	interval	dot	NaN	NaN	NaN	NaN	NaN	NaN	NaN	NaN	NaN	NaN	NaN	NaN
682.4277183999993	8.0715	sub-22	1	sequence	delay	dot	NaN	NaN	NaN	NaN	NaN	NaN	NaN	NaN	NaN	NaN	NaN	NaN
690.4849564999995	0.984	sub-22	1	sequence	choice	choice	right	NaN	NaN	0.953274099999362	True	NaN	NaN	right	True	5.0	2.0	2.0
691.4692104999995	0.4999	sub-22	1	sequence	feedback	NaN	NaN	NaN	NaN	NaN	NaN	NaN	NaN	NaN	NaN	NaN	NaN	NaN
695.7894575999999	0.4995	sub-22	1	localizer	stimulus	Stuhl	NaN	0	2.33506270000089	NaN	True	NaN	NaN	NaN	NaN	NaN	NaN	NaN
696.2724329999992	2.3351	sub-22	1	localizer	blank	interval	NaN	NaN	NaN	NaN	NaN	NaN	NaN	NaN	NaN	NaN	NaN	NaN
698.9086539	0.4995	sub-22	1	localizer	stimulus	Stuhl	NaN	180	1.7013747999999396	0.6394356999999218	True	NaN	NaN	NaN	NaN	NaN	NaN	NaN
699.3915738999995	1.7014	sub-22	1	localizer	blank	interval	NaN	NaN	NaN	NaN	NaN	NaN	NaN	NaN	NaN	NaN	NaN	NaN
701.3939805	0.4995	sub-22	1	localizer	stimulus	Haus	NaN	0	2.4351661000000604	NaN	True	NaN	NaN	NaN	NaN	NaN	NaN	NaN
701.8769570999993	2.4352	sub-22	1	localizer	blank	interval	NaN	NaN	NaN	NaN	NaN	NaN	NaN	NaN	NaN	NaN	NaN	NaN
704.6132536999994	0.4995	sub-22	1	localizer	stimulus	Schuh	NaN	0	2.3351246000001993	NaN	True	NaN	NaN	NaN	NaN	NaN	NaN	NaN
705.0963020999998	2.3351	sub-22	1	localizer	blank	interval	NaN	NaN	NaN	NaN	NaN	NaN	NaN	NaN	NaN	NaN	NaN	NaN
707.7324097999999	0.4996	sub-22	1	localizer	stimulus	Schuh	NaN	0	2.23512589999973	NaN	True	NaN	NaN	NaN	NaN	NaN	NaN	NaN
708.2154106999997	2.2351	sub-22	1	localizer	blank	interval	NaN	NaN	NaN	NaN	NaN	NaN	NaN	NaN	NaN	NaN	NaN	NaN
710.7516001999993	0.4996	sub-22	1	localizer	stimulus	Stuhl	NaN	0	2.9354257999993933	NaN	True	NaN	NaN	NaN	NaN	NaN	NaN	NaN
711.2346926	2.9354	sub-22	1	localizer	blank	interval	NaN	NaN	NaN	NaN	NaN	NaN	NaN	NaN	NaN	NaN	NaN	NaN
714.4712208000001	0.4995	sub-22	1	localizer	stimulus	Katze	NaN	0	2.5854038000006767	NaN	True	NaN	NaN	NaN	NaN	NaN	NaN	NaN
714.9541857999993	2.5854	sub-22	1	localizer	blank	interval	NaN	NaN	NaN	NaN	NaN	NaN	NaN	NaN	NaN	NaN	NaN	NaN
717.8406004999997	0.4996	sub-22	1	localizer	stimulus	Gesicht	NaN	180	2.2683250000000044	0.5875038999993194	True	NaN	NaN	NaN	NaN	NaN	NaN	NaN
718.3236652999994	2.2683	sub-22	1	localizer	blank	interval	NaN	NaN	NaN	NaN	NaN	NaN	NaN	NaN	NaN	NaN	NaN	NaN
720.8931463999998	0.4994	sub-22	1	localizer	stimulus	Haus	NaN	0	3.786229800000001	NaN	True	NaN	NaN	NaN	NaN	NaN	NaN	NaN
721.3760993999995	3.7862	sub-22	1	localizer	blank	interval	NaN	NaN	NaN	NaN	NaN	NaN	NaN	NaN	NaN	NaN	NaN	NaN
725.4634499999993	0.4995	sub-22	1	localizer	stimulus	Stuhl	NaN	0	3.0857278000003134	NaN	True	NaN	NaN	NaN	NaN	NaN	NaN	NaN
725.9464169999992	3.0857	sub-22	1	localizer	blank	interval	NaN	NaN	NaN	NaN	NaN	NaN	NaN	NaN	NaN	NaN	NaN	NaN
729.3332636999994	0.4995	sub-22	1	localizer	stimulus	Schuh	NaN	0	2.9356936999993195	NaN	True	NaN	NaN	NaN	NaN	NaN	NaN	NaN
729.8162419	2.9357	sub-22	1	localizer	blank	interval	NaN	NaN	NaN	NaN	NaN	NaN	NaN	NaN	NaN	NaN	NaN	NaN
733.0530534	0.4996	sub-22	1	localizer	stimulus	Katze	NaN	0	2.3349545000000944	NaN	True	NaN	NaN	NaN	NaN	NaN	NaN	NaN
733.5360551999993	2.335	sub-22	1	localizer	blank	interval	NaN	NaN	NaN	NaN	NaN	NaN	NaN	NaN	NaN	NaN	NaN	NaN
736.1721455999996	0.4995	sub-22	1	localizer	stimulus	Schuh	NaN	0	2.7689282000001185	NaN	True	NaN	NaN	NaN	NaN	NaN	NaN	NaN
736.6551	2.7689	sub-22	1	localizer	blank	interval	NaN	NaN	NaN	NaN	NaN	NaN	NaN	NaN	NaN	NaN	NaN	NaN
739.7250894999997	0.4995	sub-22	1	localizer	stimulus	Gesicht	NaN	0	2.268360500000199	NaN	True	NaN	NaN	NaN	NaN	NaN	NaN	NaN
740.2079816999994	2.2684	sub-22	1	localizer	blank	interval	NaN	NaN	NaN	NaN	NaN	NaN	NaN	NaN	NaN	NaN	NaN	NaN
742.7774670999997	0.4995	sub-22	1	localizer	stimulus	Stuhl	NaN	0	2.1515193999994153	NaN	True	NaN	NaN	NaN	NaN	NaN	NaN	NaN
743.2605371	2.1515	sub-22	1	localizer	blank	interval	NaN	NaN	NaN	NaN	NaN	NaN	NaN	NaN	NaN	NaN	NaN	NaN
745.7132115999993	0.4995	sub-22	1	localizer	stimulus	Gesicht	NaN	0	1.9181023000001005	NaN	True	NaN	NaN	NaN	NaN	NaN	NaN	NaN
746.1962083999997	1.9181	sub-22	1	localizer	blank	interval	NaN	NaN	NaN	NaN	NaN	NaN	NaN	NaN	NaN	NaN	NaN	NaN
748.4153522999995	0.4998	sub-22	1	localizer	stimulus	Gesicht	NaN	0	2.6353689999996277	NaN	True	NaN	NaN	NaN	NaN	NaN	NaN	NaN
748.8983529999996	2.6354	sub-22	1	localizer	blank	interval	NaN	NaN	NaN	NaN	NaN	NaN	NaN	NaN	NaN	NaN	NaN	NaN
751.8349886999995	0.4995	sub-22	1	localizer	stimulus	Schuh	NaN	180	2.8856417999995756	0.6171454999994239	True	NaN	NaN	NaN	NaN	NaN	NaN	NaN
752.3178970999998	2.8856	sub-22	1	localizer	blank	interval	NaN	NaN	NaN	NaN	NaN	NaN	NaN	NaN	NaN	NaN	NaN	NaN
755.5046667999995	0.4994	sub-22	1	localizer	stimulus	Haus	NaN	0	2.7019102999993265	NaN	True	NaN	NaN	NaN	NaN	NaN	NaN	NaN
755.9875849	2.7019	sub-22	1	localizer	blank	interval	NaN	NaN	NaN	NaN	NaN	NaN	NaN	NaN	NaN	NaN	NaN	NaN
758.9906379999993	0.4995	sub-22	1	localizer	stimulus	Haus	NaN	180	3.3525910999996995	0.7174901999997019	True	NaN	NaN	NaN	NaN	NaN	NaN	NaN
759.4735954999996	3.3526	sub-22	1	localizer	blank	interval	NaN	NaN	NaN	NaN	NaN	NaN	NaN	NaN	NaN	NaN	NaN	NaN
763.1272976999999	0.4995	sub-22	1	localizer	stimulus	Gesicht	NaN	0	2.9020989999999074	NaN	True	NaN	NaN	NaN	NaN	NaN	NaN	NaN
763.6103944999995	2.9021	sub-22	1	localizer	blank	interval	NaN	NaN	NaN	NaN	NaN	NaN	NaN	NaN	NaN	NaN	NaN	NaN
766.8136384999998	0.4995	sub-22	1	localizer	stimulus	Katze	NaN	0	2.518597699999191	NaN	True	NaN	NaN	NaN	NaN	NaN	NaN	NaN
767.2966047	2.5186	sub-22	1	localizer	blank	interval	NaN	NaN	NaN	NaN	NaN	NaN	NaN	NaN	NaN	NaN	NaN	NaN
770.1163239999996	0.4995	sub-22	1	localizer	stimulus	Haus	NaN	0	1.9514994999999544	NaN	True	NaN	NaN	NaN	NaN	NaN	NaN	NaN
770.5992808999999	1.9515	sub-22	1	localizer	blank	interval	NaN	NaN	NaN	NaN	NaN	NaN	NaN	NaN	NaN	NaN	NaN	NaN
772.8519725999995	0.4995	sub-22	1	localizer	stimulus	Katze	NaN	180	2.285092199999781	0.6082022999999026	True	NaN	NaN	NaN	NaN	NaN	NaN	NaN
773.3349552	2.2851	sub-22	1	localizer	blank	interval	NaN	NaN	NaN	NaN	NaN	NaN	NaN	NaN	NaN	NaN	NaN	NaN
775.9213309999996	0.4994	sub-22	1	localizer	stimulus	Katze	NaN	0	2.6351622000001953	NaN	True	NaN	NaN	NaN	NaN	NaN	NaN	NaN
776.4041469999993	2.6352	sub-22	1	localizer	blank	interval	NaN	NaN	NaN	NaN	NaN	NaN	NaN	NaN	NaN	NaN	NaN	NaN
782.5258039999999	1.0006	sub-22	1	sequence	cue	Schuh	NaN	NaN	NaN	NaN	NaN	NaN	NaN	NaN	NaN	NaN	NaN	NaN
783.5263648	2.0016	sub-22	1	sequence	blank	blank	NaN	NaN	NaN	NaN	NaN	NaN	NaN	NaN	NaN	NaN	NaN	NaN
785.5279237999994	0.3003	sub-22	1	sequence	fixation	dot	NaN	NaN	NaN	NaN	NaN	NaN	NaN	NaN	NaN	NaN	NaN	NaN
785.8470438999993	0.1145	sub-22	1	sequence	stimulus	Katze	NaN	NaN	128.0	NaN	NaN	3.0	1.0	NaN	NaN	NaN	NaN	NaN
785.9615836999992	0.1336	sub-22	1	sequence	interval	dot	NaN	NaN	NaN	NaN	NaN	NaN	NaN	NaN	NaN	NaN	NaN	NaN
786.0951789000001	0.1	sub-22	1	sequence	stimulus	Haus	NaN	NaN	128.0	NaN	NaN	2.0	2.0	NaN	NaN	NaN	NaN	NaN
786.1951369999997	0.1335	sub-22	1	sequence	interval	dot	NaN	NaN	NaN	NaN	NaN	NaN	NaN	NaN	NaN	NaN	NaN	NaN
786.3286865	0.1	sub-22	1	sequence	stimulus	Schuh	NaN	NaN	128.0	NaN	NaN	4.0	3.0	NaN	NaN	NaN	NaN	NaN
786.4286429999993	0.1336	sub-22	1	sequence	interval	dot	NaN	NaN	NaN	NaN	NaN	NaN	NaN	NaN	NaN	NaN	NaN	NaN
786.5622144999998	0.1	sub-22	1	sequence	stimulus	Gesicht	NaN	NaN	128.0	NaN	NaN	1.0	4.0	NaN	NaN	NaN	NaN	NaN
786.662171	0.1336	sub-22	1	sequence	interval	dot	NaN	NaN	NaN	NaN	NaN	NaN	NaN	NaN	NaN	NaN	NaN	NaN
786.7957407999993	0.1	sub-22	1	sequence	stimulus	Stuhl	NaN	NaN	128.0	NaN	NaN	5.0	5.0	NaN	NaN	NaN	NaN	NaN
786.8956978999995	0.1335	sub-22	1	sequence	interval	dot	NaN	NaN	NaN	NaN	NaN	NaN	NaN	NaN	NaN	NaN	NaN	NaN
787.0291651999996	8.0715	sub-22	1	sequence	delay	dot	NaN	NaN	NaN	NaN	NaN	NaN	NaN	NaN	NaN	NaN	NaN	NaN
795.0808006999996	1.6566	sub-22	1	sequence	choice	choice	right	NaN	NaN	1.6236593999992692	True	NaN	NaN	right	True	4.0	3.0	3.0
796.7378008999995	0.4999	sub-22	1	sequence	feedback	NaN	NaN	NaN	NaN	NaN	NaN	NaN	NaN	NaN	NaN	NaN	NaN	NaN
797.2378634999995	1.0006	sub-22	1	sequence	cue	Schuh	NaN	NaN	NaN	NaN	NaN	NaN	NaN	NaN	NaN	NaN	NaN	NaN
798.2384272999998	2.0014	sub-22	1	sequence	blank	blank	NaN	NaN	NaN	NaN	NaN	NaN	NaN	NaN	NaN	NaN	NaN	NaN
800.2398612999996	0.3003	sub-22	1	sequence	fixation	dot	NaN	NaN	NaN	NaN	NaN	NaN	NaN	NaN	NaN	NaN	NaN	NaN
800.5575973999994	0.0992	sub-22	1	sequence	stimulus	Stuhl	NaN	NaN	64.0	NaN	NaN	5.0	1.0	NaN	NaN	NaN	NaN	NaN
800.6568385	0.0669	sub-22	1	sequence	interval	dot	NaN	NaN	NaN	NaN	NaN	NaN	NaN	NaN	NaN	NaN	NaN	NaN
800.7237597999992	0.0999	sub-22	1	sequence	stimulus	Katze	NaN	NaN	64.0	NaN	NaN	3.0	2.0	NaN	NaN	NaN	NaN	NaN
800.8236338999995	0.0669	sub-22	1	sequence	interval	dot	NaN	NaN	NaN	NaN	NaN	NaN	NaN	NaN	NaN	NaN	NaN	NaN
800.8905418999993	0.1003	sub-22	1	sequence	stimulus	Schuh	NaN	NaN	64.0	NaN	NaN	4.0	3.0	NaN	NaN	NaN	NaN	NaN
800.9907923000001	0.0666	sub-22	1	sequence	interval	dot	NaN	NaN	NaN	NaN	NaN	NaN	NaN	NaN	NaN	NaN	NaN	NaN
801.0573860999993	0.0999	sub-22	1	sequence	stimulus	Gesicht	NaN	NaN	64.0	NaN	NaN	1.0	4.0	NaN	NaN	NaN	NaN	NaN
801.1572845000001	0.0669	sub-22	1	sequence	interval	dot	NaN	NaN	NaN	NaN	NaN	NaN	NaN	NaN	NaN	NaN	NaN	NaN
801.2241738999992	0.1	sub-22	1	sequence	stimulus	Haus	NaN	NaN	64.0	NaN	NaN	2.0	5.0	NaN	NaN	NaN	NaN	NaN
801.3241402999993	0.0668	sub-22	1	sequence	interval	dot	NaN	NaN	NaN	NaN	NaN	NaN	NaN	NaN	NaN	NaN	NaN	NaN
801.3909061999993	8.3715	sub-22	1	sequence	delay	dot	NaN	NaN	NaN	NaN	NaN	NaN	NaN	NaN	NaN	NaN	NaN	NaN
809.7445132999992	1.0542	sub-22	1	sequence	choice	choice	left	NaN	NaN	1.0259426999991774	True	NaN	NaN	left	True	3.0	5.0	3.0
810.7989923999994	0.4998	sub-22	1	sequence	feedback	NaN	NaN	NaN	NaN	NaN	NaN	NaN	NaN	NaN	NaN	NaN	NaN	NaN
811.2989613999998	1.0007	sub-22	1	sequence	cue	Stuhl	NaN	NaN	NaN	NaN	NaN	NaN	NaN	NaN	NaN	NaN	NaN	NaN
812.2996438999999	2.0016	sub-22	1	sequence	blank	blank	NaN	NaN	NaN	NaN	NaN	NaN	NaN	NaN	NaN	NaN	NaN	NaN
814.3012536999995	0.3003	sub-22	1	sequence	fixation	dot	NaN	NaN	NaN	NaN	NaN	NaN	NaN	NaN	NaN	NaN	NaN	NaN
814.6192930999996	0.099	sub-22	1	sequence	stimulus	Katze	NaN	NaN	32.0	NaN	NaN	3.0	1.0	NaN	NaN	NaN	NaN	NaN
814.7182559999992	0.0335	sub-22	1	sequence	interval	dot	NaN	NaN	NaN	NaN	NaN	NaN	NaN	NaN	NaN	NaN	NaN	NaN
814.7517615999996	0.1	sub-22	1	sequence	stimulus	Gesicht	NaN	NaN	32.0	NaN	NaN	1.0	2.0	NaN	NaN	NaN	NaN	NaN
814.8517293999994	0.0335	sub-22	1	sequence	interval	dot	NaN	NaN	NaN	NaN	NaN	NaN	NaN	NaN	NaN	NaN	NaN	NaN
814.8852246999995	0.1	sub-22	1	sequence	stimulus	Schuh	NaN	NaN	32.0	NaN	NaN	4.0	3.0	NaN	NaN	NaN	NaN	NaN
814.9852615999998	0.0335	sub-22	1	sequence	interval	dot	NaN	NaN	NaN	NaN	NaN	NaN	NaN	NaN	NaN	NaN	NaN	NaN
815.0187412999994	0.0999	sub-22	1	sequence	stimulus	Haus	NaN	NaN	32.0	NaN	NaN	2.0	4.0	NaN	NaN	NaN	NaN	NaN
815.1186545999999	0.0335	sub-22	1	sequence	interval	dot	NaN	NaN	NaN	NaN	NaN	NaN	NaN	NaN	NaN	NaN	NaN	NaN
815.1521537999997	0.1	sub-22	1	sequence	stimulus	Stuhl	NaN	NaN	32.0	NaN	NaN	5.0	5.0	NaN	NaN	NaN	NaN	NaN
815.2521056999994	0.0334	sub-22	1	sequence	interval	dot	NaN	NaN	NaN	NaN	NaN	NaN	NaN	NaN	NaN	NaN	NaN	NaN
815.2854821000001	8.5217	sub-22	1	sequence	delay	dot	NaN	NaN	NaN	NaN	NaN	NaN	NaN	NaN	NaN	NaN	NaN	NaN
823.7843094	1.7095	sub-22	1	sequence	choice	choice	left	NaN	NaN	1.6772601000002396	False	NaN	NaN	right	True	4.0	5.0	5.0
825.4940981	0.5001	sub-22	1	sequence	feedback	NaN	NaN	NaN	NaN	NaN	NaN	NaN	NaN	NaN	NaN	NaN	NaN	NaN
825.9944016	1.0005	sub-22	1	sequence	cue	Katze	NaN	NaN	NaN	NaN	NaN	NaN	NaN	NaN	NaN	NaN	NaN	NaN
826.9948705999996	2.0016	sub-22	1	sequence	blank	blank	NaN	NaN	NaN	NaN	NaN	NaN	NaN	NaN	NaN	NaN	NaN	NaN
828.9964600999992	0.3004	sub-22	1	sequence	fixation	dot	NaN	NaN	NaN	NaN	NaN	NaN	NaN	NaN	NaN	NaN	NaN	NaN
829.3150218000001	0.1151	sub-22	1	sequence	stimulus	Stuhl	NaN	NaN	64.0	NaN	NaN	5.0	1.0	NaN	NaN	NaN	NaN	NaN
829.4301587	0.0668	sub-22	1	sequence	interval	dot	NaN	NaN	NaN	NaN	NaN	NaN	NaN	NaN	NaN	NaN	NaN	NaN
829.4969734999995	0.1	sub-22	1	sequence	stimulus	Schuh	NaN	NaN	64.0	NaN	NaN	4.0	2.0	NaN	NaN	NaN	NaN	NaN
829.5969390999999	0.0669	sub-22	1	sequence	interval	dot	NaN	NaN	NaN	NaN	NaN	NaN	NaN	NaN	NaN	NaN	NaN	NaN
829.6638321999999	0.1001	sub-22	1	sequence	stimulus	Haus	NaN	NaN	64.0	NaN	NaN	2.0	3.0	NaN	NaN	NaN	NaN	NaN
829.7639507999993	0.0667	sub-22	1	sequence	interval	dot	NaN	NaN	NaN	NaN	NaN	NaN	NaN	NaN	NaN	NaN	NaN	NaN
829.8306015999997	0.1	sub-22	1	sequence	stimulus	Katze	NaN	NaN	64.0	NaN	NaN	3.0	4.0	NaN	NaN	NaN	NaN	NaN
829.9306331999996	0.0668	sub-22	1	sequence	interval	dot	NaN	NaN	NaN	NaN	NaN	NaN	NaN	NaN	NaN	NaN	NaN	NaN
829.9973934999998	0.1	sub-22	1	sequence	stimulus	Gesicht	NaN	NaN	64.0	NaN	NaN	1.0	5.0	NaN	NaN	NaN	NaN	NaN
830.0974167999993	0.0668	sub-22	1	sequence	interval	dot	NaN	NaN	NaN	NaN	NaN	NaN	NaN	NaN	NaN	NaN	NaN	NaN
830.1641931999993	8.3884	sub-22	1	sequence	delay	dot	NaN	NaN	NaN	NaN	NaN	NaN	NaN	NaN	NaN	NaN	NaN	NaN
838.5258675999994	1.5131	sub-22	1	sequence	choice	choice	right	NaN	NaN	1.4757360000003246	False	NaN	NaN	left	True	4.0	3.0	4.0
840.0392581999995	0.5	sub-22	1	sequence	feedback	NaN	NaN	NaN	NaN	NaN	NaN	NaN	NaN	NaN	NaN	NaN	NaN	NaN
840.5394173999994	1.0007	sub-22	1	sequence	cue	Stuhl	NaN	NaN	NaN	NaN	NaN	NaN	NaN	NaN	NaN	NaN	NaN	NaN
841.5401199999997	2.0016	sub-22	1	sequence	blank	blank	NaN	NaN	NaN	NaN	NaN	NaN	NaN	NaN	NaN	NaN	NaN	NaN
843.5417344999996	0.3001	sub-22	1	sequence	fixation	dot	NaN	NaN	NaN	NaN	NaN	NaN	NaN	NaN	NaN	NaN	NaN	NaN
843.8594129999992	0.0992	sub-22	1	sequence	stimulus	Katze	NaN	NaN	512.0	NaN	NaN	3.0	1.0	NaN	NaN	NaN	NaN	NaN
843.9585645999996	0.5172	sub-22	1	sequence	interval	dot	NaN	NaN	NaN	NaN	NaN	NaN	NaN	NaN	NaN	NaN	NaN	NaN
844.4757768999998	0.1	sub-22	1	sequence	stimulus	Gesicht	NaN	NaN	512.0	NaN	NaN	1.0	2.0	NaN	NaN	NaN	NaN	NaN
844.5757434999996	0.5172	sub-22	1	sequence	interval	dot	NaN	NaN	NaN	NaN	NaN	NaN	NaN	NaN	NaN	NaN	NaN	NaN
845.0929355999997	0.1	sub-22	1	sequence	stimulus	Stuhl	NaN	NaN	512.0	NaN	NaN	5.0	3.0	NaN	NaN	NaN	NaN	NaN
845.1929203	0.5172	sub-22	1	sequence	interval	dot	NaN	NaN	NaN	NaN	NaN	NaN	NaN	NaN	NaN	NaN	NaN	NaN
845.7101171999993	0.1	sub-22	1	sequence	stimulus	Haus	NaN	NaN	512.0	NaN	NaN	2.0	4.0	NaN	NaN	NaN	NaN	NaN
845.8100771999998	0.5172	sub-22	1	sequence	interval	dot	NaN	NaN	NaN	NaN	NaN	NaN	NaN	NaN	NaN	NaN	NaN	NaN
846.3272749999996	0.1001	sub-22	1	sequence	stimulus	Schuh	NaN	NaN	512.0	NaN	NaN	4.0	5.0	NaN	NaN	NaN	NaN	NaN
846.4273581999996	0.5171	sub-22	1	sequence	interval	dot	NaN	NaN	NaN	NaN	NaN	NaN	NaN	NaN	NaN	NaN	NaN	NaN
846.9444807	6.1698	sub-22	1	sequence	delay	dot	NaN	NaN	NaN	NaN	NaN	NaN	NaN	NaN	NaN	NaN	NaN	NaN
853.0856588999995	1.0148	sub-22	1	sequence	choice	choice	right	NaN	NaN	0.9860219000001962	True	NaN	NaN	right	True	2.0	3.0	3.0
854.1007219999992	0.4999	sub-22	1	sequence	feedback	NaN	NaN	NaN	NaN	NaN	NaN	NaN	NaN	NaN	NaN	NaN	NaN	NaN
854.6007709999994	1.0007	sub-22	1	sequence	cue	Gesicht	NaN	NaN	NaN	NaN	NaN	NaN	NaN	NaN	NaN	NaN	NaN	NaN
855.6014823999994	2.0018	sub-22	1	sequence	blank	blank	NaN	NaN	NaN	NaN	NaN	NaN	NaN	NaN	NaN	NaN	NaN	NaN
857.6032479999994	0.3001	sub-22	1	sequence	fixation	dot	NaN	NaN	NaN	NaN	NaN	NaN	NaN	NaN	NaN	NaN	NaN	NaN
857.920881	0.0992	sub-22	1	sequence	stimulus	Schuh	NaN	NaN	128.0	NaN	NaN	4.0	1.0	NaN	NaN	NaN	NaN	NaN
858.0201156999992	0.1335	sub-22	1	sequence	interval	dot	NaN	NaN	NaN	NaN	NaN	NaN	NaN	NaN	NaN	NaN	NaN	NaN
858.1536412999994	0.1	sub-22	1	sequence	stimulus	Stuhl	NaN	NaN	128.0	NaN	NaN	5.0	2.0	NaN	NaN	NaN	NaN	NaN
858.2536055	0.1335	sub-22	1	sequence	interval	dot	NaN	NaN	NaN	NaN	NaN	NaN	NaN	NaN	NaN	NaN	NaN	NaN
858.3871466	0.1168	sub-22	1	sequence	stimulus	Katze	NaN	NaN	128.0	NaN	NaN	3.0	3.0	NaN	NaN	NaN	NaN	NaN
858.5039152999998	0.1334	sub-22	1	sequence	interval	dot	NaN	NaN	NaN	NaN	NaN	NaN	NaN	NaN	NaN	NaN	NaN	NaN
858.6373612999996	0.1	sub-22	1	sequence	stimulus	Haus	NaN	NaN	128.0	NaN	NaN	2.0	4.0	NaN	NaN	NaN	NaN	NaN
858.7373220999998	0.1336	sub-22	1	sequence	interval	dot	NaN	NaN	NaN	NaN	NaN	NaN	NaN	NaN	NaN	NaN	NaN	NaN
858.8708935999994	0.1	sub-22	1	sequence	stimulus	Gesicht	NaN	NaN	128.0	NaN	NaN	1.0	5.0	NaN	NaN	NaN	NaN	NaN
858.9708627	0.1335	sub-22	1	sequence	interval	dot	NaN	NaN	NaN	NaN	NaN	NaN	NaN	NaN	NaN	NaN	NaN	NaN
859.1043704999993	8.0713	sub-22	1	sequence	delay	dot	NaN	NaN	NaN	NaN	NaN	NaN	NaN	NaN	NaN	NaN	NaN	NaN
867.1513476999999	2.1947	sub-22	1	sequence	choice	choice	right	NaN	NaN	2.156768999999258	False	NaN	NaN	left	True	5.0	3.0	5.0
869.3463445999996	0.5	sub-22	1	sequence	feedback	NaN	NaN	NaN	NaN	NaN	NaN	NaN	NaN	NaN	NaN	NaN	NaN	NaN
869.8465628999993	1.0005	sub-22	1	sequence	cue	Katze	NaN	NaN	NaN	NaN	NaN	NaN	NaN	NaN	NaN	NaN	NaN	NaN
870.8470377999993	2.0017	sub-22	1	sequence	blank	blank	NaN	NaN	NaN	NaN	NaN	NaN	NaN	NaN	NaN	NaN	NaN	NaN
872.8486975999995	0.3002	sub-22	1	sequence	fixation	dot	NaN	NaN	NaN	NaN	NaN	NaN	NaN	NaN	NaN	NaN	NaN	NaN
873.1672051999994	0.1151	sub-22	1	sequence	stimulus	Gesicht	NaN	NaN	512.0	NaN	NaN	1.0	1.0	NaN	NaN	NaN	NaN	NaN
873.2823340999994	0.5172	sub-22	1	sequence	interval	dot	NaN	NaN	NaN	NaN	NaN	NaN	NaN	NaN	NaN	NaN	NaN	NaN
873.7994878	0.1	sub-22	1	sequence	stimulus	Stuhl	NaN	NaN	512.0	NaN	NaN	5.0	2.0	NaN	NaN	NaN	NaN	NaN
873.8995296999992	0.5172	sub-22	1	sequence	interval	dot	NaN	NaN	NaN	NaN	NaN	NaN	NaN	NaN	NaN	NaN	NaN	NaN
874.4166964999995	0.1	sub-22	1	sequence	stimulus	Haus	NaN	NaN	512.0	NaN	NaN	2.0	3.0	NaN	NaN	NaN	NaN	NaN
874.5166482999994	0.5172	sub-22	1	sequence	interval	dot	NaN	NaN	NaN	NaN	NaN	NaN	NaN	NaN	NaN	NaN	NaN	NaN
875.0338502999994	0.1	sub-22	1	sequence	stimulus	Schuh	NaN	NaN	512.0	NaN	NaN	4.0	4.0	NaN	NaN	NaN	NaN	NaN
875.1338220999996	0.5172	sub-22	1	sequence	interval	dot	NaN	NaN	NaN	NaN	NaN	NaN	NaN	NaN	NaN	NaN	NaN	NaN
875.6510208999998	0.1002	sub-22	1	sequence	stimulus	Katze	NaN	NaN	512.0	NaN	NaN	3.0	5.0	NaN	NaN	NaN	NaN	NaN
875.7512495000001	0.517	sub-22	1	sequence	interval	dot	NaN	NaN	NaN	NaN	NaN	NaN	NaN	NaN	NaN	NaN	NaN	NaN
876.2682288999995	6.1364	sub-22	1	sequence	delay	dot	NaN	NaN	NaN	NaN	NaN	NaN	NaN	NaN	NaN	NaN	NaN	NaN
882.3870084999999	0.937	sub-22	1	sequence	choice	choice	left	NaN	NaN	0.9038221000000703	True	NaN	NaN	left	True	5.0	4.0	5.0
883.3242731	0.5	sub-22	1	sequence	feedback	NaN	NaN	NaN	NaN	NaN	NaN	NaN	NaN	NaN	NaN	NaN	NaN	NaN
883.8245133999999	1.0005	sub-22	1	sequence	cue	Haus	NaN	NaN	NaN	NaN	NaN	NaN	NaN	NaN	NaN	NaN	NaN	NaN
884.8250486999996	2.0016	sub-22	1	sequence	blank	blank	NaN	NaN	NaN	NaN	NaN	NaN	NaN	NaN	NaN	NaN	NaN	NaN
886.8266469999999	0.3004	sub-22	1	sequence	fixation	dot	NaN	NaN	NaN	NaN	NaN	NaN	NaN	NaN	NaN	NaN	NaN	NaN
887.1444355999993	0.0992	sub-22	1	sequence	stimulus	Katze	NaN	NaN	32.0	NaN	NaN	3.0	1.0	NaN	NaN	NaN	NaN	NaN
887.2436466999998	0.0335	sub-22	1	sequence	interval	dot	NaN	NaN	NaN	NaN	NaN	NaN	NaN	NaN	NaN	NaN	NaN	NaN
887.2771168999998	0.0999	sub-22	1	sequence	stimulus	Gesicht	NaN	NaN	32.0	NaN	NaN	1.0	2.0	NaN	NaN	NaN	NaN	NaN
887.3770627999993	0.0336	sub-22	1	sequence	interval	dot	NaN	NaN	NaN	NaN	NaN	NaN	NaN	NaN	NaN	NaN	NaN	NaN
887.4106261999996	0.0999	sub-22	1	sequence	stimulus	Haus	NaN	NaN	32.0	NaN	NaN	2.0	3.0	NaN	NaN	NaN	NaN	NaN
887.5105205999998	0.0335	sub-22	1	sequence	interval	dot	NaN	NaN	NaN	NaN	NaN	NaN	NaN	NaN	NaN	NaN	NaN	NaN
887.5439997999993	0.1	sub-22	1	sequence	stimulus	Stuhl	NaN	NaN	32.0	NaN	NaN	5.0	4.0	NaN	NaN	NaN	NaN	NaN
887.6439972999997	0.0334	sub-22	1	sequence	interval	dot	NaN	NaN	NaN	NaN	NaN	NaN	NaN	NaN	NaN	NaN	NaN	NaN
887.6774289999994	0.1	sub-22	1	sequence	stimulus	Schuh	NaN	NaN	32.0	NaN	NaN	4.0	5.0	NaN	NaN	NaN	NaN	NaN
887.7773970999997	0.0334	sub-22	1	sequence	interval	dot	NaN	NaN	NaN	NaN	NaN	NaN	NaN	NaN	NaN	NaN	NaN	NaN
887.810829	8.5218	sub-22	1	sequence	delay	dot	NaN	NaN	NaN	NaN	NaN	NaN	NaN	NaN	NaN	NaN	NaN	NaN
896.3228240999997	1.5963	sub-22	1	sequence	choice	choice	left	NaN	NaN	1.5837293000004138	False	NaN	NaN	right	True	2.0	3.0	3.0
897.9193875000001	0.5	sub-22	1	sequence	feedback	NaN	NaN	NaN	NaN	NaN	NaN	NaN	NaN	NaN	NaN	NaN	NaN	NaN
898.4197316999998	23.3021	sub-22	1	other	break	break	NaN	NaN	NaN	NaN	NaN	NaN	NaN	NaN	NaN	NaN	NaN	NaN
925.5421957	0.4995	sub-22	1	localizer	stimulus	Katze	NaN	180	3.0858737999997174	0.98229850000007	True	NaN	NaN	NaN	NaN	NaN	NaN	NaN
926.041682	3.0859	sub-22	1	localizer	blank	interval	NaN	NaN	NaN	NaN	NaN	NaN	NaN	NaN	NaN	NaN	NaN	NaN
929.4286797999994	0.4995	sub-22	1	localizer	stimulus	Schuh	NaN	0	3.219183399999565	NaN	True	NaN	NaN	NaN	NaN	NaN	NaN	NaN
929.9116144999998	3.2192	sub-22	1	localizer	blank	interval	NaN	NaN	NaN	NaN	NaN	NaN	NaN	NaN	NaN	NaN	NaN	NaN
933.4319256	0.4995	sub-22	1	localizer	stimulus	Katze	NaN	0	3.069038399999954	NaN	True	NaN	NaN	NaN	NaN	NaN	NaN	NaN
933.9148683999992	3.069	sub-22	1	localizer	blank	interval	NaN	NaN	NaN	NaN	NaN	NaN	NaN	NaN	NaN	NaN	NaN	NaN
937.2850419999996	0.4994	sub-22	1	localizer	stimulus	Gesicht	NaN	0	3.4194456999994145	NaN	True	NaN	NaN	NaN	NaN	NaN	NaN	NaN
937.7679939	3.4194	sub-22	1	localizer	blank	interval	NaN	NaN	NaN	NaN	NaN	NaN	NaN	NaN	NaN	NaN	NaN	NaN
941.4885596999992	0.4997	sub-22	1	localizer	stimulus	Katze	NaN	0	2.9021065999996836	NaN	True	NaN	NaN	NaN	NaN	NaN	NaN	NaN
941.9715348	2.9021	sub-22	1	localizer	blank	interval	NaN	NaN	NaN	NaN	NaN	NaN	NaN	NaN	NaN	NaN	NaN	NaN
945.1748214999998	0.4994	sub-22	1	localizer	stimulus	Haus	NaN	0	2.4184514000007766	NaN	True	NaN	NaN	NaN	NaN	NaN	NaN	NaN
945.6577795999992	2.4185	sub-22	1	localizer	blank	interval	NaN	NaN	NaN	NaN	NaN	NaN	NaN	NaN	NaN	NaN	NaN	NaN
948.3773349999992	0.4995	sub-22	1	localizer	stimulus	Gesicht	NaN	0	2.351928099999782	NaN	True	NaN	NaN	NaN	NaN	NaN	NaN	NaN
948.8603297999998	2.3519	sub-22	1	localizer	blank	interval	NaN	NaN	NaN	NaN	NaN	NaN	NaN	NaN	NaN	NaN	NaN	NaN
951.5132212	0.4995	sub-22	1	localizer	stimulus	Schuh	NaN	0	2.468557799999985	NaN	True	NaN	NaN	NaN	NaN	NaN	NaN	NaN
951.9961814999996	2.4686	sub-22	1	localizer	blank	interval	NaN	NaN	NaN	NaN	NaN	NaN	NaN	NaN	NaN	NaN	NaN	NaN
954.7658826999996	0.4995	sub-22	1	localizer	stimulus	Gesicht	NaN	180	2.3851490000007516	0.5986375000002226	True	NaN	NaN	NaN	NaN	NaN	NaN	NaN
955.2488104999992	2.3851	sub-22	1	localizer	blank	interval	NaN	NaN	NaN	NaN	NaN	NaN	NaN	NaN	NaN	NaN	NaN	NaN
957.9350979	0.4996	sub-22	1	localizer	stimulus	Gesicht	NaN	0	2.5185212999994064	NaN	True	NaN	NaN	NaN	NaN	NaN	NaN	NaN
958.418178	2.5185	sub-22	1	localizer	blank	interval	NaN	NaN	NaN	NaN	NaN	NaN	NaN	NaN	NaN	NaN	NaN	NaN
961.2379434999992	0.4994	sub-22	1	localizer	stimulus	Stuhl	NaN	0	2.668816300000003	NaN	True	NaN	NaN	NaN	NaN	NaN	NaN	NaN
961.7208463999996	2.6688	sub-22	1	localizer	blank	interval	NaN	NaN	NaN	NaN	NaN	NaN	NaN	NaN	NaN	NaN	NaN	NaN
964.6907606999994	0.4995	sub-22	1	localizer	stimulus	Stuhl	NaN	180	2.8353681999997207	0.5935502000002089	True	NaN	NaN	NaN	NaN	NaN	NaN	NaN
965.1736805	2.8354	sub-22	1	localizer	blank	interval	NaN	NaN	NaN	NaN	NaN	NaN	NaN	NaN	NaN	NaN	NaN	NaN
968.3101960999992	0.4995	sub-22	1	localizer	stimulus	Haus	NaN	0	2.4018317000000025	NaN	True	NaN	NaN	NaN	NaN	NaN	NaN	NaN
968.7931522	2.4018	sub-22	1	localizer	blank	interval	NaN	NaN	NaN	NaN	NaN	NaN	NaN	NaN	NaN	NaN	NaN	NaN
971.4960843	0.4995	sub-22	1	localizer	stimulus	Stuhl	NaN	0	2.451874100000282	NaN	True	NaN	NaN	NaN	NaN	NaN	NaN	NaN
971.9790390999996	2.4519	sub-22	1	localizer	blank	interval	NaN	NaN	NaN	NaN	NaN	NaN	NaN	NaN	NaN	NaN	NaN	NaN
974.7320903999998	0.4995	sub-22	1	localizer	stimulus	Gesicht	NaN	0	2.668680499999823	NaN	True	NaN	NaN	NaN	NaN	NaN	NaN	NaN
975.2150321999998	2.6687	sub-22	1	localizer	blank	interval	NaN	NaN	NaN	NaN	NaN	NaN	NaN	NaN	NaN	NaN	NaN	NaN
978.1848728999994	0.4995	sub-22	1	localizer	stimulus	Haus	NaN	0	2.2016466000004584	NaN	True	NaN	NaN	NaN	NaN	NaN	NaN	NaN
978.6678177999992	2.2016	sub-22	1	localizer	blank	interval	NaN	NaN	NaN	NaN	NaN	NaN	NaN	NaN	NaN	NaN	NaN	NaN
981.170822	0.4997	sub-22	1	localizer	stimulus	Haus	NaN	180	1.8680332000003546	0.8575522000001001	True	NaN	NaN	NaN	NaN	NaN	NaN	NaN
981.6537513999992	1.868	sub-22	1	localizer	blank	interval	NaN	NaN	NaN	NaN	NaN	NaN	NaN	NaN	NaN	NaN	NaN	NaN
983.8227536999992	0.5142	sub-22	1	localizer	stimulus	Schuh	NaN	0	1.9869185000000016	NaN	True	NaN	NaN	NaN	NaN	NaN	NaN	NaN
984.3037630999996	1.9869	sub-22	1	localizer	blank	interval	NaN	NaN	NaN	NaN	NaN	NaN	NaN	NaN	NaN	NaN	NaN	NaN
986.5916309999992	0.4996	sub-22	1	localizer	stimulus	Stuhl	NaN	0	1.2174919999996519	NaN	True	NaN	NaN	NaN	NaN	NaN	NaN	NaN
987.0746719	1.2175	sub-22	1	localizer	blank	interval	NaN	NaN	NaN	NaN	NaN	NaN	NaN	NaN	NaN	NaN	NaN	NaN
988.5934576	0.4994	sub-22	1	localizer	stimulus	Katze	NaN	0	2.0013772000004337	NaN	True	NaN	NaN	NaN	NaN	NaN	NaN	NaN
989.0763346999992	2.0014	sub-22	1	localizer	blank	interval	NaN	NaN	NaN	NaN	NaN	NaN	NaN	NaN	NaN	NaN	NaN	NaN
991.3788267	0.4995	sub-22	1	localizer	stimulus	Katze	NaN	0	2.4519500999995216	NaN	True	NaN	NaN	NaN	NaN	NaN	NaN	NaN
991.8617973	2.452	sub-22	1	localizer	blank	interval	NaN	NaN	NaN	NaN	NaN	NaN	NaN	NaN	NaN	NaN	NaN	NaN
994.6147785999992	0.4996	sub-22	1	localizer	stimulus	Stuhl	NaN	0	2.8521071000005804	NaN	True	NaN	NaN	NaN	NaN	NaN	NaN	NaN
995.0978584999992	2.8521	sub-22	1	localizer	blank	interval	NaN	NaN	NaN	NaN	NaN	NaN	NaN	NaN	NaN	NaN	NaN	NaN
998.2510795999996	0.4996	sub-22	1	localizer	stimulus	Schuh	NaN	180	2.8188629999993964	0.5773128999999244	True	NaN	NaN	NaN	NaN	NaN	NaN	NaN
998.7340433999998	2.8189	sub-22	1	localizer	blank	interval	NaN	NaN	NaN	NaN	NaN	NaN	NaN	NaN	NaN	NaN	NaN	NaN
1001.8540213999996	0.4995	sub-22	1	localizer	stimulus	Schuh	NaN	0	3.0858364000005167	NaN	True	NaN	NaN	NaN	NaN	NaN	NaN	NaN
1002.3369657999992	3.0858	sub-22	1	localizer	blank	interval	NaN	NaN	NaN	NaN	NaN	NaN	NaN	NaN	NaN	NaN	NaN	NaN
1005.7239536999996	0.4996	sub-22	1	localizer	stimulus	Haus	NaN	0	1.9678205000000162	NaN	True	NaN	NaN	NaN	NaN	NaN	NaN	NaN
1006.207077	1.9678	sub-22	1	localizer	blank	interval	NaN	NaN	NaN	NaN	NaN	NaN	NaN	NaN	NaN	NaN	NaN	NaN
1011.6613921999996	1.0006	sub-22	1	sequence	cue	Schuh	NaN	NaN	NaN	NaN	NaN	NaN	NaN	NaN	NaN	NaN	NaN	NaN
1012.6619630999994	2.0016	sub-22	1	sequence	blank	blank	NaN	NaN	NaN	NaN	NaN	NaN	NaN	NaN	NaN	NaN	NaN	NaN
1014.6635670999996	0.3004	sub-22	1	sequence	fixation	dot	NaN	NaN	NaN	NaN	NaN	NaN	NaN	NaN	NaN	NaN	NaN	NaN
1014.9812801999996	0.0992	sub-22	1	sequence	stimulus	Gesicht	NaN	NaN	512.0	NaN	NaN	1.0	1.0	NaN	NaN	NaN	NaN	NaN
1015.0805272999996	0.5173	sub-22	1	sequence	interval	dot	NaN	NaN	NaN	NaN	NaN	NaN	NaN	NaN	NaN	NaN	NaN	NaN
1015.5977978	0.0999	sub-22	1	sequence	stimulus	Stuhl	NaN	NaN	512.0	NaN	NaN	5.0	2.0	NaN	NaN	NaN	NaN	NaN
1015.6977176	0.5172	sub-22	1	sequence	interval	dot	NaN	NaN	NaN	NaN	NaN	NaN	NaN	NaN	NaN	NaN	NaN	NaN
1016.2149565999998	0.0999	sub-22	1	sequence	stimulus	Haus	NaN	NaN	512.0	NaN	NaN	2.0	3.0	NaN	NaN	NaN	NaN	NaN
1016.3148690999996	0.5173	sub-22	1	sequence	interval	dot	NaN	NaN	NaN	NaN	NaN	NaN	NaN	NaN	NaN	NaN	NaN	NaN
1016.8321570999996	0.0999	sub-22	1	sequence	stimulus	Schuh	NaN	NaN	512.0	NaN	NaN	4.0	4.0	NaN	NaN	NaN	NaN	NaN
1016.9320639999996	0.5172	sub-22	1	sequence	interval	dot	NaN	NaN	NaN	NaN	NaN	NaN	NaN	NaN	NaN	NaN	NaN	NaN
1017.4492457999996	0.1001	sub-22	1	sequence	stimulus	Katze	NaN	NaN	512.0	NaN	NaN	3.0	5.0	NaN	NaN	NaN	NaN	NaN
1017.5493020999992	0.5171	sub-22	1	sequence	interval	dot	NaN	NaN	NaN	NaN	NaN	NaN	NaN	NaN	NaN	NaN	NaN	NaN
1018.0663944999995	6.1365	sub-22	1	sequence	delay	dot	NaN	NaN	NaN	NaN	NaN	NaN	NaN	NaN	NaN	NaN	NaN	NaN
1024.1880343999992	1.1011	sub-22	1	sequence	choice	choice	right	NaN	NaN	1.073601800000688	True	NaN	NaN	right	True	2.0	4.0	4.0
1025.2894915999996	0.5002	sub-22	1	sequence	feedback	NaN	NaN	NaN	NaN	NaN	NaN	NaN	NaN	NaN	NaN	NaN	NaN	NaN
1025.7898098999997	1.0005	sub-22	1	sequence	cue	Stuhl	NaN	NaN	NaN	NaN	NaN	NaN	NaN	NaN	NaN	NaN	NaN	NaN
1026.790269499999	2.0015	sub-22	1	sequence	blank	blank	NaN	NaN	NaN	NaN	NaN	NaN	NaN	NaN	NaN	NaN	NaN	NaN
1028.7917757999994	0.3003	sub-22	1	sequence	fixation	dot	NaN	NaN	NaN	NaN	NaN	NaN	NaN	NaN	NaN	NaN	NaN	NaN
1029.1101939	0.1151	sub-22	1	sequence	stimulus	Katze	NaN	NaN	128.0	NaN	NaN	3.0	1.0	NaN	NaN	NaN	NaN	NaN
1029.2253403999994	0.1336	sub-22	1	sequence	interval	dot	NaN	NaN	NaN	NaN	NaN	NaN	NaN	NaN	NaN	NaN	NaN	NaN
1029.358905	0.1001	sub-22	1	sequence	stimulus	Haus	NaN	NaN	128.0	NaN	NaN	2.0	2.0	NaN	NaN	NaN	NaN	NaN
1029.458981299999	0.1334	sub-22	1	sequence	interval	dot	NaN	NaN	NaN	NaN	NaN	NaN	NaN	NaN	NaN	NaN	NaN	NaN
1029.5923862	0.1	sub-22	1	sequence	stimulus	Schuh	NaN	NaN	128.0	NaN	NaN	4.0	3.0	NaN	NaN	NaN	NaN	NaN
1029.6923699	0.1335	sub-22	1	sequence	interval	dot	NaN	NaN	NaN	NaN	NaN	NaN	NaN	NaN	NaN	NaN	NaN	NaN
1029.8259104	0.1	sub-22	1	sequence	stimulus	Gesicht	NaN	NaN	128.0	NaN	NaN	1.0	4.0	NaN	NaN	NaN	NaN	NaN
1029.925875999999	0.1336	sub-22	1	sequence	interval	dot	NaN	NaN	NaN	NaN	NaN	NaN	NaN	NaN	NaN	NaN	NaN	NaN
1030.0594506999996	0.1	sub-22	1	sequence	stimulus	Stuhl	NaN	NaN	128.0	NaN	NaN	5.0	5.0	NaN	NaN	NaN	NaN	NaN
1030.159431	0.1334	sub-22	1	sequence	interval	dot	NaN	NaN	NaN	NaN	NaN	NaN	NaN	NaN	NaN	NaN	NaN	NaN
1030.2928763	8.0547	sub-22	1	sequence	delay	dot	NaN	NaN	NaN	NaN	NaN	NaN	NaN	NaN	NaN	NaN	NaN	NaN
1038.331748799999	1.2522	sub-22	1	sequence	choice	choice	right	NaN	NaN	1.2333156000004235	False	NaN	NaN	left	True	5.0	3.0	5.0
1039.5842532999995	0.5	sub-22	1	sequence	feedback	NaN	NaN	NaN	NaN	NaN	NaN	NaN	NaN	NaN	NaN	NaN	NaN	NaN
1040.0844049999996	1.0006	sub-22	1	sequence	cue	Schuh	NaN	NaN	NaN	NaN	NaN	NaN	NaN	NaN	NaN	NaN	NaN	NaN
1041.0849644	2.0017	sub-22	1	sequence	blank	blank	NaN	NaN	NaN	NaN	NaN	NaN	NaN	NaN	NaN	NaN	NaN	NaN
1043.0866590999997	0.3002	sub-22	1	sequence	fixation	dot	NaN	NaN	NaN	NaN	NaN	NaN	NaN	NaN	NaN	NaN	NaN	NaN
1043.4053060999995	0.1149	sub-22	1	sequence	stimulus	Katze	NaN	NaN	32.0	NaN	NaN	3.0	1.0	NaN	NaN	NaN	NaN	NaN
1043.5202354999992	0.0335	sub-22	1	sequence	interval	dot	NaN	NaN	NaN	NaN	NaN	NaN	NaN	NaN	NaN	NaN	NaN	NaN
1043.5537190999994	0.1	sub-22	1	sequence	stimulus	Gesicht	NaN	NaN	32.0	NaN	NaN	1.0	2.0	NaN	NaN	NaN	NaN	NaN
1043.6536956	0.0335	sub-22	1	sequence	interval	dot	NaN	NaN	NaN	NaN	NaN	NaN	NaN	NaN	NaN	NaN	NaN	NaN
1043.6871941	0.0999	sub-22	1	sequence	stimulus	Haus	NaN	NaN	32.0	NaN	NaN	2.0	3.0	NaN	NaN	NaN	NaN	NaN
1043.7871412999991	0.0334	sub-22	1	sequence	interval	dot	NaN	NaN	NaN	NaN	NaN	NaN	NaN	NaN	NaN	NaN	NaN	NaN
1043.8205816999998	0.1001	sub-22	1	sequence	stimulus	Stuhl	NaN	NaN	32.0	NaN	NaN	5.0	4.0	NaN	NaN	NaN	NaN	NaN
1043.9206879999992	0.0333	sub-22	1	sequence	interval	dot	NaN	NaN	NaN	NaN	NaN	NaN	NaN	NaN	NaN	NaN	NaN	NaN
1043.9540352999993	0.1002	sub-22	1	sequence	stimulus	Schuh	NaN	NaN	32.0	NaN	NaN	4.0	5.0	NaN	NaN	NaN	NaN	NaN
1044.0542730999996	0.0331	sub-22	1	sequence	interval	dot	NaN	NaN	NaN	NaN	NaN	NaN	NaN	NaN	NaN	NaN	NaN	NaN
1044.0873820999996	8.5384	sub-22	1	sequence	delay	dot	NaN	NaN	NaN	NaN	NaN	NaN	NaN	NaN	NaN	NaN	NaN	NaN
1052.6054131	1.8239	sub-22	1	sequence	choice	choice	left	NaN	NaN	1.7948114999999234	True	NaN	NaN	left	True	5.0	2.0	5.0
1054.4295253	0.5001	sub-22	1	sequence	feedback	NaN	NaN	NaN	NaN	NaN	NaN	NaN	NaN	NaN	NaN	NaN	NaN	NaN
1054.9298308999996	1.001	sub-22	1	sequence	cue	Gesicht	NaN	NaN	NaN	NaN	NaN	NaN	NaN	NaN	NaN	NaN	NaN	NaN
1055.9308348999994	2.0011	sub-22	1	sequence	blank	blank	NaN	NaN	NaN	NaN	NaN	NaN	NaN	NaN	NaN	NaN	NaN	NaN
1057.9319237	0.3003	sub-22	1	sequence	fixation	dot	NaN	NaN	NaN	NaN	NaN	NaN	NaN	NaN	NaN	NaN	NaN	NaN
1058.2499816999998	0.0993	sub-22	1	sequence	stimulus	Schuh	NaN	NaN	128.0	NaN	NaN	4.0	1.0	NaN	NaN	NaN	NaN	NaN
1058.3492770999992	0.1333	sub-22	1	sequence	interval	dot	NaN	NaN	NaN	NaN	NaN	NaN	NaN	NaN	NaN	NaN	NaN	NaN
1058.482564	0.0998	sub-22	1	sequence	stimulus	Stuhl	NaN	NaN	128.0	NaN	NaN	5.0	2.0	NaN	NaN	NaN	NaN	NaN
1058.5824075	0.1336	sub-22	1	sequence	interval	dot	NaN	NaN	NaN	NaN	NaN	NaN	NaN	NaN	NaN	NaN	NaN	NaN
1058.7159806	0.1	sub-22	1	sequence	stimulus	Katze	NaN	NaN	128.0	NaN	NaN	3.0	3.0	NaN	NaN	NaN	NaN	NaN
1058.8159618999998	0.1336	sub-22	1	sequence	interval	dot	NaN	NaN	NaN	NaN	NaN	NaN	NaN	NaN	NaN	NaN	NaN	NaN
1058.9495164	0.0999	sub-22	1	sequence	stimulus	Haus	NaN	NaN	128.0	NaN	NaN	2.0	4.0	NaN	NaN	NaN	NaN	NaN
1059.0494636999993	0.1335	sub-22	1	sequence	interval	dot	NaN	NaN	NaN	NaN	NaN	NaN	NaN	NaN	NaN	NaN	NaN	NaN
1059.1830087999997	0.1	sub-22	1	sequence	stimulus	Gesicht	NaN	NaN	128.0	NaN	NaN	1.0	5.0	NaN	NaN	NaN	NaN	NaN
1059.2830103999995	0.1334	sub-22	1	sequence	interval	dot	NaN	NaN	NaN	NaN	NaN	NaN	NaN	NaN	NaN	NaN	NaN	NaN
1059.4164213999993	8.0881	sub-22	1	sequence	delay	dot	NaN	NaN	NaN	NaN	NaN	NaN	NaN	NaN	NaN	NaN	NaN	NaN
1067.4771591999995	1.1805	sub-22	1	sequence	choice	choice	left	NaN	NaN	1.1479588000001968	True	NaN	NaN	left	True	5.0	1.0	5.0
1068.6579065999997	0.5	sub-22	1	sequence	feedback	NaN	NaN	NaN	NaN	NaN	NaN	NaN	NaN	NaN	NaN	NaN	NaN	NaN
1069.1581004	1.0005	sub-22	1	sequence	cue	Gesicht	NaN	NaN	NaN	NaN	NaN	NaN	NaN	NaN	NaN	NaN	NaN	NaN
1070.1586422	2.0014	sub-22	1	sequence	blank	blank	NaN	NaN	NaN	NaN	NaN	NaN	NaN	NaN	NaN	NaN	NaN	NaN
1072.1600841999998	0.3003	sub-22	1	sequence	fixation	dot	NaN	NaN	NaN	NaN	NaN	NaN	NaN	NaN	NaN	NaN	NaN	NaN
1072.4780689999998	0.099	sub-22	1	sequence	stimulus	Katze	NaN	NaN	32.0	NaN	NaN	3.0	1.0	NaN	NaN	NaN	NaN	NaN
1072.5770943999996	0.0335	sub-22	1	sequence	interval	dot	NaN	NaN	NaN	NaN	NaN	NaN	NaN	NaN	NaN	NaN	NaN	NaN
1072.6105687	0.1001	sub-22	1	sequence	stimulus	Gesicht	NaN	NaN	32.0	NaN	NaN	1.0	2.0	NaN	NaN	NaN	NaN	NaN
1072.7106412999992	0.0339	sub-22	1	sequence	interval	dot	NaN	NaN	NaN	NaN	NaN	NaN	NaN	NaN	NaN	NaN	NaN	NaN
1072.7445733999994	0.0995	sub-22	1	sequence	stimulus	Schuh	NaN	NaN	32.0	NaN	NaN	4.0	3.0	NaN	NaN	NaN	NaN	NaN
1072.8440274999994	0.0335	sub-22	1	sequence	interval	dot	NaN	NaN	NaN	NaN	NaN	NaN	NaN	NaN	NaN	NaN	NaN	NaN
1072.8775539999997	0.0999	sub-22	1	sequence	stimulus	Haus	NaN	NaN	32.0	NaN	NaN	2.0	4.0	NaN	NaN	NaN	NaN	NaN
1072.9774545	0.0335	sub-22	1	sequence	interval	dot	NaN	NaN	NaN	NaN	NaN	NaN	NaN	NaN	NaN	NaN	NaN	NaN
1073.010926	0.1	sub-22	1	sequence	stimulus	Stuhl	NaN	NaN	32.0	NaN	NaN	5.0	5.0	NaN	NaN	NaN	NaN	NaN
1073.1109189999995	0.0334	sub-22	1	sequence	interval	dot	NaN	NaN	NaN	NaN	NaN	NaN	NaN	NaN	NaN	NaN	NaN	NaN
1073.1442756999995	8.5217	sub-22	1	sequence	delay	dot	NaN	NaN	NaN	NaN	NaN	NaN	NaN	NaN	NaN	NaN	NaN	NaN
1081.6470910999997	1.7224	sub-22	1	sequence	choice	choice	left	NaN	NaN	1.6905421999999817	False	NaN	NaN	right	True	5.0	2.0	2.0
1083.3697695	0.4999	sub-22	1	sequence	feedback	NaN	NaN	NaN	NaN	NaN	NaN	NaN	NaN	NaN	NaN	NaN	NaN	NaN
1083.8698601999995	1.0006	sub-22	1	sequence	cue	Katze	NaN	NaN	NaN	NaN	NaN	NaN	NaN	NaN	NaN	NaN	NaN	NaN
1084.8704453	2.0016	sub-22	1	sequence	blank	blank	NaN	NaN	NaN	NaN	NaN	NaN	NaN	NaN	NaN	NaN	NaN	NaN
1086.8720052	0.3003	sub-22	1	sequence	fixation	dot	NaN	NaN	NaN	NaN	NaN	NaN	NaN	NaN	NaN	NaN	NaN	NaN
1087.1905806999994	0.1151	sub-22	1	sequence	stimulus	Stuhl	NaN	NaN	64.0	NaN	NaN	5.0	1.0	NaN	NaN	NaN	NaN	NaN
1087.3057233	0.0669	sub-22	1	sequence	interval	dot	NaN	NaN	NaN	NaN	NaN	NaN	NaN	NaN	NaN	NaN	NaN	NaN
1087.3726027999992	0.1	sub-22	1	sequence	stimulus	Schuh	NaN	NaN	64.0	NaN	NaN	4.0	2.0	NaN	NaN	NaN	NaN	NaN
1087.4726277999998	0.0674	sub-22	1	sequence	interval	dot	NaN	NaN	NaN	NaN	NaN	NaN	NaN	NaN	NaN	NaN	NaN	NaN
1087.5399939999998	0.0998	sub-22	1	sequence	stimulus	Haus	NaN	NaN	64.0	NaN	NaN	2.0	3.0	NaN	NaN	NaN	NaN	NaN
1087.6398087999996	0.0664	sub-22	1	sequence	interval	dot	NaN	NaN	NaN	NaN	NaN	NaN	NaN	NaN	NaN	NaN	NaN	NaN
1087.7062465	0.1	sub-22	1	sequence	stimulus	Katze	NaN	NaN	64.0	NaN	NaN	3.0	4.0	NaN	NaN	NaN	NaN	NaN
1087.8062193999997	0.0669	sub-22	1	sequence	interval	dot	NaN	NaN	NaN	NaN	NaN	NaN	NaN	NaN	NaN	NaN	NaN	NaN
1087.8730888	0.0999	sub-22	1	sequence	stimulus	Gesicht	NaN	NaN	64.0	NaN	NaN	1.0	5.0	NaN	NaN	NaN	NaN	NaN
1087.9730032999996	0.0667	sub-22	1	sequence	interval	dot	NaN	NaN	NaN	NaN	NaN	NaN	NaN	NaN	NaN	NaN	NaN	NaN
1088.0397475999998	8.3883	sub-22	1	sequence	delay	dot	NaN	NaN	NaN	NaN	NaN	NaN	NaN	NaN	NaN	NaN	NaN	NaN
1096.4145578999996	1.3832	sub-22	1	sequence	choice	choice	right	NaN	NaN	1.3686339999994743	True	NaN	NaN	right	True	1.0	4.0	4.0
1097.7980375999996	0.5	sub-22	1	sequence	feedback	NaN	NaN	NaN	NaN	NaN	NaN	NaN	NaN	NaN	NaN	NaN	NaN	NaN
1098.2981481999996	1.0006	sub-22	1	sequence	cue	Schuh	NaN	NaN	NaN	NaN	NaN	NaN	NaN	NaN	NaN	NaN	NaN	NaN
1099.2987981999995	2.0016	sub-22	1	sequence	blank	blank	NaN	NaN	NaN	NaN	NaN	NaN	NaN	NaN	NaN	NaN	NaN	NaN
1101.3004029999993	0.3002	sub-22	1	sequence	fixation	dot	NaN	NaN	NaN	NaN	NaN	NaN	NaN	NaN	NaN	NaN	NaN	NaN
1101.6180877999996	0.0993	sub-22	1	sequence	stimulus	Katze	NaN	NaN	512.0	NaN	NaN	3.0	1.0	NaN	NaN	NaN	NaN	NaN
1101.7173710999996	0.5172	sub-22	1	sequence	interval	dot	NaN	NaN	NaN	NaN	NaN	NaN	NaN	NaN	NaN	NaN	NaN	NaN
1102.234617499999	0.1	sub-22	1	sequence	stimulus	Gesicht	NaN	NaN	512.0	NaN	NaN	1.0	2.0	NaN	NaN	NaN	NaN	NaN
1102.3346372999997	0.5172	sub-22	1	sequence	interval	dot	NaN	NaN	NaN	NaN	NaN	NaN	NaN	NaN	NaN	NaN	NaN	NaN
1102.8518263999997	0.1	sub-22	1	sequence	stimulus	Stuhl	NaN	NaN	512.0	NaN	NaN	5.0	3.0	NaN	NaN	NaN	NaN	NaN
1102.9517866999995	0.5172	sub-22	1	sequence	interval	dot	NaN	NaN	NaN	NaN	NaN	NaN	NaN	NaN	NaN	NaN	NaN	NaN
1103.4689836999996	0.0999	sub-22	1	sequence	stimulus	Haus	NaN	NaN	512.0	NaN	NaN	2.0	4.0	NaN	NaN	NaN	NaN	NaN
1103.5688997999996	0.5173	sub-22	1	sequence	interval	dot	NaN	NaN	NaN	NaN	NaN	NaN	NaN	NaN	NaN	NaN	NaN	NaN
1104.0862073999997	0.0999	sub-22	1	sequence	stimulus	Schuh	NaN	NaN	512.0	NaN	NaN	4.0	5.0	NaN	NaN	NaN	NaN	NaN
1104.1860668	0.5172	sub-22	1	sequence	interval	dot	NaN	NaN	NaN	NaN	NaN	NaN	NaN	NaN	NaN	NaN	NaN	NaN
1104.7033042999992	6.1365	sub-22	1	sequence	delay	dot	NaN	NaN	NaN	NaN	NaN	NaN	NaN	NaN	NaN	NaN	NaN	NaN
1110.8182471	0.9744	sub-22	1	sequence	choice	choice	left	NaN	NaN	0.9487615999996706	True	NaN	NaN	left	True	5.0	1.0	5.0
1111.7929015	0.4998	sub-22	1	sequence	feedback	NaN	NaN	NaN	NaN	NaN	NaN	NaN	NaN	NaN	NaN	NaN	NaN	NaN
1112.2928890999992	1.0006	sub-22	1	sequence	cue	Schuh	NaN	NaN	NaN	NaN	NaN	NaN	NaN	NaN	NaN	NaN	NaN	NaN
1113.2935380999998	2.0015	sub-22	1	sequence	blank	blank	NaN	NaN	NaN	NaN	NaN	NaN	NaN	NaN	NaN	NaN	NaN	NaN
1115.2950458999994	0.3003	sub-22	1	sequence	fixation	dot	NaN	NaN	NaN	NaN	NaN	NaN	NaN	NaN	NaN	NaN	NaN	NaN
1115.6136720999991	0.1166	sub-22	1	sequence	stimulus	Stuhl	NaN	NaN	64.0	NaN	NaN	5.0	1.0	NaN	NaN	NaN	NaN	NaN
1115.7303041999994	0.0652	sub-22	1	sequence	interval	dot	NaN	NaN	NaN	NaN	NaN	NaN	NaN	NaN	NaN	NaN	NaN	NaN
1115.7955138999996	0.1	sub-22	1	sequence	stimulus	Katze	NaN	NaN	64.0	NaN	NaN	3.0	2.0	NaN	NaN	NaN	NaN	NaN
1115.8955158999995	0.0668	sub-22	1	sequence	interval	dot	NaN	NaN	NaN	NaN	NaN	NaN	NaN	NaN	NaN	NaN	NaN	NaN
1115.9623361999993	0.1	sub-22	1	sequence	stimulus	Schuh	NaN	NaN	64.0	NaN	NaN	4.0	3.0	NaN	NaN	NaN	NaN	NaN
1116.062339	0.068	sub-22	1	sequence	interval	dot	NaN	NaN	NaN	NaN	NaN	NaN	NaN	NaN	NaN	NaN	NaN	NaN
1116.1303153999995	0.1155	sub-22	1	sequence	stimulus	Gesicht	NaN	NaN	64.0	NaN	NaN	1.0	4.0	NaN	NaN	NaN	NaN	NaN
1116.2457912	0.0669	sub-22	1	sequence	interval	dot	NaN	NaN	NaN	NaN	NaN	NaN	NaN	NaN	NaN	NaN	NaN	NaN
1116.3126821999997	0.0999	sub-22	1	sequence	stimulus	Haus	NaN	NaN	64.0	NaN	NaN	2.0	5.0	NaN	NaN	NaN	NaN	NaN
1116.4125841999994	0.0667	sub-22	1	sequence	interval	dot	NaN	NaN	NaN	NaN	NaN	NaN	NaN	NaN	NaN	NaN	NaN	NaN
1116.4793191	8.4051	sub-22	1	sequence	delay	dot	NaN	NaN	NaN	NaN	NaN	NaN	NaN	NaN	NaN	NaN	NaN	NaN
1124.8580385999994	1.1292	sub-22	1	sequence	choice	choice	right	NaN	NaN	1.0882301000001462	True	NaN	NaN	right	True	4.0	3.0	3.0
1125.9874893999995	0.5	sub-22	1	sequence	feedback	NaN	NaN	NaN	NaN	NaN	NaN	NaN	NaN	NaN	NaN	NaN	NaN	NaN
1130.3081168	0.4997	sub-22	1	localizer	stimulus	Haus	NaN	0	2.018294400000741	NaN	True	NaN	NaN	NaN	NaN	NaN	NaN	NaN
1130.7911314999992	2.0183	sub-22	1	localizer	blank	interval	NaN	NaN	NaN	NaN	NaN	NaN	NaN	NaN	NaN	NaN	NaN	NaN
1133.1103807999998	0.4995	sub-22	1	localizer	stimulus	Katze	NaN	0	1.9349519999996119	NaN	True	NaN	NaN	NaN	NaN	NaN	NaN	NaN
1133.5932899999998	1.935	sub-22	1	localizer	blank	interval	NaN	NaN	NaN	NaN	NaN	NaN	NaN	NaN	NaN	NaN	NaN	NaN
1135.8291863999991	0.4996	sub-22	1	localizer	stimulus	Schuh	NaN	0	2.785596099999566	NaN	True	NaN	NaN	NaN	NaN	NaN	NaN	NaN
1136.3121628999995	2.7856	sub-22	1	localizer	blank	interval	NaN	NaN	NaN	NaN	NaN	NaN	NaN	NaN	NaN	NaN	NaN	NaN
1139.3989025	0.4995	sub-22	1	localizer	stimulus	Schuh	NaN	180	2.5685497000004034	0.5898526000000857	True	NaN	NaN	NaN	NaN	NaN	NaN	NaN
1139.8818027999996	2.5685	sub-22	1	localizer	blank	interval	NaN	NaN	NaN	NaN	NaN	NaN	NaN	NaN	NaN	NaN	NaN	NaN
1142.7514659999997	0.4995	sub-22	1	localizer	stimulus	Katze	NaN	0	2.968916100000797	NaN	True	NaN	NaN	NaN	NaN	NaN	NaN	NaN
1143.2344749999993	2.9689	sub-22	1	localizer	blank	interval	NaN	NaN	NaN	NaN	NaN	NaN	NaN	NaN	NaN	NaN	NaN	NaN
1146.5045286999994	0.4995	sub-22	1	localizer	stimulus	Katze	NaN	0	2.4351383000002897	NaN	True	NaN	NaN	NaN	NaN	NaN	NaN	NaN
1146.9876184999994	2.4351	sub-22	1	localizer	blank	interval	NaN	NaN	NaN	NaN	NaN	NaN	NaN	NaN	NaN	NaN	NaN	NaN
1149.723980899999	0.4994	sub-22	1	localizer	stimulus	Haus	NaN	0	2.018135799999982	NaN	True	NaN	NaN	NaN	NaN	NaN	NaN	NaN
1150.2069056	2.0181	sub-22	1	localizer	blank	interval	NaN	NaN	NaN	NaN	NaN	NaN	NaN	NaN	NaN	NaN	NaN	NaN
1152.5262151999996	0.4995	sub-22	1	localizer	stimulus	Stuhl	NaN	0	2.635145399999601	NaN	True	NaN	NaN	NaN	NaN	NaN	NaN	NaN
1153.0092273	2.6351	sub-22	1	localizer	blank	interval	NaN	NaN	NaN	NaN	NaN	NaN	NaN	NaN	NaN	NaN	NaN	NaN
1155.9455062999996	0.4995	sub-22	1	localizer	stimulus	Haus	NaN	0	3.4526766999997562	NaN	True	NaN	NaN	NaN	NaN	NaN	NaN	NaN
1156.4284818999995	3.4527	sub-22	1	localizer	blank	interval	NaN	NaN	NaN	NaN	NaN	NaN	NaN	NaN	NaN	NaN	NaN	NaN
1160.1823951999995	0.4995	sub-22	1	localizer	stimulus	Gesicht	NaN	0	3.3192011999999522	NaN	True	NaN	NaN	NaN	NaN	NaN	NaN	NaN
1160.6653311	3.3192	sub-22	1	localizer	blank	interval	NaN	NaN	NaN	NaN	NaN	NaN	NaN	NaN	NaN	NaN	NaN	NaN
1164.2855869999994	0.4995	sub-22	1	localizer	stimulus	Gesicht	NaN	0	2.935685899999953	NaN	True	NaN	NaN	NaN	NaN	NaN	NaN	NaN
1164.7685403999994	2.9357	sub-22	1	localizer	blank	interval	NaN	NaN	NaN	NaN	NaN	NaN	NaN	NaN	NaN	NaN	NaN	NaN
1168.0054166999998	0.4994	sub-22	1	localizer	stimulus	Stuhl	NaN	0	2.6686710000003586	NaN	True	NaN	NaN	NaN	NaN	NaN	NaN	NaN
1168.4883272999996	2.6687	sub-22	1	localizer	blank	interval	NaN	NaN	NaN	NaN	NaN	NaN	NaN	NaN	NaN	NaN	NaN	NaN
1171.4581191999996	0.4996	sub-22	1	localizer	stimulus	Stuhl	NaN	0	2.1684463999999934	NaN	True	NaN	NaN	NaN	NaN	NaN	NaN	NaN
1171.9411686999993	2.1684	sub-22	1	localizer	blank	interval	NaN	NaN	NaN	NaN	NaN	NaN	NaN	NaN	NaN	NaN	NaN	NaN
1174.4108964999996	0.4993	sub-22	1	localizer	stimulus	Schuh	NaN	0	2.468552900000077	NaN	True	NaN	NaN	NaN	NaN	NaN	NaN	NaN
1174.89354	2.4686	sub-22	1	localizer	blank	interval	NaN	NaN	NaN	NaN	NaN	NaN	NaN	NaN	NaN	NaN	NaN	NaN
1177.6631115	0.4996	sub-22	1	localizer	stimulus	Haus	NaN	180	2.018176100000346	0.645380899999509	True	NaN	NaN	NaN	NaN	NaN	NaN	NaN
1178.1460818999994	2.0182	sub-22	1	localizer	blank	interval	NaN	NaN	NaN	NaN	NaN	NaN	NaN	NaN	NaN	NaN	NaN	NaN
1180.4653828	0.4995	sub-22	1	localizer	stimulus	Schuh	NaN	0	1.984719000000041	NaN	True	NaN	NaN	NaN	NaN	NaN	NaN	NaN
