onset	duration	subject	session	condition	trial_type	stim_label	key_down	orientation	interval_time	response_time	accuracy	stim_index	serial_position	key_expected	key_pressed	choice_left	choice_right	choice_correct
1.2529899000001024	0.9448	sub-08	1	instruction	instruction	language_selection	german	NaN	NaN	NaN	NaN	NaN	NaN	NaN	NaN	NaN	NaN	NaN
27.65235279999979	0.4994	sub-08	1	localizer	stimulus	Gesicht	NaN	0	2.935707000000548	NaN	1.0	NaN	NaN	NaN	NaN	NaN	NaN	NaN
28.13521659999969	2.9357	sub-08	1	localizer	blank	interval	NaN	NaN	NaN	NaN	NaN	NaN	NaN	NaN	NaN	NaN	NaN	NaN
31.3718202	0.4996	sub-08	1	localizer	stimulus	Schuh	NaN	0	2.16821390000041	NaN	True	NaN	NaN	NaN	NaN	NaN	NaN	NaN
31.854927299999872	2.1682	sub-08	1	localizer	blank	interval	NaN	NaN	NaN	NaN	NaN	NaN	NaN	NaN	NaN	NaN	NaN	NaN
34.324220100000275	0.4995	sub-08	1	localizer	stimulus	Haus	NaN	0	2.935637300000053	NaN	True	NaN	NaN	NaN	NaN	NaN	NaN	NaN
34.80720819999988	2.9356	sub-08	1	localizer	blank	interval	NaN	NaN	NaN	NaN	NaN	NaN	NaN	NaN	NaN	NaN	NaN	NaN
38.04388840000047	0.4995	sub-08	1	localizer	stimulus	Schuh	NaN	0	2.5186641999998827	NaN	True	NaN	NaN	NaN	NaN	NaN	NaN	NaN
38.52682999999979	2.5187	sub-08	1	localizer	blank	interval	NaN	NaN	NaN	NaN	NaN	NaN	NaN	NaN	NaN	NaN	NaN	NaN
41.34657940000034	0.4996	sub-08	1	localizer	stimulus	Katze	NaN	0	2.4851809000001595	NaN	True	NaN	NaN	NaN	NaN	NaN	NaN	NaN
41.829615399999966	2.4852	sub-08	1	localizer	blank	interval	NaN	NaN	NaN	NaN	NaN	NaN	NaN	NaN	NaN	NaN	NaN	NaN
44.61585620000005	0.4996	sub-08	1	localizer	stimulus	Gesicht	NaN	0	2.5018659000006664	NaN	True	NaN	NaN	NaN	NaN	NaN	NaN	NaN
45.09886149999966	2.5019	sub-08	1	localizer	blank	interval	NaN	NaN	NaN	NaN	NaN	NaN	NaN	NaN	NaN	NaN	NaN	NaN
47.902238300000135	0.4997	sub-08	1	localizer	stimulus	Stuhl	NaN	180	2.0350916999996116	-9.809643099999448	True	NaN	NaN	NaN	NaN	NaN	NaN	NaN
48.38496810000015	2.0351	sub-08	1	localizer	blank	interval	NaN	NaN	NaN	NaN	NaN	NaN	NaN	NaN	NaN	NaN	NaN	NaN
50.72118070000033	0.4994	sub-08	1	localizer	stimulus	Gesicht	NaN	0	1.2664331000005333	NaN	True	NaN	NaN	NaN	NaN	NaN	NaN	NaN
51.20510829999967	1.2664	sub-08	1	localizer	blank	interval	NaN	NaN	NaN	NaN	NaN	NaN	NaN	NaN	NaN	NaN	NaN	NaN
52.77268689999983	0.4994	sub-08	1	localizer	stimulus	Haus	NaN	0	2.8518608999993376	NaN	True	NaN	NaN	NaN	NaN	NaN	NaN	NaN
53.25573080000049	2.8519	sub-08	1	localizer	blank	interval	NaN	NaN	NaN	NaN	NaN	NaN	NaN	NaN	NaN	NaN	NaN	NaN
56.4087626999999	0.4995	sub-08	1	localizer	stimulus	Haus	NaN	0	3.0690115999996124	NaN	True	NaN	NaN	NaN	NaN	NaN	NaN	NaN
56.89180260000012	3.069	sub-08	1	localizer	blank	interval	NaN	NaN	NaN	NaN	NaN	NaN	NaN	NaN	NaN	NaN	NaN	NaN
60.2618738000001	0.4995	sub-08	1	localizer	stimulus	Katze	NaN	0	1.300464799999645	NaN	True	NaN	NaN	NaN	NaN	NaN	NaN	NaN
60.745346300000165	1.3005	sub-08	1	localizer	blank	interval	NaN	NaN	NaN	NaN	NaN	NaN	NaN	NaN	NaN	NaN	NaN	NaN
62.346901400000206	0.4996	sub-08	1	localizer	stimulus	Katze	NaN	0	1.9680184999997437	NaN	True	NaN	NaN	NaN	NaN	NaN	NaN	NaN
62.82994890000009	1.968	sub-08	1	localizer	blank	interval	NaN	NaN	NaN	NaN	NaN	NaN	NaN	NaN	NaN	NaN	NaN	NaN
65.09917000000041	0.4994	sub-08	1	localizer	stimulus	Haus	NaN	0	2.3184032999997726	NaN	True	NaN	NaN	NaN	NaN	NaN	NaN	NaN
65.5820862999999	2.3184	sub-08	1	localizer	blank	interval	NaN	NaN	NaN	NaN	NaN	NaN	NaN	NaN	NaN	NaN	NaN	NaN
68.2018635000004	0.4993	sub-08	1	localizer	stimulus	Gesicht	NaN	180	2.885855100000299	-9.892900799999552	True	NaN	NaN	NaN	NaN	NaN	NaN	NaN
68.68458800000008	2.8859	sub-08	1	localizer	blank	interval	NaN	NaN	NaN	NaN	NaN	NaN	NaN	NaN	NaN	NaN	NaN	NaN
71.87151340000037	0.4996	sub-08	1	localizer	stimulus	Gesicht	NaN	0	2.218008099999679	NaN	True	NaN	NaN	NaN	NaN	NaN	NaN	NaN
72.3545337000005	2.218	sub-08	1	localizer	blank	interval	NaN	NaN	NaN	NaN	NaN	NaN	NaN	NaN	NaN	NaN	NaN	NaN
74.87374699999964	0.4994	sub-08	1	localizer	stimulus	Katze	NaN	180	2.902433700000074	-9.78099680000014	True	NaN	NaN	NaN	NaN	NaN	NaN	NaN
75.3566135000001	2.9024	sub-08	1	localizer	blank	interval	NaN	NaN	NaN	NaN	NaN	NaN	NaN	NaN	NaN	NaN	NaN	NaN
78.56021500000043	0.4993	sub-08	1	localizer	stimulus	Stuhl	NaN	0	1.851816499999586	NaN	True	NaN	NaN	NaN	NaN	NaN	NaN	NaN
79.04298840000047	1.8518	sub-08	1	localizer	blank	interval	NaN	NaN	NaN	NaN	NaN	NaN	NaN	NaN	NaN	NaN	NaN	NaN
81.1954826000001	0.4995	sub-08	1	localizer	stimulus	Stuhl	NaN	0	1.951503500000399	NaN	True	NaN	NaN	NaN	NaN	NaN	NaN	NaN
81.67840479999995	1.9515	sub-08	1	localizer	blank	interval	NaN	NaN	NaN	NaN	NaN	NaN	NaN	NaN	NaN	NaN	NaN	NaN
83.93102900000031	0.4995	sub-08	1	localizer	stimulus	Katze	NaN	0	2.48520599999938	NaN	True	NaN	NaN	NaN	NaN	NaN	NaN	NaN
84.41398550000031	2.4852	sub-08	1	localizer	blank	interval	NaN	NaN	NaN	NaN	NaN	NaN	NaN	NaN	NaN	NaN	NaN	NaN
87.20034140000007	0.4995	sub-08	1	localizer	stimulus	Schuh	NaN	180	2.9191255000005043	-9.924498500000482	True	NaN	NaN	NaN	NaN	NaN	NaN	NaN
87.68326059999981	2.9191	sub-08	1	localizer	blank	interval	NaN	NaN	NaN	NaN	NaN	NaN	NaN	NaN	NaN	NaN	NaN	NaN
90.9035085000005	0.4997	sub-08	1	localizer	stimulus	Stuhl	NaN	0	1.9848346000007808	NaN	True	NaN	NaN	NaN	NaN	NaN	NaN	NaN
91.38660749999964	1.9848	sub-08	1	localizer	blank	interval	NaN	NaN	NaN	NaN	NaN	NaN	NaN	NaN	NaN	NaN	NaN	NaN
93.67265440000028	0.4992	sub-08	1	localizer	stimulus	Haus	NaN	180	2.468420699999996	-9.9007586000007	True	NaN	NaN	NaN	NaN	NaN	NaN	NaN
94.15530500000024	2.4684	sub-08	1	localizer	blank	interval	NaN	NaN	NaN	NaN	NaN	NaN	NaN	NaN	NaN	NaN	NaN	NaN
96.92487710000024	0.4995	sub-08	1	localizer	stimulus	Stuhl	NaN	0	2.5185905999996976	NaN	True	NaN	NaN	NaN	NaN	NaN	NaN	NaN
97.40780790000008	2.5186	sub-08	1	localizer	blank	interval	NaN	NaN	NaN	NaN	NaN	NaN	NaN	NaN	NaN	NaN	NaN	NaN
100.2275499999996	0.4995	sub-08	1	localizer	stimulus	Schuh	NaN	0	3.0357971999992515	NaN	True	NaN	NaN	NaN	NaN	NaN	NaN	NaN
100.71046790000037	3.0358	sub-08	1	localizer	blank	interval	NaN	NaN	NaN	NaN	NaN	NaN	NaN	NaN	NaN	NaN	NaN	NaN
104.04732839999996	0.4994	sub-08	1	localizer	stimulus	Schuh	NaN	0	3.152413499999966	NaN	True	NaN	NaN	NaN	NaN	NaN	NaN	NaN
104.53027399999974	3.1524	sub-08	1	localizer	blank	interval	NaN	NaN	NaN	NaN	NaN	NaN	NaN	NaN	NaN	NaN	NaN	NaN
111.16942350000043	1.0006	sub-08	1	sequence	cue	Stuhl	NaN	NaN	NaN	NaN	NaN	NaN	NaN	NaN	NaN	NaN	NaN	NaN
112.1700062	2.0015	sub-08	1	sequence	blank	blank	NaN	NaN	NaN	NaN	NaN	NaN	NaN	NaN	NaN	NaN	NaN	NaN
114.17153489999964	0.3003	sub-08	1	sequence	fixation	dot	NaN	NaN	NaN	NaN	NaN	NaN	NaN	NaN	NaN	NaN	NaN	NaN
114.53681039999992	0.1018	sub-08	1	sequence	stimulus	Gesicht	NaN	NaN	128.0	NaN	NaN	1.0	1.0	NaN	NaN	NaN	NaN	NaN
114.63860420000036	0.1334	sub-08	1	sequence	interval	dot	NaN	NaN	NaN	NaN	NaN	NaN	NaN	NaN	NaN	NaN	NaN	NaN
114.77203399999962	0.0999	sub-08	1	sequence	stimulus	Katze	NaN	NaN	128.0	NaN	NaN	3.0	2.0	NaN	NaN	NaN	NaN	NaN
114.87196210000002	0.1335	sub-08	1	sequence	interval	dot	NaN	NaN	NaN	NaN	NaN	NaN	NaN	NaN	NaN	NaN	NaN	NaN
115.00544290000016	0.1	sub-08	1	sequence	stimulus	Schuh	NaN	NaN	128.0	NaN	NaN	4.0	3.0	NaN	NaN	NaN	NaN	NaN
115.10545739999998	0.1337	sub-08	1	sequence	interval	dot	NaN	NaN	NaN	NaN	NaN	NaN	NaN	NaN	NaN	NaN	NaN	NaN
115.2391174000004	0.0999	sub-08	1	sequence	stimulus	Haus	NaN	NaN	128.0	NaN	NaN	2.0	4.0	NaN	NaN	NaN	NaN	NaN
115.33902390000004	0.1336	sub-08	1	sequence	interval	dot	NaN	NaN	NaN	NaN	NaN	NaN	NaN	NaN	NaN	NaN	NaN	NaN
115.47262560000036	0.0998	sub-08	1	sequence	stimulus	Stuhl	NaN	NaN	128.0	NaN	NaN	5.0	5.0	NaN	NaN	NaN	NaN	NaN
115.57246029999988	0.1336	sub-08	1	sequence	interval	dot	NaN	NaN	NaN	NaN	NaN	NaN	NaN	NaN	NaN	NaN	NaN	NaN
115.70602469999994	8.0546	sub-08	1	sequence	delay	dot	NaN	NaN	NaN	NaN	NaN	NaN	NaN	NaN	NaN	NaN	NaN	NaN
123.74550939999972	0.5846	sub-08	1	sequence	choice	choice	right	NaN	NaN	-9.86851370000022	True	NaN	NaN	right	1.0	4.0	5.0	5.0
124.33049899999968	0.4998	sub-08	1	sequence	feedback	NaN	NaN	NaN	NaN	NaN	NaN	NaN	NaN	NaN	NaN	NaN	NaN	NaN
124.8305178999999	1.0004	sub-08	1	sequence	cue	Katze	NaN	NaN	NaN	NaN	NaN	NaN	NaN	NaN	NaN	NaN	NaN	NaN
125.83095109999977	2.0016	sub-08	1	sequence	blank	blank	NaN	NaN	NaN	NaN	NaN	NaN	NaN	NaN	NaN	NaN	NaN	NaN
127.83253289999992	0.3002	sub-08	1	sequence	fixation	dot	NaN	NaN	NaN	NaN	NaN	NaN	NaN	NaN	NaN	NaN	NaN	NaN
128.16518689999975	0.1009	sub-08	1	sequence	stimulus	Gesicht	NaN	NaN	32.0	NaN	NaN	1.0	1.0	NaN	NaN	NaN	NaN	NaN
128.2660925999999	0.0335	sub-08	1	sequence	interval	dot	NaN	NaN	NaN	NaN	NaN	NaN	NaN	NaN	NaN	NaN	NaN	NaN
128.29961259999982	0.0998	sub-08	1	sequence	stimulus	Katze	NaN	NaN	32.0	NaN	NaN	3.0	2.0	NaN	NaN	NaN	NaN	NaN
128.39940430000024	0.0336	sub-08	1	sequence	interval	dot	NaN	NaN	NaN	NaN	NaN	NaN	NaN	NaN	NaN	NaN	NaN	NaN
128.43304270000044	0.0999	sub-08	1	sequence	stimulus	Haus	NaN	NaN	32.0	NaN	NaN	2.0	3.0	NaN	NaN	NaN	NaN	NaN
128.5329171000003	0.0335	sub-08	1	sequence	interval	dot	NaN	NaN	NaN	NaN	NaN	NaN	NaN	NaN	NaN	NaN	NaN	NaN
128.56638380000004	0.1	sub-08	1	sequence	stimulus	Stuhl	NaN	NaN	32.0	NaN	NaN	5.0	4.0	NaN	NaN	NaN	NaN	NaN
128.66637569999966	0.0334	sub-08	1	sequence	interval	dot	NaN	NaN	NaN	NaN	NaN	NaN	NaN	NaN	NaN	NaN	NaN	NaN
128.69978730000005	0.1001	sub-08	1	sequence	stimulus	Schuh	NaN	NaN	32.0	NaN	NaN	4.0	5.0	NaN	NaN	NaN	NaN	NaN
128.7998746000003	0.0333	sub-08	1	sequence	interval	dot	NaN	NaN	NaN	NaN	NaN	NaN	NaN	NaN	NaN	NaN	NaN	NaN
128.83316990000003	8.5218	sub-08	1	sequence	delay	dot	NaN	NaN	NaN	NaN	NaN	NaN	NaN	NaN	NaN	NaN	NaN	NaN
137.34341210000002	0.7647	sub-08	1	sequence	choice	choice	right	NaN	NaN	-9.694873200000076	True	NaN	NaN	right	True	5.0	2.0	2.0
138.10834450000038	0.4998	sub-08	1	sequence	feedback	NaN	NaN	NaN	NaN	NaN	NaN	NaN	NaN	NaN	NaN	NaN	NaN	NaN
138.60839430000033	1.0002	sub-08	1	sequence	cue	Stuhl	NaN	NaN	NaN	NaN	NaN	NaN	NaN	NaN	NaN	NaN	NaN	NaN
139.6086204000003	2.0016	sub-08	1	sequence	blank	blank	NaN	NaN	NaN	NaN	NaN	NaN	NaN	NaN	NaN	NaN	NaN	NaN
141.61026829999992	0.3001	sub-08	1	sequence	fixation	dot	NaN	NaN	NaN	NaN	NaN	NaN	NaN	NaN	NaN	NaN	NaN	NaN
141.92883840000013	0.1151	sub-08	1	sequence	stimulus	Schuh	NaN	NaN	512.0	NaN	NaN	4.0	1.0	NaN	NaN	NaN	NaN	NaN
142.04391209999994	0.5172	sub-08	1	sequence	interval	dot	NaN	NaN	NaN	NaN	NaN	NaN	NaN	NaN	NaN	NaN	NaN	NaN
142.56106830000044	0.1	sub-08	1	sequence	stimulus	Haus	NaN	NaN	512.0	NaN	NaN	2.0	2.0	NaN	NaN	NaN	NaN	NaN
142.66107310000007	0.5171	sub-08	1	sequence	interval	dot	NaN	NaN	NaN	NaN	NaN	NaN	NaN	NaN	NaN	NaN	NaN	NaN
143.17817730000024	0.1	sub-08	1	sequence	stimulus	Katze	NaN	NaN	512.0	NaN	NaN	3.0	3.0	NaN	NaN	NaN	NaN	NaN
143.2782259000005	0.5172	sub-08	1	sequence	interval	dot	NaN	NaN	NaN	NaN	NaN	NaN	NaN	NaN	NaN	NaN	NaN	NaN
143.79546409999966	0.1	sub-08	1	sequence	stimulus	Stuhl	NaN	NaN	512.0	NaN	NaN	5.0	4.0	NaN	NaN	NaN	NaN	NaN
143.89546750000045	0.5172	sub-08	1	sequence	interval	dot	NaN	NaN	NaN	NaN	NaN	NaN	NaN	NaN	NaN	NaN	NaN	NaN
144.4126954000003	0.0999	sub-08	1	sequence	stimulus	Gesicht	NaN	NaN	512.0	NaN	NaN	1.0	5.0	NaN	NaN	NaN	NaN	NaN
144.5125662999999	0.517	sub-08	1	sequence	interval	dot	NaN	NaN	NaN	NaN	NaN	NaN	NaN	NaN	NaN	NaN	NaN	NaN
145.02956480000012	6.1367	sub-08	1	sequence	delay	dot	NaN	NaN	NaN	NaN	NaN	NaN	NaN	NaN	NaN	NaN	NaN	NaN
151.14910959999995	0.7368	sub-08	1	sequence	choice	choice	right	NaN	NaN	-9.722305000000231	True	NaN	NaN	right	True	3.0	4.0	4.0
151.88621760000024	0.4996	sub-08	1	sequence	feedback	NaN	NaN	NaN	NaN	NaN	NaN	NaN	NaN	NaN	NaN	NaN	NaN	NaN
152.3860276000005	1.0007	sub-08	1	sequence	cue	Gesicht	NaN	NaN	NaN	NaN	NaN	NaN	NaN	NaN	NaN	NaN	NaN	NaN
153.38674230000015	2.0013	sub-08	1	sequence	blank	blank	NaN	NaN	NaN	NaN	NaN	NaN	NaN	NaN	NaN	NaN	NaN	NaN
155.38808299999982	0.3004	sub-08	1	sequence	fixation	dot	NaN	NaN	NaN	NaN	NaN	NaN	NaN	NaN	NaN	NaN	NaN	NaN
155.70672900000045	0.1151	sub-08	1	sequence	stimulus	Schuh	NaN	NaN	512.0	NaN	NaN	4.0	1.0	NaN	NaN	NaN	NaN	NaN
155.8218753000001	0.5172	sub-08	1	sequence	interval	dot	NaN	NaN	NaN	NaN	NaN	NaN	NaN	NaN	NaN	NaN	NaN	NaN
156.33905950000008	0.1	sub-08	1	sequence	stimulus	Haus	NaN	NaN	512.0	NaN	NaN	2.0	2.0	NaN	NaN	NaN	NaN	NaN
156.43910119999964	0.5171	sub-08	1	sequence	interval	dot	NaN	NaN	NaN	NaN	NaN	NaN	NaN	NaN	NaN	NaN	NaN	NaN
156.95619110000007	0.0999	sub-08	1	sequence	stimulus	Katze	NaN	NaN	512.0	NaN	NaN	3.0	3.0	NaN	NaN	NaN	NaN	NaN
157.05608080000002	0.5173	sub-08	1	sequence	interval	dot	NaN	NaN	NaN	NaN	NaN	NaN	NaN	NaN	NaN	NaN	NaN	NaN
157.57335669999975	0.0999	sub-08	1	sequence	stimulus	Gesicht	NaN	NaN	512.0	NaN	NaN	1.0	4.0	NaN	NaN	NaN	NaN	NaN
157.67330560000028	0.5172	sub-08	1	sequence	interval	dot	NaN	NaN	NaN	NaN	NaN	NaN	NaN	NaN	NaN	NaN	NaN	NaN
158.19048250000014	0.0998	sub-08	1	sequence	stimulus	Stuhl	NaN	NaN	512.0	NaN	NaN	5.0	5.0	NaN	NaN	NaN	NaN	NaN
158.29032730000017	0.5172	sub-08	1	sequence	interval	dot	NaN	NaN	NaN	NaN	NaN	NaN	NaN	NaN	NaN	NaN	NaN	NaN
158.80753749999985	6.1367	sub-08	1	sequence	delay	dot	NaN	NaN	NaN	NaN	NaN	NaN	NaN	NaN	NaN	NaN	NaN	NaN
164.92873109999982	0.6848	sub-08	1	sequence	choice	choice	left	NaN	NaN	-9.772410800000216	True	NaN	NaN	left	True	4.0	3.0	4.0
165.6137902999999	0.4999	sub-08	1	sequence	feedback	NaN	NaN	NaN	NaN	NaN	NaN	NaN	NaN	NaN	NaN	NaN	NaN	NaN
166.11390279999978	1.0002	sub-08	1	sequence	cue	Haus	NaN	NaN	NaN	NaN	NaN	NaN	NaN	NaN	NaN	NaN	NaN	NaN
167.11408519999986	2.0018	sub-08	1	sequence	blank	blank	NaN	NaN	NaN	NaN	NaN	NaN	NaN	NaN	NaN	NaN	NaN	NaN
169.11584870000024	0.3001	sub-08	1	sequence	fixation	dot	NaN	NaN	NaN	NaN	NaN	NaN	NaN	NaN	NaN	NaN	NaN	NaN
169.43360380000013	0.0991	sub-08	1	sequence	stimulus	Gesicht	NaN	NaN	64.0	NaN	NaN	1.0	1.0	NaN	NaN	NaN	NaN	NaN
169.53269329999966	0.067	sub-08	1	sequence	interval	dot	NaN	NaN	NaN	NaN	NaN	NaN	NaN	NaN	NaN	NaN	NaN	NaN
169.59968339999978	0.0999	sub-08	1	sequence	stimulus	Katze	NaN	NaN	64.0	NaN	NaN	3.0	2.0	NaN	NaN	NaN	NaN	NaN
169.69961150000017	0.0669	sub-08	1	sequence	interval	dot	NaN	NaN	NaN	NaN	NaN	NaN	NaN	NaN	NaN	NaN	NaN	NaN
169.76651180000044	0.0998	sub-08	1	sequence	stimulus	Schuh	NaN	NaN	64.0	NaN	NaN	4.0	3.0	NaN	NaN	NaN	NaN	NaN
169.86629689999972	0.067	sub-08	1	sequence	interval	dot	NaN	NaN	NaN	NaN	NaN	NaN	NaN	NaN	NaN	NaN	NaN	NaN
169.93327969999973	0.0999	sub-08	1	sequence	stimulus	Stuhl	NaN	NaN	64.0	NaN	NaN	5.0	4.0	NaN	NaN	NaN	NaN	NaN
170.03321849999975	0.0669	sub-08	1	sequence	interval	dot	NaN	NaN	NaN	NaN	NaN	NaN	NaN	NaN	NaN	NaN	NaN	NaN
170.10007980000046	0.0999	sub-08	1	sequence	stimulus	Haus	NaN	NaN	64.0	NaN	NaN	2.0	5.0	NaN	NaN	NaN	NaN	NaN
170.20002079999995	0.0667	sub-08	1	sequence	interval	dot	NaN	NaN	NaN	NaN	NaN	NaN	NaN	NaN	NaN	NaN	NaN	NaN
170.26671799999986	8.3884	sub-08	1	sequence	delay	dot	NaN	NaN	NaN	NaN	NaN	NaN	NaN	NaN	NaN	NaN	NaN	NaN
178.6304243000004	0.761	sub-08	1	sequence	choice	choice	left	NaN	NaN	-9.699026299999788	True	NaN	NaN	left	True	5.0	1.0	5.0
179.39165760000014	0.4998	sub-08	1	sequence	feedback	NaN	NaN	NaN	NaN	NaN	NaN	NaN	NaN	NaN	NaN	NaN	NaN	NaN
179.8917223999997	1.0004	sub-08	1	sequence	cue	Haus	NaN	NaN	NaN	NaN	NaN	NaN	NaN	NaN	NaN	NaN	NaN	NaN
180.89211559999967	2.0016	sub-08	1	sequence	blank	blank	NaN	NaN	NaN	NaN	NaN	NaN	NaN	NaN	NaN	NaN	NaN	NaN
182.89373830000025	0.3002	sub-08	1	sequence	fixation	dot	NaN	NaN	NaN	NaN	NaN	NaN	NaN	NaN	NaN	NaN	NaN	NaN
183.22636760000023	0.1009	sub-08	1	sequence	stimulus	Stuhl	NaN	NaN	64.0	NaN	NaN	5.0	1.0	NaN	NaN	NaN	NaN	NaN
183.32730340000035	0.0667	sub-08	1	sequence	interval	dot	NaN	NaN	NaN	NaN	NaN	NaN	NaN	NaN	NaN	NaN	NaN	NaN
183.39405129999977	0.0999	sub-08	1	sequence	stimulus	Katze	NaN	NaN	64.0	NaN	NaN	3.0	2.0	NaN	NaN	NaN	NaN	NaN
183.49397219999992	0.067	sub-08	1	sequence	interval	dot	NaN	NaN	NaN	NaN	NaN	NaN	NaN	NaN	NaN	NaN	NaN	NaN
183.5609929000002	0.0999	sub-08	1	sequence	stimulus	Haus	NaN	NaN	64.0	NaN	NaN	2.0	3.0	NaN	NaN	NaN	NaN	NaN
183.66092769999975	0.0669	sub-08	1	sequence	interval	dot	NaN	NaN	NaN	NaN	NaN	NaN	NaN	NaN	NaN	NaN	NaN	NaN
183.72779009999977	0.0999	sub-08	1	sequence	stimulus	Gesicht	NaN	NaN	64.0	NaN	NaN	1.0	4.0	NaN	NaN	NaN	NaN	NaN
183.82771349999985	0.0669	sub-08	1	sequence	interval	dot	NaN	NaN	NaN	NaN	NaN	NaN	NaN	NaN	NaN	NaN	NaN	NaN
183.89458250000007	0.1	sub-08	1	sequence	stimulus	Schuh	NaN	NaN	64.0	NaN	NaN	4.0	5.0	NaN	NaN	NaN	NaN	NaN
183.9945329000002	0.0667	sub-08	1	sequence	interval	dot	NaN	NaN	NaN	NaN	NaN	NaN	NaN	NaN	NaN	NaN	NaN	NaN
184.0612303999997	8.3886	sub-08	1	sequence	delay	dot	NaN	NaN	NaN	NaN	NaN	NaN	NaN	NaN	NaN	NaN	NaN	NaN
192.43616810000003	0.6331	sub-08	1	sequence	choice	choice	right	NaN	NaN	-9.821445999999924	True	NaN	NaN	right	True	4.0	3.0	3.0
193.06949259999965	0.4999	sub-08	1	sequence	feedback	NaN	NaN	NaN	NaN	NaN	NaN	NaN	NaN	NaN	NaN	NaN	NaN	NaN
193.5695408000001	1.0003	sub-08	1	sequence	cue	Haus	NaN	NaN	NaN	NaN	NaN	NaN	NaN	NaN	NaN	NaN	NaN	NaN
194.5698536	2.0016	sub-08	1	sequence	blank	blank	NaN	NaN	NaN	NaN	NaN	NaN	NaN	NaN	NaN	NaN	NaN	NaN
196.5714743999997	0.3002	sub-08	1	sequence	fixation	dot	NaN	NaN	NaN	NaN	NaN	NaN	NaN	NaN	NaN	NaN	NaN	NaN
196.8899492999999	0.1151	sub-08	1	sequence	stimulus	Gesicht	NaN	NaN	128.0	NaN	NaN	1.0	1.0	NaN	NaN	NaN	NaN	NaN
197.0050330000004	0.1336	sub-08	1	sequence	interval	dot	NaN	NaN	NaN	NaN	NaN	NaN	NaN	NaN	NaN	NaN	NaN	NaN
197.1386513999996	0.0999	sub-08	1	sequence	stimulus	Katze	NaN	NaN	128.0	NaN	NaN	3.0	2.0	NaN	NaN	NaN	NaN	NaN
197.2385667999997	0.1336	sub-08	1	sequence	interval	dot	NaN	NaN	NaN	NaN	NaN	NaN	NaN	NaN	NaN	NaN	NaN	NaN
197.37219379999988	0.0999	sub-08	1	sequence	stimulus	Stuhl	NaN	NaN	128.0	NaN	NaN	5.0	3.0	NaN	NaN	NaN	NaN	NaN
197.47207460000027	0.1336	sub-08	1	sequence	interval	dot	NaN	NaN	NaN	NaN	NaN	NaN	NaN	NaN	NaN	NaN	NaN	NaN
197.6056878999998	0.1	sub-08	1	sequence	stimulus	Schuh	NaN	NaN	128.0	NaN	NaN	4.0	4.0	NaN	NaN	NaN	NaN	NaN
197.7057123000004	0.1335	sub-08	1	sequence	interval	dot	NaN	NaN	NaN	NaN	NaN	NaN	NaN	NaN	NaN	NaN	NaN	NaN
197.8392359999998	0.1	sub-08	1	sequence	stimulus	Haus	NaN	NaN	128.0	NaN	NaN	2.0	5.0	NaN	NaN	NaN	NaN	NaN
197.9392736	0.1334	sub-08	1	sequence	interval	dot	NaN	NaN	NaN	NaN	NaN	NaN	NaN	NaN	NaN	NaN	NaN	NaN
198.07267159999992	8.0549	sub-08	1	sequence	delay	dot	NaN	NaN	NaN	NaN	NaN	NaN	NaN	NaN	NaN	NaN	NaN	NaN
206.1118907	0.7016	sub-08	1	sequence	choice	choice	left	NaN	NaN	-9.755485300000146	True	NaN	NaN	left	True	5.0	4.0	5.0
206.81378920000043	0.4997	sub-08	1	sequence	feedback	NaN	NaN	NaN	NaN	NaN	NaN	NaN	NaN	NaN	NaN	NaN	NaN	NaN
207.3137072999998	1.0004	sub-08	1	sequence	cue	Katze	NaN	NaN	NaN	NaN	NaN	NaN	NaN	NaN	NaN	NaN	NaN	NaN
208.3141017999997	2.0016	sub-08	1	sequence	blank	blank	NaN	NaN	NaN	NaN	NaN	NaN	NaN	NaN	NaN	NaN	NaN	NaN
210.31570610000017	0.3003	sub-08	1	sequence	fixation	dot	NaN	NaN	NaN	NaN	NaN	NaN	NaN	NaN	NaN	NaN	NaN	NaN
210.6337622000001	0.1157	sub-08	1	sequence	stimulus	Gesicht	NaN	NaN	32.0	NaN	NaN	1.0	1.0	NaN	NaN	NaN	NaN	NaN
210.7494488000002	0.0335	sub-08	1	sequence	interval	dot	NaN	NaN	NaN	NaN	NaN	NaN	NaN	NaN	NaN	NaN	NaN	NaN
210.7829281000004	0.1	sub-08	1	sequence	stimulus	Haus	NaN	NaN	32.0	NaN	NaN	2.0	2.0	NaN	NaN	NaN	NaN	NaN
210.8828849000001	0.0334	sub-08	1	sequence	interval	dot	NaN	NaN	NaN	NaN	NaN	NaN	NaN	NaN	NaN	NaN	NaN	NaN
210.91633030000048	0.1	sub-08	1	sequence	stimulus	Schuh	NaN	NaN	32.0	NaN	NaN	4.0	3.0	NaN	NaN	NaN	NaN	NaN
211.01635929999972	0.035	sub-08	1	sequence	interval	dot	NaN	NaN	NaN	NaN	NaN	NaN	NaN	NaN	NaN	NaN	NaN	NaN
211.0513576000003	0.115	sub-08	1	sequence	stimulus	Stuhl	NaN	NaN	32.0	NaN	NaN	5.0	4.0	NaN	NaN	NaN	NaN	NaN
211.1663864000002	0.0335	sub-08	1	sequence	interval	dot	NaN	NaN	NaN	NaN	NaN	NaN	NaN	NaN	NaN	NaN	NaN	NaN
211.1999040000001	0.0999	sub-08	1	sequence	stimulus	Katze	NaN	NaN	32.0	NaN	NaN	3.0	5.0	NaN	NaN	NaN	NaN	NaN
211.2998434000001	0.0334	sub-08	1	sequence	interval	dot	NaN	NaN	NaN	NaN	NaN	NaN	NaN	NaN	NaN	NaN	NaN	NaN
211.3332102000004	8.5221	sub-08	1	sequence	delay	dot	NaN	NaN	NaN	NaN	NaN	NaN	NaN	NaN	NaN	NaN	NaN	NaN
219.8396631000005	0.7016	sub-08	1	sequence	choice	choice	left	NaN	NaN	-9.755125200000291	True	NaN	NaN	left	True	5.0	2.0	5.0
220.5415726000001	0.4998	sub-08	1	sequence	feedback	NaN	NaN	NaN	NaN	NaN	NaN	NaN	NaN	NaN	NaN	NaN	NaN	NaN
224.8618277000005	0.4995	sub-08	1	localizer	stimulus	Gesicht	NaN	0	2.051564700000256	NaN	True	NaN	NaN	NaN	NaN	NaN	NaN	NaN
225.3447310000001	2.0516	sub-08	1	localizer	blank	interval	NaN	NaN	NaN	NaN	NaN	NaN	NaN	NaN	NaN	NaN	NaN	NaN
227.6973694999997	0.4995	sub-08	1	localizer	stimulus	Gesicht	NaN	0	2.134831500000473	NaN	True	NaN	NaN	NaN	NaN	NaN	NaN	NaN
228.18039409999983	2.1348	sub-08	1	localizer	blank	interval	NaN	NaN	NaN	NaN	NaN	NaN	NaN	NaN	NaN	NaN	NaN	NaN
230.6164988999999	0.4993	sub-08	1	localizer	stimulus	Katze	NaN	0	1.7680856999996024	NaN	True	NaN	NaN	NaN	NaN	NaN	NaN	NaN
231.0993973000004	1.7681	sub-08	1	localizer	blank	interval	NaN	NaN	NaN	NaN	NaN	NaN	NaN	NaN	NaN	NaN	NaN	NaN
233.1684292	0.4998	sub-08	1	localizer	stimulus	Schuh	NaN	0	2.601888500000314	NaN	True	NaN	NaN	NaN	NaN	NaN	NaN	NaN
233.6515744999997	2.6019	sub-08	1	localizer	blank	interval	NaN	NaN	NaN	NaN	NaN	NaN	NaN	NaN	NaN	NaN	NaN	NaN
236.55482740000025	0.4993	sub-08	1	localizer	stimulus	Katze	NaN	0	2.7857026000001497	NaN	True	NaN	NaN	NaN	NaN	NaN	NaN	NaN
237.03756030000025	2.7857	sub-08	1	localizer	blank	interval	NaN	NaN	NaN	NaN	NaN	NaN	NaN	NaN	NaN	NaN	NaN	NaN
240.1242990000001	0.4993	sub-08	1	localizer	stimulus	Gesicht	NaN	0	2.251706799999738	NaN	True	NaN	NaN	NaN	NaN	NaN	NaN	NaN
240.60711150000043	2.2517	sub-08	1	localizer	blank	interval	NaN	NaN	NaN	NaN	NaN	NaN	NaN	NaN	NaN	NaN	NaN	NaN
243.15993009999968	0.4994	sub-08	1	localizer	stimulus	Schuh	NaN	180	2.451946399999599	-9.707554800000253	True	NaN	NaN	NaN	NaN	NaN	NaN	NaN
243.6427540000004	2.4519	sub-08	1	localizer	blank	interval	NaN	NaN	NaN	NaN	NaN	NaN	NaN	NaN	NaN	NaN	NaN	NaN
246.39577000000008	0.4996	sub-08	1	localizer	stimulus	Stuhl	NaN	0	2.6519637000000955	NaN	True	NaN	NaN	NaN	NaN	NaN	NaN	NaN
246.87881709999965	2.652	sub-08	1	localizer	blank	interval	NaN	NaN	NaN	NaN	NaN	NaN	NaN	NaN	NaN	NaN	NaN	NaN
249.8319019999999	0.4997	sub-08	1	localizer	stimulus	Schuh	NaN	0	3.202655899999627	NaN	True	NaN	NaN	NaN	NaN	NaN	NaN	NaN
250.3149097000005	3.2027	sub-08	1	localizer	blank	interval	NaN	NaN	NaN	NaN	NaN	NaN	NaN	NaN	NaN	NaN	NaN	NaN
253.8184940000001	0.4996	sub-08	1	localizer	stimulus	Gesicht	NaN	0	1.9846710000001622	NaN	True	NaN	NaN	NaN	NaN	NaN	NaN	NaN
254.30163019999964	1.9847	sub-08	1	localizer	blank	interval	NaN	NaN	NaN	NaN	NaN	NaN	NaN	NaN	NaN	NaN	NaN	NaN
256.58755219999966	0.4994	sub-08	1	localizer	stimulus	Haus	NaN	0	2.6519625000000815	NaN	True	NaN	NaN	NaN	NaN	NaN	NaN	NaN
257.07046139999966	2.652	sub-08	1	localizer	blank	interval	NaN	NaN	NaN	NaN	NaN	NaN	NaN	NaN	NaN	NaN	NaN	NaN
260.0235627000002	0.4995	sub-08	1	localizer	stimulus	Katze	NaN	180	3.085767699999451	-9.827319300000454	True	NaN	NaN	NaN	NaN	NaN	NaN	NaN
260.50658120000026	3.0858	sub-08	1	localizer	blank	interval	NaN	NaN	NaN	NaN	NaN	NaN	NaN	NaN	NaN	NaN	NaN	NaN
263.8932848000004	0.4995	sub-08	1	localizer	stimulus	Stuhl	NaN	0	2.4347037999996246	NaN	True	NaN	NaN	NaN	NaN	NaN	NaN	NaN
264.3766912000001	2.4347	sub-08	1	localizer	blank	interval	NaN	NaN	NaN	NaN	NaN	NaN	NaN	NaN	NaN	NaN	NaN	NaN
267.1125463999997	0.4996	sub-08	1	localizer	stimulus	Stuhl	NaN	0	2.551914100000431	NaN	True	NaN	NaN	NaN	NaN	NaN	NaN	NaN
267.5955028999997	2.5519	sub-08	1	localizer	blank	interval	NaN	NaN	NaN	NaN	NaN	NaN	NaN	NaN	NaN	NaN	NaN	NaN
270.4485875999999	0.4995	sub-08	1	localizer	stimulus	Katze	NaN	0	3.7862350999994305	NaN	True	NaN	NaN	NaN	NaN	NaN	NaN	NaN
270.9316912000004	3.7862	sub-08	1	localizer	blank	interval	NaN	NaN	NaN	NaN	NaN	NaN	NaN	NaN	NaN	NaN	NaN	NaN
275.0191511000003	0.4995	sub-08	1	localizer	stimulus	Katze	NaN	0	2.7186592000007863	NaN	True	NaN	NaN	NaN	NaN	NaN	NaN	NaN
275.50209819999964	2.7187	sub-08	1	localizer	blank	interval	NaN	NaN	NaN	NaN	NaN	NaN	NaN	NaN	NaN	NaN	NaN	NaN
278.52202149999994	0.4994	sub-08	1	localizer	stimulus	Haus	NaN	0	2.518586299999697	NaN	True	NaN	NaN	NaN	NaN	NaN	NaN	NaN
279.00493000000006	2.5186	sub-08	1	localizer	blank	interval	NaN	NaN	NaN	NaN	NaN	NaN	NaN	NaN	NaN	NaN	NaN	NaN
281.8247277999999	0.4995	sub-08	1	localizer	stimulus	Gesicht	NaN	180	3.7526272999993466	-9.932405300000028	True	NaN	NaN	NaN	NaN	NaN	NaN	NaN
282.3077362000004	3.7526	sub-08	1	localizer	blank	interval	NaN	NaN	NaN	NaN	NaN	NaN	NaN	NaN	NaN	NaN	NaN	NaN
286.36147119999987	0.4996	sub-08	1	localizer	stimulus	Stuhl	NaN	0	2.4685404000001654	NaN	True	NaN	NaN	NaN	NaN	NaN	NaN	NaN
286.84442339999987	2.4685	sub-08	1	localizer	blank	interval	NaN	NaN	NaN	NaN	NaN	NaN	NaN	NaN	NaN	NaN	NaN	NaN
289.6141082000004	0.4995	sub-08	1	localizer	stimulus	Haus	NaN	180	2.5519932999995945	-9.930231900000765	True	NaN	NaN	NaN	NaN	NaN	NaN	NaN
290.0970698000001	2.552	sub-08	1	localizer	blank	interval	NaN	NaN	NaN	NaN	NaN	NaN	NaN	NaN	NaN	NaN	NaN	NaN
292.9501760000003	0.5	sub-08	1	localizer	stimulus	Schuh	NaN	0	2.568579900000259	NaN	True	NaN	NaN	NaN	NaN	NaN	NaN	NaN
293.4333042999997	2.5686	sub-08	1	localizer	blank	interval	NaN	NaN	NaN	NaN	NaN	NaN	NaN	NaN	NaN	NaN	NaN	NaN
296.30285939999976	0.4994	sub-08	1	localizer	stimulus	Schuh	NaN	0	2.451833799999747	NaN	True	NaN	NaN	NaN	NaN	NaN	NaN	NaN
296.7858858	2.4518	sub-08	1	localizer	blank	interval	NaN	NaN	NaN	NaN	NaN	NaN	NaN	NaN	NaN	NaN	NaN	NaN
299.5390299999999	0.4993	sub-08	1	localizer	stimulus	Haus	NaN	0	1.9848503000002893	NaN	True	NaN	NaN	NaN	NaN	NaN	NaN	NaN
300.0219169000002	1.9849	sub-08	1	localizer	blank	interval	NaN	NaN	NaN	NaN	NaN	NaN	NaN	NaN	NaN	NaN	NaN	NaN
302.30787489999966	0.4995	sub-08	1	localizer	stimulus	Haus	NaN	0	2.585047999999915	NaN	True	NaN	NaN	NaN	NaN	NaN	NaN	NaN
302.7908994999998	2.585	sub-08	1	localizer	blank	interval	NaN	NaN	NaN	NaN	NaN	NaN	NaN	NaN	NaN	NaN	NaN	NaN
305.67704310000045	0.4996	sub-08	1	localizer	stimulus	Stuhl	NaN	180	2.017976500000259	-9.913220200000069	True	NaN	NaN	NaN	NaN	NaN	NaN	NaN
306.1601836	2.018	sub-08	1	localizer	blank	interval	NaN	NaN	NaN	NaN	NaN	NaN	NaN	NaN	NaN	NaN	NaN	NaN
311.66470930000014	1.0006	sub-08	1	sequence	cue	Stuhl	NaN	NaN	NaN	NaN	NaN	NaN	NaN	NaN	NaN	NaN	NaN	NaN
312.6653019000005	2.0017	sub-08	1	sequence	blank	blank	NaN	NaN	NaN	NaN	NaN	NaN	NaN	NaN	NaN	NaN	NaN	NaN
314.66704759999993	0.3002	sub-08	1	sequence	fixation	dot	NaN	NaN	NaN	NaN	NaN	NaN	NaN	NaN	NaN	NaN	NaN	NaN
314.9847621999997	0.0991	sub-08	1	sequence	stimulus	Schuh	NaN	NaN	512.0	NaN	NaN	4.0	1.0	NaN	NaN	NaN	NaN	NaN
315.0838517000002	0.5175	sub-08	1	sequence	interval	dot	NaN	NaN	NaN	NaN	NaN	NaN	NaN	NaN	NaN	NaN	NaN	NaN
315.6013727999998	0.0999	sub-08	1	sequence	stimulus	Haus	NaN	NaN	512.0	NaN	NaN	2.0	2.0	NaN	NaN	NaN	NaN	NaN
315.7012359999999	0.517	sub-08	1	sequence	interval	dot	NaN	NaN	NaN	NaN	NaN	NaN	NaN	NaN	NaN	NaN	NaN	NaN
316.2182331000004	0.1	sub-08	1	sequence	stimulus	Katze	NaN	NaN	512.0	NaN	NaN	3.0	3.0	NaN	NaN	NaN	NaN	NaN
316.3182404999998	0.5171	sub-08	1	sequence	interval	dot	NaN	NaN	NaN	NaN	NaN	NaN	NaN	NaN	NaN	NaN	NaN	NaN
316.83537909999995	0.1	sub-08	1	sequence	stimulus	Stuhl	NaN	NaN	512.0	NaN	NaN	5.0	4.0	NaN	NaN	NaN	NaN	NaN
316.93538629999966	0.5172	sub-08	1	sequence	interval	dot	NaN	NaN	NaN	NaN	NaN	NaN	NaN	NaN	NaN	NaN	NaN	NaN
317.4525543	0.0999	sub-08	1	sequence	stimulus	Gesicht	NaN	NaN	512.0	NaN	NaN	1.0	5.0	NaN	NaN	NaN	NaN	NaN
317.5524954000002	0.5171	sub-08	1	sequence	interval	dot	NaN	NaN	NaN	NaN	NaN	NaN	NaN	NaN	NaN	NaN	NaN	NaN
318.06961729999966	6.1535	sub-08	1	sequence	delay	dot	NaN	NaN	NaN	NaN	NaN	NaN	NaN	NaN	NaN	NaN	NaN	NaN
324.2014194000003	0.7578	sub-08	1	sequence	choice	choice	right	NaN	NaN	-9.70688650000102	True	NaN	NaN	right	True	5.0	4.0	4.0
324.9595804999999	0.4997	sub-08	1	sequence	feedback	NaN	NaN	NaN	NaN	NaN	NaN	NaN	NaN	NaN	NaN	NaN	NaN	NaN
325.4595336000002	1.0002	sub-08	1	sequence	cue	Katze	NaN	NaN	NaN	NaN	NaN	NaN	NaN	NaN	NaN	NaN	NaN	NaN
326.4597947000002	2.0017	sub-08	1	sequence	blank	blank	NaN	NaN	NaN	NaN	NaN	NaN	NaN	NaN	NaN	NaN	NaN	NaN
328.4615032000001	0.3003	sub-08	1	sequence	fixation	dot	NaN	NaN	NaN	NaN	NaN	NaN	NaN	NaN	NaN	NaN	NaN	NaN
328.7951370999999	0.0998	sub-08	1	sequence	stimulus	Gesicht	NaN	NaN	32.0	NaN	NaN	1.0	1.0	NaN	NaN	NaN	NaN	NaN
328.89495739999984	0.0336	sub-08	1	sequence	interval	dot	NaN	NaN	NaN	NaN	NaN	NaN	NaN	NaN	NaN	NaN	NaN	NaN
328.9285571999999	0.0998	sub-08	1	sequence	stimulus	Katze	NaN	NaN	32.0	NaN	NaN	3.0	2.0	NaN	NaN	NaN	NaN	NaN
329.02840410000044	0.0335	sub-08	1	sequence	interval	dot	NaN	NaN	NaN	NaN	NaN	NaN	NaN	NaN	NaN	NaN	NaN	NaN
329.0618953000003	0.1	sub-08	1	sequence	stimulus	Haus	NaN	NaN	32.0	NaN	NaN	2.0	3.0	NaN	NaN	NaN	NaN	NaN
329.16193079999994	0.0334	sub-08	1	sequence	interval	dot	NaN	NaN	NaN	NaN	NaN	NaN	NaN	NaN	NaN	NaN	NaN	NaN
329.19531819999975	0.0999	sub-08	1	sequence	stimulus	Stuhl	NaN	NaN	32.0	NaN	NaN	5.0	4.0	NaN	NaN	NaN	NaN	NaN
329.2952535000004	0.0335	sub-08	1	sequence	interval	dot	NaN	NaN	NaN	NaN	NaN	NaN	NaN	NaN	NaN	NaN	NaN	NaN
329.3287656000002	0.0999	sub-08	1	sequence	stimulus	Schuh	NaN	NaN	32.0	NaN	NaN	4.0	5.0	NaN	NaN	NaN	NaN	NaN
329.4287105000003	0.0335	sub-08	1	sequence	interval	dot	NaN	NaN	NaN	NaN	NaN	NaN	NaN	NaN	NaN	NaN	NaN	NaN
329.46220189999985	8.5387	sub-08	1	sequence	delay	dot	NaN	NaN	NaN	NaN	NaN	NaN	NaN	NaN	NaN	NaN	NaN	NaN
337.98118840000006	0.739	sub-08	1	sequence	choice	choice	right	NaN	NaN	-9.716348400000244	True	NaN	NaN	right	True	3.0	2.0	2.0
338.7204769	0.4998	sub-08	1	sequence	feedback	NaN	NaN	NaN	NaN	NaN	NaN	NaN	NaN	NaN	NaN	NaN	NaN	NaN
339.2204746999996	1.0003	sub-08	1	sequence	cue	Katze	NaN	NaN	NaN	NaN	NaN	NaN	NaN	NaN	NaN	NaN	NaN	NaN
340.2208277999998	2.0018	sub-08	1	sequence	blank	blank	NaN	NaN	NaN	NaN	NaN	NaN	NaN	NaN	NaN	NaN	NaN	NaN
342.2226225000004	0.3001	sub-08	1	sequence	fixation	dot	NaN	NaN	NaN	NaN	NaN	NaN	NaN	NaN	NaN	NaN	NaN	NaN
342.54098890000023	0.1154	sub-08	1	sequence	stimulus	Schuh	NaN	NaN	512.0	NaN	NaN	4.0	1.0	NaN	NaN	NaN	NaN	NaN
342.65635759999986	0.5171	sub-08	1	sequence	interval	dot	NaN	NaN	NaN	NaN	NaN	NaN	NaN	NaN	NaN	NaN	NaN	NaN
343.17347489999975	0.1001	sub-08	1	sequence	stimulus	Haus	NaN	NaN	512.0	NaN	NaN	2.0	2.0	NaN	NaN	NaN	NaN	NaN
343.27355439999974	0.5172	sub-08	1	sequence	interval	dot	NaN	NaN	NaN	NaN	NaN	NaN	NaN	NaN	NaN	NaN	NaN	NaN
343.7907365000001	0.0999	sub-08	1	sequence	stimulus	Katze	NaN	NaN	512.0	NaN	NaN	3.0	3.0	NaN	NaN	NaN	NaN	NaN
343.89066699999967	0.5173	sub-08	1	sequence	interval	dot	NaN	NaN	NaN	NaN	NaN	NaN	NaN	NaN	NaN	NaN	NaN	NaN
344.4079187999996	0.0999	sub-08	1	sequence	stimulus	Gesicht	NaN	NaN	512.0	NaN	NaN	1.0	4.0	NaN	NaN	NaN	NaN	NaN
344.5078497000004	0.5172	sub-08	1	sequence	interval	dot	NaN	NaN	NaN	NaN	NaN	NaN	NaN	NaN	NaN	NaN	NaN	NaN
345.02508510000007	0.0999	sub-08	1	sequence	stimulus	Stuhl	NaN	NaN	512.0	NaN	NaN	5.0	5.0	NaN	NaN	NaN	NaN	NaN
345.1249737999997	0.5169	sub-08	1	sequence	interval	dot	NaN	NaN	NaN	NaN	NaN	NaN	NaN	NaN	NaN	NaN	NaN	NaN
345.64189970000007	6.1702	sub-08	1	sequence	delay	dot	NaN	NaN	NaN	NaN	NaN	NaN	NaN	NaN	NaN	NaN	NaN	NaN
351.7868754000001	0.7279	sub-08	1	sequence	choice	choice	left	NaN	NaN	-9.743636200000765	True	NaN	NaN	left	True	3.0	5.0	3.0
352.51501780000035	0.4997	sub-08	1	sequence	feedback	NaN	NaN	NaN	NaN	NaN	NaN	NaN	NaN	NaN	NaN	NaN	NaN	NaN
353.014819	1.0008	sub-08	1	sequence	cue	Haus	NaN	NaN	NaN	NaN	NaN	NaN	NaN	NaN	NaN	NaN	NaN	NaN
354.0156093000005	2.0016	sub-08	1	sequence	blank	blank	NaN	NaN	NaN	NaN	NaN	NaN	NaN	NaN	NaN	NaN	NaN	NaN
356.0171843999997	0.3001	sub-08	1	sequence	fixation	dot	NaN	NaN	NaN	NaN	NaN	NaN	NaN	NaN	NaN	NaN	NaN	NaN
356.33488430000034	0.0992	sub-08	1	sequence	stimulus	Gesicht	NaN	NaN	128.0	NaN	NaN	1.0	1.0	NaN	NaN	NaN	NaN	NaN
356.43405040000016	0.1337	sub-08	1	sequence	interval	dot	NaN	NaN	NaN	NaN	NaN	NaN	NaN	NaN	NaN	NaN	NaN	NaN
356.56773189999967	0.0998	sub-08	1	sequence	stimulus	Katze	NaN	NaN	128.0	NaN	NaN	3.0	2.0	NaN	NaN	NaN	NaN	NaN
356.6675028	0.1346	sub-08	1	sequence	interval	dot	NaN	NaN	NaN	NaN	NaN	NaN	NaN	NaN	NaN	NaN	NaN	NaN
356.8020929000004	0.1157	sub-08	1	sequence	stimulus	Stuhl	NaN	NaN	128.0	NaN	NaN	5.0	3.0	NaN	NaN	NaN	NaN	NaN
356.9177440000003	0.1335	sub-08	1	sequence	interval	dot	NaN	NaN	NaN	NaN	NaN	NaN	NaN	NaN	NaN	NaN	NaN	NaN
357.0512824999996	0.0999	sub-08	1	sequence	stimulus	Schuh	NaN	NaN	128.0	NaN	NaN	4.0	4.0	NaN	NaN	NaN	NaN	NaN
357.1512061000003	0.1337	sub-08	1	sequence	interval	dot	NaN	NaN	NaN	NaN	NaN	NaN	NaN	NaN	NaN	NaN	NaN	NaN
357.28487849999965	0.1	sub-08	1	sequence	stimulus	Haus	NaN	NaN	128.0	NaN	NaN	2.0	5.0	NaN	NaN	NaN	NaN	NaN
357.3848472999998	0.1334	sub-08	1	sequence	interval	dot	NaN	NaN	NaN	NaN	NaN	NaN	NaN	NaN	NaN	NaN	NaN	NaN
357.5182936000001	8.0717	sub-08	1	sequence	delay	dot	NaN	NaN	NaN	NaN	NaN	NaN	NaN	NaN	NaN	NaN	NaN	NaN
365.5665369999997	0.6927	sub-08	1	sequence	choice	choice	right	NaN	NaN	-9.778191999999764	True	NaN	NaN	right	True	3.0	5.0	5.0
366.2594941999996	0.4998	sub-08	1	sequence	feedback	NaN	NaN	NaN	NaN	NaN	NaN	NaN	NaN	NaN	NaN	NaN	NaN	NaN
366.7594102000003	1.0005	sub-08	1	sequence	cue	Katze	NaN	NaN	NaN	NaN	NaN	NaN	NaN	NaN	NaN	NaN	NaN	NaN
367.7599020999997	2.0016	sub-08	1	sequence	blank	blank	NaN	NaN	NaN	NaN	NaN	NaN	NaN	NaN	NaN	NaN	NaN	NaN
369.7614875999998	0.3002	sub-08	1	sequence	fixation	dot	NaN	NaN	NaN	NaN	NaN	NaN	NaN	NaN	NaN	NaN	NaN	NaN
370.0794530000003	0.1156	sub-08	1	sequence	stimulus	Gesicht	NaN	NaN	32.0	NaN	NaN	1.0	1.0	NaN	NaN	NaN	NaN	NaN
370.1950415000001	0.0335	sub-08	1	sequence	interval	dot	NaN	NaN	NaN	NaN	NaN	NaN	NaN	NaN	NaN	NaN	NaN	NaN
370.2285572999999	0.0999	sub-08	1	sequence	stimulus	Haus	NaN	NaN	32.0	NaN	NaN	2.0	2.0	NaN	NaN	NaN	NaN	NaN
370.3284543999998	0.0335	sub-08	1	sequence	interval	dot	NaN	NaN	NaN	NaN	NaN	NaN	NaN	NaN	NaN	NaN	NaN	NaN
370.3619491999998	0.1	sub-08	1	sequence	stimulus	Schuh	NaN	NaN	32.0	NaN	NaN	4.0	3.0	NaN	NaN	NaN	NaN	NaN
370.4619198	0.0335	sub-08	1	sequence	interval	dot	NaN	NaN	NaN	NaN	NaN	NaN	NaN	NaN	NaN	NaN	NaN	NaN
370.4954128	0.0999	sub-08	1	sequence	stimulus	Stuhl	NaN	NaN	32.0	NaN	NaN	5.0	4.0	NaN	NaN	NaN	NaN	NaN
370.59535229999983	0.0335	sub-08	1	sequence	interval	dot	NaN	NaN	NaN	NaN	NaN	NaN	NaN	NaN	NaN	NaN	NaN	NaN
370.62884159999976	0.1001	sub-08	1	sequence	stimulus	Katze	NaN	NaN	32.0	NaN	NaN	3.0	5.0	NaN	NaN	NaN	NaN	NaN
370.7289449	0.0334	sub-08	1	sequence	interval	dot	NaN	NaN	NaN	NaN	NaN	NaN	NaN	NaN	NaN	NaN	NaN	NaN
370.76237200000014	8.5219	sub-08	1	sequence	delay	dot	NaN	NaN	NaN	NaN	NaN	NaN	NaN	NaN	NaN	NaN	NaN	NaN
379.2683568000002	0.702	sub-08	1	sequence	choice	choice	left	NaN	NaN	-9.760023400000136	True	NaN	NaN	left	True	5.0	4.0	5.0
379.97064500000033	0.4997	sub-08	1	sequence	feedback	NaN	NaN	NaN	NaN	NaN	NaN	NaN	NaN	NaN	NaN	NaN	NaN	NaN
380.4704794999998	1.0004	sub-08	1	sequence	cue	Katze	NaN	NaN	NaN	NaN	NaN	NaN	NaN	NaN	NaN	NaN	NaN	NaN
381.4708432999996	2.0018	sub-08	1	sequence	blank	blank	NaN	NaN	NaN	NaN	NaN	NaN	NaN	NaN	NaN	NaN	NaN	NaN
383.4726983000001	0.3002	sub-08	1	sequence	fixation	dot	NaN	NaN	NaN	NaN	NaN	NaN	NaN	NaN	NaN	NaN	NaN	NaN
383.7914160999999	0.1148	sub-08	1	sequence	stimulus	Gesicht	NaN	NaN	128.0	NaN	NaN	1.0	1.0	NaN	NaN	NaN	NaN	NaN
383.9062181999998	0.1336	sub-08	1	sequence	interval	dot	NaN	NaN	NaN	NaN	NaN	NaN	NaN	NaN	NaN	NaN	NaN	NaN
384.0397939000004	0.1	sub-08	1	sequence	stimulus	Katze	NaN	NaN	128.0	NaN	NaN	3.0	2.0	NaN	NaN	NaN	NaN	NaN
384.13974979999966	0.1338	sub-08	1	sequence	interval	dot	NaN	NaN	NaN	NaN	NaN	NaN	NaN	NaN	NaN	NaN	NaN	NaN
384.2735456999999	0.0998	sub-08	1	sequence	stimulus	Schuh	NaN	NaN	128.0	NaN	NaN	4.0	3.0	NaN	NaN	NaN	NaN	NaN
384.3733773000004	0.1335	sub-08	1	sequence	interval	dot	NaN	NaN	NaN	NaN	NaN	NaN	NaN	NaN	NaN	NaN	NaN	NaN
384.50688999999966	0.0999	sub-08	1	sequence	stimulus	Haus	NaN	NaN	128.0	NaN	NaN	2.0	4.0	NaN	NaN	NaN	NaN	NaN
384.6068303000002	0.1336	sub-08	1	sequence	interval	dot	NaN	NaN	NaN	NaN	NaN	NaN	NaN	NaN	NaN	NaN	NaN	NaN
384.74040500000046	0.0999	sub-08	1	sequence	stimulus	Stuhl	NaN	NaN	128.0	NaN	NaN	5.0	5.0	NaN	NaN	NaN	NaN	NaN
384.8403539000001	0.1334	sub-08	1	sequence	interval	dot	NaN	NaN	NaN	NaN	NaN	NaN	NaN	NaN	NaN	NaN	NaN	NaN
384.9737918999999	8.0715	sub-08	1	sequence	delay	dot	NaN	NaN	NaN	NaN	NaN	NaN	NaN	NaN	NaN	NaN	NaN	NaN
393.0219726000005	1.0098	sub-08	1	sequence	choice	choice	right	NaN	NaN	-9.449386199999935	True	NaN	NaN	right	True	3.0	2.0	2.0
394.0319849999996	0.4999	sub-08	1	sequence	feedback	NaN	NaN	NaN	NaN	NaN	NaN	NaN	NaN	NaN	NaN	NaN	NaN	NaN
394.5320683	1.0003	sub-08	1	sequence	cue	Schuh	NaN	NaN	NaN	NaN	NaN	NaN	NaN	NaN	NaN	NaN	NaN	NaN
395.5323373000001	2.0016	sub-08	1	sequence	blank	blank	NaN	NaN	NaN	NaN	NaN	NaN	NaN	NaN	NaN	NaN	NaN	NaN
397.53389609999977	0.3002	sub-08	1	sequence	fixation	dot	NaN	NaN	NaN	NaN	NaN	NaN	NaN	NaN	NaN	NaN	NaN	NaN
397.8516179999997	0.0992	sub-08	1	sequence	stimulus	Stuhl	NaN	NaN	64.0	NaN	NaN	5.0	1.0	NaN	NaN	NaN	NaN	NaN
397.9507857999997	0.0669	sub-08	1	sequence	interval	dot	NaN	NaN	NaN	NaN	NaN	NaN	NaN	NaN	NaN	NaN	NaN	NaN
398.0176655000005	0.1	sub-08	1	sequence	stimulus	Katze	NaN	NaN	64.0	NaN	NaN	3.0	2.0	NaN	NaN	NaN	NaN	NaN
398.1176733000002	0.0668	sub-08	1	sequence	interval	dot	NaN	NaN	NaN	NaN	NaN	NaN	NaN	NaN	NaN	NaN	NaN	NaN
398.1844779000003	0.1001	sub-08	1	sequence	stimulus	Haus	NaN	NaN	64.0	NaN	NaN	2.0	3.0	NaN	NaN	NaN	NaN	NaN
398.2845497999997	0.0667	sub-08	1	sequence	interval	dot	NaN	NaN	NaN	NaN	NaN	NaN	NaN	NaN	NaN	NaN	NaN	NaN
398.3512719	0.1	sub-08	1	sequence	stimulus	Gesicht	NaN	NaN	64.0	NaN	NaN	1.0	4.0	NaN	NaN	NaN	NaN	NaN
398.4512672999999	0.0669	sub-08	1	sequence	interval	dot	NaN	NaN	NaN	NaN	NaN	NaN	NaN	NaN	NaN	NaN	NaN	NaN
398.5181266	0.1	sub-08	1	sequence	stimulus	Schuh	NaN	NaN	64.0	NaN	NaN	4.0	5.0	NaN	NaN	NaN	NaN	NaN
398.6181497999996	0.0667	sub-08	1	sequence	interval	dot	NaN	NaN	NaN	NaN	NaN	NaN	NaN	NaN	NaN	NaN	NaN	NaN
398.6848237000004	8.372	sub-08	1	sequence	delay	dot	NaN	NaN	NaN	NaN	NaN	NaN	NaN	NaN	NaN	NaN	NaN	NaN
407.0360231000004	0.8235	sub-08	1	sequence	choice	choice	left	NaN	NaN	-9.636101099999903	True	NaN	NaN	left	True	5.0	1.0	5.0
407.8598154000001	0.4999	sub-08	1	sequence	feedback	NaN	NaN	NaN	NaN	NaN	NaN	NaN	NaN	NaN	NaN	NaN	NaN	NaN
408.3598069999998	1.0003	sub-08	1	sequence	cue	Gesicht	NaN	NaN	NaN	NaN	NaN	NaN	NaN	NaN	NaN	NaN	NaN	NaN
409.3600884999996	2.0016	sub-08	1	sequence	blank	blank	NaN	NaN	NaN	NaN	NaN	NaN	NaN	NaN	NaN	NaN	NaN	NaN
411.3616756000001	0.3004	sub-08	1	sequence	fixation	dot	NaN	NaN	NaN	NaN	NaN	NaN	NaN	NaN	NaN	NaN	NaN	NaN
411.6804615000001	0.1149	sub-08	1	sequence	stimulus	Gesicht	NaN	NaN	64.0	NaN	NaN	1.0	1.0	NaN	NaN	NaN	NaN	NaN
411.7953914999998	0.0668	sub-08	1	sequence	interval	dot	NaN	NaN	NaN	NaN	NaN	NaN	NaN	NaN	NaN	NaN	NaN	NaN
411.86218389999976	0.1	sub-08	1	sequence	stimulus	Katze	NaN	NaN	64.0	NaN	NaN	3.0	2.0	NaN	NaN	NaN	NaN	NaN
411.9621690000004	0.0669	sub-08	1	sequence	interval	dot	NaN	NaN	NaN	NaN	NaN	NaN	NaN	NaN	NaN	NaN	NaN	NaN
412.0290399000005	0.1	sub-08	1	sequence	stimulus	Schuh	NaN	NaN	64.0	NaN	NaN	4.0	3.0	NaN	NaN	NaN	NaN	NaN
412.1290305000002	0.0668	sub-08	1	sequence	interval	dot	NaN	NaN	NaN	NaN	NaN	NaN	NaN	NaN	NaN	NaN	NaN	NaN
412.1958780000005	0.0999	sub-08	1	sequence	stimulus	Stuhl	NaN	NaN	64.0	NaN	NaN	5.0	4.0	NaN	NaN	NaN	NaN	NaN
412.2958236000004	0.0668	sub-08	1	sequence	interval	dot	NaN	NaN	NaN	NaN	NaN	NaN	NaN	NaN	NaN	NaN	NaN	NaN
412.3626583000005	0.0999	sub-08	1	sequence	stimulus	Haus	NaN	NaN	64.0	NaN	NaN	2.0	5.0	NaN	NaN	NaN	NaN	NaN
412.4625418000005	0.0668	sub-08	1	sequence	interval	dot	NaN	NaN	NaN	NaN	NaN	NaN	NaN	NaN	NaN	NaN	NaN	NaN
412.5293886999998	8.3885	sub-08	1	sequence	delay	dot	NaN	NaN	NaN	NaN	NaN	NaN	NaN	NaN	NaN	NaN	NaN	NaN
420.8933792999997	0.6105	sub-08	1	sequence	choice	choice	left	NaN	NaN	-9.849189799999294	True	NaN	NaN	left	True	1.0	3.0	1.0
421.5040882000003	0.4997	sub-08	1	sequence	feedback	NaN	NaN	NaN	NaN	NaN	NaN	NaN	NaN	NaN	NaN	NaN	NaN	NaN
422.0041511	10.4751	sub-08	1	other	break	break	NaN	NaN	NaN	NaN	NaN	NaN	NaN	NaN	NaN	NaN	NaN	NaN
436.2995120000005	0.4996	sub-08	1	localizer	stimulus	Gesicht	NaN	0	2.81886299999951	NaN	True	NaN	NaN	NaN	NaN	NaN	NaN	NaN
436.7990955000005	2.8189	sub-08	1	localizer	blank	interval	NaN	NaN	NaN	NaN	NaN	NaN	NaN	NaN	NaN	NaN	NaN	NaN
439.9191013	0.4994	sub-08	1	localizer	stimulus	Katze	NaN	0	2.9690160000000105	NaN	True	NaN	NaN	NaN	NaN	NaN	NaN	NaN
440.4019927999998	2.969	sub-08	1	localizer	blank	interval	NaN	NaN	NaN	NaN	NaN	NaN	NaN	NaN	NaN	NaN	NaN	NaN
443.67400160000034	0.5142	sub-08	1	localizer	stimulus	Gesicht	NaN	0	2.668849599999703	NaN	True	NaN	NaN	NaN	NaN	NaN	NaN	NaN
444.1549734	2.6688	sub-08	1	localizer	blank	interval	NaN	NaN	NaN	NaN	NaN	NaN	NaN	NaN	NaN	NaN	NaN	NaN
447.12488740000026	0.4996	sub-08	1	localizer	stimulus	Schuh	NaN	0	2.835315499999581	NaN	True	NaN	NaN	NaN	NaN	NaN	NaN	NaN
447.6079384000004	2.8353	sub-08	1	localizer	blank	interval	NaN	NaN	NaN	NaN	NaN	NaN	NaN	NaN	NaN	NaN	NaN	NaN
450.7445297000004	0.4995	sub-08	1	localizer	stimulus	Gesicht	NaN	0	2.885614699999735	NaN	True	NaN	NaN	NaN	NaN	NaN	NaN	NaN
451.227425	2.8856	sub-08	1	localizer	blank	interval	NaN	NaN	NaN	NaN	NaN	NaN	NaN	NaN	NaN	NaN	NaN	NaN
454.4141768	0.4996	sub-08	1	localizer	stimulus	Haus	NaN	180	2.5352765999996336	-9.889590200000384	True	NaN	NaN	NaN	NaN	NaN	NaN	NaN
454.8971969000004	2.5353	sub-08	1	localizer	blank	interval	NaN	NaN	NaN	NaN	NaN	NaN	NaN	NaN	NaN	NaN	NaN	NaN
457.73340180000014	0.4995	sub-08	1	localizer	stimulus	Katze	NaN	0	3.8196405999997296	NaN	True	NaN	NaN	NaN	NaN	NaN	NaN	NaN
458.2163700000001	3.8196	sub-08	1	localizer	blank	interval	NaN	NaN	NaN	NaN	NaN	NaN	NaN	NaN	NaN	NaN	NaN	NaN
462.3372175000004	0.4994	sub-08	1	localizer	stimulus	Katze	NaN	0	2.6519973000005166	NaN	True	NaN	NaN	NaN	NaN	NaN	NaN	NaN
462.8200993	2.652	sub-08	1	localizer	blank	interval	NaN	NaN	NaN	NaN	NaN	NaN	NaN	NaN	NaN	NaN	NaN	NaN
465.7733085	0.4994	sub-08	1	localizer	stimulus	Haus	NaN	0	2.868917299999339	NaN	True	NaN	NaN	NaN	NaN	NaN	NaN	NaN
466.2562746000003	2.8689	sub-08	1	localizer	blank	interval	NaN	NaN	NaN	NaN	NaN	NaN	NaN	NaN	NaN	NaN	NaN	NaN
469.42625990000033	0.4997	sub-08	1	localizer	stimulus	Stuhl	NaN	0	2.5017023000000336	NaN	True	NaN	NaN	NaN	NaN	NaN	NaN	NaN
469.9093106999999	2.5017	sub-08	1	localizer	blank	interval	NaN	NaN	NaN	NaN	NaN	NaN	NaN	NaN	NaN	NaN	NaN	NaN
472.71218640000006	0.4995	sub-08	1	localizer	stimulus	Stuhl	NaN	0	2.4353588999993008	NaN	True	NaN	NaN	NaN	NaN	NaN	NaN	NaN
473.1951574000004	2.4354	sub-08	1	localizer	blank	interval	NaN	NaN	NaN	NaN	NaN	NaN	NaN	NaN	NaN	NaN	NaN	NaN
475.9314879000003	0.4996	sub-08	1	localizer	stimulus	Haus	NaN	0	2.7519121000004247	NaN	True	NaN	NaN	NaN	NaN	NaN	NaN	NaN
476.4145853999999	2.7519	sub-08	1	localizer	blank	interval	NaN	NaN	NaN	NaN	NaN	NaN	NaN	NaN	NaN	NaN	NaN	NaN
479.46766600000046	0.4995	sub-08	1	localizer	stimulus	Haus	NaN	0	2.5687317999999664	NaN	True	NaN	NaN	NaN	NaN	NaN	NaN	NaN
479.9506394999999	2.5687	sub-08	1	localizer	blank	interval	NaN	NaN	NaN	NaN	NaN	NaN	NaN	NaN	NaN	NaN	NaN	NaN
482.8203953000002	0.4995	sub-08	1	localizer	stimulus	Schuh	NaN	180	2.351897899999983	-9.88693400000011	True	NaN	NaN	NaN	NaN	NaN	NaN	NaN
483.3033077999999	2.3519	sub-08	1	localizer	blank	interval	NaN	NaN	NaN	NaN	NaN	NaN	NaN	NaN	NaN	NaN	NaN	NaN
485.9563224000003	0.4995	sub-08	1	localizer	stimulus	Stuhl	NaN	0	2.468550900000082	NaN	True	NaN	NaN	NaN	NaN	NaN	NaN	NaN
486.4392710000002	2.4686	sub-08	1	localizer	blank	interval	NaN	NaN	NaN	NaN	NaN	NaN	NaN	NaN	NaN	NaN	NaN	NaN
489.2089102	0.4995	sub-08	1	localizer	stimulus	Schuh	NaN	0	2.8186299999997573	NaN	True	NaN	NaN	NaN	NaN	NaN	NaN	NaN
489.69197520000034	2.8186	sub-08	1	localizer	blank	interval	NaN	NaN	NaN	NaN	NaN	NaN	NaN	NaN	NaN	NaN	NaN	NaN
492.8117536	0.4995	sub-08	1	localizer	stimulus	Katze	NaN	180	2.0515299999997296	-9.815652799999953	True	NaN	NaN	NaN	NaN	NaN	NaN	NaN
493.2949034000003	2.0515	sub-08	1	localizer	blank	interval	NaN	NaN	NaN	NaN	NaN	NaN	NaN	NaN	NaN	NaN	NaN	NaN
495.6473857000001	0.4996	sub-08	1	localizer	stimulus	Schuh	NaN	0	3.2691070000000764	NaN	True	NaN	NaN	NaN	NaN	NaN	NaN	NaN
496.1304220000002	3.2691	sub-08	1	localizer	blank	interval	NaN	NaN	NaN	NaN	NaN	NaN	NaN	NaN	NaN	NaN	NaN	NaN
499.7006702999997	0.4995	sub-08	1	localizer	stimulus	Schuh	NaN	0	2.3350339999996663	NaN	True	NaN	NaN	NaN	NaN	NaN	NaN	NaN
500.183669	2.335	sub-08	1	localizer	blank	interval	NaN	NaN	NaN	NaN	NaN	NaN	NaN	NaN	NaN	NaN	NaN	NaN
502.81990289999976	0.4994	sub-08	1	localizer	stimulus	Haus	NaN	0	2.118156999999883	NaN	True	NaN	NaN	NaN	NaN	NaN	NaN	NaN
503.3028671000002	2.1182	sub-08	1	localizer	blank	interval	NaN	NaN	NaN	NaN	NaN	NaN	NaN	NaN	NaN	NaN	NaN	NaN
505.72219529999984	0.4996	sub-08	1	localizer	stimulus	Gesicht	NaN	0	2.3349519000003056	-9.630286800000247	False	NaN	NaN	NaN	NaN	NaN	NaN	NaN
506.2052790999997	2.335	sub-08	1	localizer	blank	interval	NaN	NaN	NaN	NaN	NaN	NaN	NaN	NaN	NaN	NaN	NaN	NaN
508.8420460999996	0.5155	sub-08	1	localizer	stimulus	Gesicht	NaN	180	1.6512542999999482	-9.902290600000017	True	NaN	NaN	NaN	NaN	NaN	NaN	NaN
509.3243903000002	1.6513	sub-08	1	localizer	blank	interval	NaN	NaN	NaN	NaN	NaN	NaN	NaN	NaN	NaN	NaN	NaN	NaN
511.2767454000005	0.4995	sub-08	1	localizer	stimulus	Stuhl	NaN	0	1.3840955000005124	NaN	True	NaN	NaN	NaN	NaN	NaN	NaN	NaN
511.7598860999997	1.3841	sub-08	1	localizer	blank	interval	NaN	NaN	NaN	NaN	NaN	NaN	NaN	NaN	NaN	NaN	NaN	NaN
513.4450401000004	0.4996	sub-08	1	localizer	stimulus	Katze	NaN	0	2.935671000000184	NaN	True	NaN	NaN	NaN	NaN	NaN	NaN	NaN
513.9281523999998	2.9357	sub-08	1	localizer	blank	interval	NaN	NaN	NaN	NaN	NaN	NaN	NaN	NaN	NaN	NaN	NaN	NaN
517.1649232999998	0.4995	sub-08	1	localizer	stimulus	Stuhl	NaN	180	2.801928200000475	-9.85538919999999	True	NaN	NaN	NaN	NaN	NaN	NaN	NaN
517.6479259999996	2.8019	sub-08	1	localizer	blank	interval	NaN	NaN	NaN	NaN	NaN	NaN	NaN	NaN	NaN	NaN	NaN	NaN
523.9363045999999	1.0006	sub-08	1	sequence	cue	Haus	NaN	NaN	NaN	NaN	NaN	NaN	NaN	NaN	NaN	NaN	NaN	NaN
524.9368973999999	2.0016	sub-08	1	sequence	blank	blank	NaN	NaN	NaN	NaN	NaN	NaN	NaN	NaN	NaN	NaN	NaN	NaN
526.9384805	0.3002	sub-08	1	sequence	fixation	dot	NaN	NaN	NaN	NaN	NaN	NaN	NaN	NaN	NaN	NaN	NaN	NaN
527.2564328999997	0.0991	sub-08	1	sequence	stimulus	Schuh	NaN	NaN	512.0	NaN	NaN	4.0	1.0	NaN	NaN	NaN	NaN	NaN
527.3555744000005	0.5172	sub-08	1	sequence	interval	dot	NaN	NaN	NaN	NaN	NaN	NaN	NaN	NaN	NaN	NaN	NaN	NaN
527.8727792999998	0.0999	sub-08	1	sequence	stimulus	Haus	NaN	NaN	512.0	NaN	NaN	2.0	2.0	NaN	NaN	NaN	NaN	NaN
527.9726729000004	0.5173	sub-08	1	sequence	interval	dot	NaN	NaN	NaN	NaN	NaN	NaN	NaN	NaN	NaN	NaN	NaN	NaN
528.4899821999998	0.1	sub-08	1	sequence	stimulus	Katze	NaN	NaN	512.0	NaN	NaN	3.0	3.0	NaN	NaN	NaN	NaN	NaN
528.5899575000003	0.5171	sub-08	1	sequence	interval	dot	NaN	NaN	NaN	NaN	NaN	NaN	NaN	NaN	NaN	NaN	NaN	NaN
529.1070867999997	0.1	sub-08	1	sequence	stimulus	Gesicht	NaN	NaN	512.0	NaN	NaN	1.0	4.0	NaN	NaN	NaN	NaN	NaN
529.2070397999996	0.5173	sub-08	1	sequence	interval	dot	NaN	NaN	NaN	NaN	NaN	NaN	NaN	NaN	NaN	NaN	NaN	NaN
529.7243125000005	0.1	sub-08	1	sequence	stimulus	Stuhl	NaN	NaN	512.0	NaN	NaN	5.0	5.0	NaN	NaN	NaN	NaN	NaN
529.8243185000001	0.517	sub-08	1	sequence	interval	dot	NaN	NaN	NaN	NaN	NaN	NaN	NaN	NaN	NaN	NaN	NaN	NaN
530.3412981000001	6.1702	sub-08	1	sequence	delay	dot	NaN	NaN	NaN	NaN	NaN	NaN	NaN	NaN	NaN	NaN	NaN	NaN
536.4869884	0.6772	sub-08	1	sequence	choice	choice	left	NaN	NaN	-9.794846300000245	True	NaN	NaN	left	True	2.0	4.0	2.0
537.1645381999997	0.4997	sub-08	1	sequence	feedback	NaN	NaN	NaN	NaN	NaN	NaN	NaN	NaN	NaN	NaN	NaN	NaN	NaN
537.6644814000001	1.0001	sub-08	1	sequence	cue	Katze	NaN	NaN	NaN	NaN	NaN	NaN	NaN	NaN	NaN	NaN	NaN	NaN
538.6646240999999	2.0016	sub-08	1	sequence	blank	blank	NaN	NaN	NaN	NaN	NaN	NaN	NaN	NaN	NaN	NaN	NaN	NaN
540.6662374999996	0.3002	sub-08	1	sequence	fixation	dot	NaN	NaN	NaN	NaN	NaN	NaN	NaN	NaN	NaN	NaN	NaN	NaN
540.9848328999997	0.1152	sub-08	1	sequence	stimulus	Stuhl	NaN	NaN	64.0	NaN	NaN	5.0	1.0	NaN	NaN	NaN	NaN	NaN
541.1000510000003	0.0669	sub-08	1	sequence	interval	dot	NaN	NaN	NaN	NaN	NaN	NaN	NaN	NaN	NaN	NaN	NaN	NaN
541.1669994000003	0.0998	sub-08	1	sequence	stimulus	Katze	NaN	NaN	64.0	NaN	NaN	3.0	2.0	NaN	NaN	NaN	NaN	NaN
541.2667632000002	0.0669	sub-08	1	sequence	interval	dot	NaN	NaN	NaN	NaN	NaN	NaN	NaN	NaN	NaN	NaN	NaN	NaN
541.3336632	0.0999	sub-08	1	sequence	stimulus	Haus	NaN	NaN	64.0	NaN	NaN	2.0	3.0	NaN	NaN	NaN	NaN	NaN
541.4335934000001	0.0668	sub-08	1	sequence	interval	dot	NaN	NaN	NaN	NaN	NaN	NaN	NaN	NaN	NaN	NaN	NaN	NaN
541.5004320999997	0.1	sub-08	1	sequence	stimulus	Gesicht	NaN	NaN	64.0	NaN	NaN	1.0	4.0	NaN	NaN	NaN	NaN	NaN
541.6004019000002	0.0668	sub-08	1	sequence	interval	dot	NaN	NaN	NaN	NaN	NaN	NaN	NaN	NaN	NaN	NaN	NaN	NaN
541.6672274000002	0.0999	sub-08	1	sequence	stimulus	Schuh	NaN	NaN	64.0	NaN	NaN	4.0	5.0	NaN	NaN	NaN	NaN	NaN
541.7671276000001	0.0667	sub-08	1	sequence	interval	dot	NaN	NaN	NaN	NaN	NaN	NaN	NaN	NaN	NaN	NaN	NaN	NaN
541.8338635	8.372	sub-08	1	sequence	delay	dot	NaN	NaN	NaN	NaN	NaN	NaN	NaN	NaN	NaN	NaN	NaN	NaN
550.1886485000005	0.603	sub-08	1	sequence	choice	choice	left	NaN	NaN	-9.865447700000914	True	NaN	NaN	left	True	2.0	3.0	2.0
550.7918981000003	0.5	sub-08	1	sequence	feedback	NaN	NaN	NaN	NaN	NaN	NaN	NaN	NaN	NaN	NaN	NaN	NaN	NaN
551.2920310999998	1.0005	sub-08	1	sequence	cue	Katze	NaN	NaN	NaN	NaN	NaN	NaN	NaN	NaN	NaN	NaN	NaN	NaN
552.2925407000002	2.0017	sub-08	1	sequence	blank	blank	NaN	NaN	NaN	NaN	NaN	NaN	NaN	NaN	NaN	NaN	NaN	NaN
554.2942819999998	0.3001	sub-08	1	sequence	fixation	dot	NaN	NaN	NaN	NaN	NaN	NaN	NaN	NaN	NaN	NaN	NaN	NaN
554.6121269000005	0.1157	sub-08	1	sequence	stimulus	Schuh	NaN	NaN	512.0	NaN	NaN	4.0	1.0	NaN	NaN	NaN	NaN	NaN
554.7278058000002	0.5172	sub-08	1	sequence	interval	dot	NaN	NaN	NaN	NaN	NaN	NaN	NaN	NaN	NaN	NaN	NaN	NaN
555.2450030999998	0.0999	sub-08	1	sequence	stimulus	Haus	NaN	NaN	512.0	NaN	NaN	2.0	2.0	NaN	NaN	NaN	NaN	NaN
555.3449110000001	0.5173	sub-08	1	sequence	interval	dot	NaN	NaN	NaN	NaN	NaN	NaN	NaN	NaN	NaN	NaN	NaN	NaN
555.8622025000004	0.1001	sub-08	1	sequence	stimulus	Katze	NaN	NaN	512.0	NaN	NaN	3.0	3.0	NaN	NaN	NaN	NaN	NaN
555.9622608999998	0.5171	sub-08	1	sequence	interval	dot	NaN	NaN	NaN	NaN	NaN	NaN	NaN	NaN	NaN	NaN	NaN	NaN
556.4793995	0.0999	sub-08	1	sequence	stimulus	Stuhl	NaN	NaN	512.0	NaN	NaN	5.0	4.0	NaN	NaN	NaN	NaN	NaN
556.5792607000003	0.5172	sub-08	1	sequence	interval	dot	NaN	NaN	NaN	NaN	NaN	NaN	NaN	NaN	NaN	NaN	NaN	NaN
557.0965084	0.1	sub-08	1	sequence	stimulus	Gesicht	NaN	NaN	512.0	NaN	NaN	1.0	5.0	NaN	NaN	NaN	NaN	NaN
557.1965108000004	0.5171	sub-08	1	sequence	interval	dot	NaN	NaN	NaN	NaN	NaN	NaN	NaN	NaN	NaN	NaN	NaN	NaN
557.7135988	6.1366	sub-08	1	sequence	delay	dot	NaN	NaN	NaN	NaN	NaN	NaN	NaN	NaN	NaN	NaN	NaN	NaN
563.8384464000001	0.7311	sub-08	1	sequence	choice	choice	right	NaN	NaN	-9.72555580000062	True	NaN	NaN	right	True	5.0	3.0	3.0
564.5697774999999	0.5001	sub-08	1	sequence	feedback	NaN	NaN	NaN	NaN	NaN	NaN	NaN	NaN	NaN	NaN	NaN	NaN	NaN
565.0700298000002	1.0002	sub-08	1	sequence	cue	Stuhl	NaN	NaN	NaN	NaN	NaN	NaN	NaN	NaN	NaN	NaN	NaN	NaN
566.0702085000003	2.0015	sub-08	1	sequence	blank	blank	NaN	NaN	NaN	NaN	NaN	NaN	NaN	NaN	NaN	NaN	NaN	NaN
568.0717391999997	0.3003	sub-08	1	sequence	fixation	dot	NaN	NaN	NaN	NaN	NaN	NaN	NaN	NaN	NaN	NaN	NaN	NaN
568.3905393000005	0.1149	sub-08	1	sequence	stimulus	Gesicht	NaN	NaN	128.0	NaN	NaN	1.0	1.0	NaN	NaN	NaN	NaN	NaN
568.5054851000004	0.1336	sub-08	1	sequence	interval	dot	NaN	NaN	NaN	NaN	NaN	NaN	NaN	NaN	NaN	NaN	NaN	NaN
568.639099	0.0999	sub-08	1	sequence	stimulus	Katze	NaN	NaN	128.0	NaN	NaN	3.0	2.0	NaN	NaN	NaN	NaN	NaN
568.7390258000005	0.1335	sub-08	1	sequence	interval	dot	NaN	NaN	NaN	NaN	NaN	NaN	NaN	NaN	NaN	NaN	NaN	NaN
568.8725715	0.0999	sub-08	1	sequence	stimulus	Stuhl	NaN	NaN	128.0	NaN	NaN	5.0	3.0	NaN	NaN	NaN	NaN	NaN
568.9724568000001	0.1335	sub-08	1	sequence	interval	dot	NaN	NaN	NaN	NaN	NaN	NaN	NaN	NaN	NaN	NaN	NaN	NaN
569.1059906999999	0.1001	sub-08	1	sequence	stimulus	Schuh	NaN	NaN	128.0	NaN	NaN	4.0	4.0	NaN	NaN	NaN	NaN	NaN
569.2060770999997	0.1336	sub-08	1	sequence	interval	dot	NaN	NaN	NaN	NaN	NaN	NaN	NaN	NaN	NaN	NaN	NaN	NaN
569.3396744000001	0.0999	sub-08	1	sequence	stimulus	Haus	NaN	NaN	128.0	NaN	NaN	2.0	5.0	NaN	NaN	NaN	NaN	NaN
569.4396164999998	0.1333	sub-08	1	sequence	interval	dot	NaN	NaN	NaN	NaN	NaN	NaN	NaN	NaN	NaN	NaN	NaN	NaN
569.5729234	8.0551	sub-08	1	sequence	delay	dot	NaN	NaN	NaN	NaN	NaN	NaN	NaN	NaN	NaN	NaN	NaN	NaN
577.6181103999998	0.8628	sub-08	1	sequence	choice	choice	right	NaN	NaN	-9.59151010000005	True	NaN	NaN	right	True	4.0	3.0	3.0
578.4810103999998	0.4999	sub-08	1	sequence	feedback	NaN	NaN	NaN	NaN	NaN	NaN	NaN	NaN	NaN	NaN	NaN	NaN	NaN
578.9810054	1.0004	sub-08	1	sequence	cue	Haus	NaN	NaN	NaN	NaN	NaN	NaN	NaN	NaN	NaN	NaN	NaN	NaN
579.9814042999997	2.0016	sub-08	1	sequence	blank	blank	NaN	NaN	NaN	NaN	NaN	NaN	NaN	NaN	NaN	NaN	NaN	NaN
581.9829903999998	0.3003	sub-08	1	sequence	fixation	dot	NaN	NaN	NaN	NaN	NaN	NaN	NaN	NaN	NaN	NaN	NaN	NaN
582.3015793000004	0.1151	sub-08	1	sequence	stimulus	Gesicht	NaN	NaN	128.0	NaN	NaN	1.0	1.0	NaN	NaN	NaN	NaN	NaN
582.4166836000004	0.1337	sub-08	1	sequence	interval	dot	NaN	NaN	NaN	NaN	NaN	NaN	NaN	NaN	NaN	NaN	NaN	NaN
582.5503746000004	0.0998	sub-08	1	sequence	stimulus	Katze	NaN	NaN	128.0	NaN	NaN	3.0	2.0	NaN	NaN	NaN	NaN	NaN
582.6502123	0.1336	sub-08	1	sequence	interval	dot	NaN	NaN	NaN	NaN	NaN	NaN	NaN	NaN	NaN	NaN	NaN	NaN
582.7837952	0.1	sub-08	1	sequence	stimulus	Schuh	NaN	NaN	128.0	NaN	NaN	4.0	3.0	NaN	NaN	NaN	NaN	NaN
582.8838326000005	0.1335	sub-08	1	sequence	interval	dot	NaN	NaN	NaN	NaN	NaN	NaN	NaN	NaN	NaN	NaN	NaN	NaN
583.0173464999998	0.0999	sub-08	1	sequence	stimulus	Haus	NaN	NaN	128.0	NaN	NaN	2.0	4.0	NaN	NaN	NaN	NaN	NaN
583.1172474000005	0.1337	sub-08	1	sequence	interval	dot	NaN	NaN	NaN	NaN	NaN	NaN	NaN	NaN	NaN	NaN	NaN	NaN
583.2509075999997	0.1	sub-08	1	sequence	stimulus	Stuhl	NaN	NaN	128.0	NaN	NaN	5.0	5.0	NaN	NaN	NaN	NaN	NaN
583.3508887999997	0.1335	sub-08	1	sequence	interval	dot	NaN	NaN	NaN	NaN	NaN	NaN	NaN	NaN	NaN	NaN	NaN	NaN
583.4843415000005	8.0549	sub-08	1	sequence	delay	dot	NaN	NaN	NaN	NaN	NaN	NaN	NaN	NaN	NaN	NaN	NaN	NaN
591.5278022000002	0.6974	sub-08	1	sequence	choice	choice	left	NaN	NaN	-9.751164700000118	True	NaN	NaN	left	True	4.0	2.0	4.0
592.2254911999999	0.4999	sub-08	1	sequence	feedback	NaN	NaN	NaN	NaN	NaN	NaN	NaN	NaN	NaN	NaN	NaN	NaN	NaN
592.7255557999997	1.0004	sub-08	1	sequence	cue	Katze	NaN	NaN	NaN	NaN	NaN	NaN	NaN	NaN	NaN	NaN	NaN	NaN
593.7259839999997	2.0017	sub-08	1	sequence	blank	blank	NaN	NaN	NaN	NaN	NaN	NaN	NaN	NaN	NaN	NaN	NaN	NaN
595.7276905999997	0.3004	sub-08	1	sequence	fixation	dot	NaN	NaN	NaN	NaN	NaN	NaN	NaN	NaN	NaN	NaN	NaN	NaN
596.0455270000002	0.0993	sub-08	1	sequence	stimulus	Gesicht	NaN	NaN	64.0	NaN	NaN	1.0	1.0	NaN	NaN	NaN	NaN	NaN
596.1448204999997	0.0669	sub-08	1	sequence	interval	dot	NaN	NaN	NaN	NaN	NaN	NaN	NaN	NaN	NaN	NaN	NaN	NaN
596.2117353000003	0.0999	sub-08	1	sequence	stimulus	Katze	NaN	NaN	64.0	NaN	NaN	3.0	2.0	NaN	NaN	NaN	NaN	NaN
596.3116702999996	0.0668	sub-08	1	sequence	interval	dot	NaN	NaN	NaN	NaN	NaN	NaN	NaN	NaN	NaN	NaN	NaN	NaN
596.3784644999996	0.0999	sub-08	1	sequence	stimulus	Schuh	NaN	NaN	64.0	NaN	NaN	4.0	3.0	NaN	NaN	NaN	NaN	NaN
596.4783803999999	0.0668	sub-08	1	sequence	interval	dot	NaN	NaN	NaN	NaN	NaN	NaN	NaN	NaN	NaN	NaN	NaN	NaN
596.5452138	0.0999	sub-08	1	sequence	stimulus	Stuhl	NaN	NaN	64.0	NaN	NaN	5.0	4.0	NaN	NaN	NaN	NaN	NaN
596.6451307999996	0.0669	sub-08	1	sequence	interval	dot	NaN	NaN	NaN	NaN	NaN	NaN	NaN	NaN	NaN	NaN	NaN	NaN
596.7119841000003	0.0999	sub-08	1	sequence	stimulus	Haus	NaN	NaN	64.0	NaN	NaN	2.0	5.0	NaN	NaN	NaN	NaN	NaN
596.8119131000003	0.0666	sub-08	1	sequence	interval	dot	NaN	NaN	NaN	NaN	NaN	NaN	NaN	NaN	NaN	NaN	NaN	NaN
596.8785544000002	8.3885	sub-08	1	sequence	delay	dot	NaN	NaN	NaN	NaN	NaN	NaN	NaN	NaN	NaN	NaN	NaN	NaN
605.2555234000001	0.6974	sub-08	1	sequence	choice	choice	left	NaN	NaN	-9.758606300000793	True	NaN	NaN	left	True	2.0	4.0	2.0
605.9532003000004	0.4998	sub-08	1	sequence	feedback	NaN	NaN	NaN	NaN	NaN	NaN	NaN	NaN	NaN	NaN	NaN	NaN	NaN
606.4531721000003	1.0004	sub-08	1	sequence	cue	Schuh	NaN	NaN	NaN	NaN	NaN	NaN	NaN	NaN	NaN	NaN	NaN	NaN
607.4535999999998	2.0016	sub-08	1	sequence	blank	blank	NaN	NaN	NaN	NaN	NaN	NaN	NaN	NaN	NaN	NaN	NaN	NaN
609.4552184000004	0.3003	sub-08	1	sequence	fixation	dot	NaN	NaN	NaN	NaN	NaN	NaN	NaN	NaN	NaN	NaN	NaN	NaN
609.7740120999997	0.1149	sub-08	1	sequence	stimulus	Gesicht	NaN	NaN	32.0	NaN	NaN	1.0	1.0	NaN	NaN	NaN	NaN	NaN
609.8888754999998	0.0335	sub-08	1	sequence	interval	dot	NaN	NaN	NaN	NaN	NaN	NaN	NaN	NaN	NaN	NaN	NaN	NaN
609.9223657000002	0.0999	sub-08	1	sequence	stimulus	Haus	NaN	NaN	32.0	NaN	NaN	2.0	2.0	NaN	NaN	NaN	NaN	NaN
610.0222900999997	0.0335	sub-08	1	sequence	interval	dot	NaN	NaN	NaN	NaN	NaN	NaN	NaN	NaN	NaN	NaN	NaN	NaN
610.0558062	0.1	sub-08	1	sequence	stimulus	Schuh	NaN	NaN	32.0	NaN	NaN	4.0	3.0	NaN	NaN	NaN	NaN	NaN
610.1557622	0.0335	sub-08	1	sequence	interval	dot	NaN	NaN	NaN	NaN	NaN	NaN	NaN	NaN	NaN	NaN	NaN	NaN
610.1892430999997	0.1	sub-08	1	sequence	stimulus	Stuhl	NaN	NaN	32.0	NaN	NaN	5.0	4.0	NaN	NaN	NaN	NaN	NaN
610.2892603999999	0.0335	sub-08	1	sequence	interval	dot	NaN	NaN	NaN	NaN	NaN	NaN	NaN	NaN	NaN	NaN	NaN	NaN
610.3227128999997	0.0999	sub-08	1	sequence	stimulus	Katze	NaN	NaN	32.0	NaN	NaN	3.0	5.0	NaN	NaN	NaN	NaN	NaN
610.4226177	0.0334	sub-08	1	sequence	interval	dot	NaN	NaN	NaN	NaN	NaN	NaN	NaN	NaN	NaN	NaN	NaN	NaN
610.4560047000004	8.5388	sub-08	1	sequence	delay	dot	NaN	NaN	NaN	NaN	NaN	NaN	NaN	NaN	NaN	NaN	NaN	NaN
618.9832982999997	0.6975	sub-08	1	sequence	choice	choice	right	NaN	NaN	-9.758128499999655	True	NaN	NaN	right	True	5.0	3.0	3.0
619.6810323	0.4997	sub-08	1	sequence	feedback	NaN	NaN	NaN	NaN	NaN	NaN	NaN	NaN	NaN	NaN	NaN	NaN	NaN
620.1810004999998	1.0006	sub-08	1	sequence	cue	Haus	NaN	NaN	NaN	NaN	NaN	NaN	NaN	NaN	NaN	NaN	NaN	NaN
621.1816565999998	2.0013	sub-08	1	sequence	blank	blank	NaN	NaN	NaN	NaN	NaN	NaN	NaN	NaN	NaN	NaN	NaN	NaN
623.1829833000002	0.3003	sub-08	1	sequence	fixation	dot	NaN	NaN	NaN	NaN	NaN	NaN	NaN	NaN	NaN	NaN	NaN	NaN
623.5016280999998	0.1152	sub-08	1	sequence	stimulus	Gesicht	NaN	NaN	32.0	NaN	NaN	1.0	1.0	NaN	NaN	NaN	NaN	NaN
623.6168355	0.0333	sub-08	1	sequence	interval	dot	NaN	NaN	NaN	NaN	NaN	NaN	NaN	NaN	NaN	NaN	NaN	NaN
623.650146	0.1	sub-08	1	sequence	stimulus	Katze	NaN	NaN	32.0	NaN	NaN	3.0	2.0	NaN	NaN	NaN	NaN	NaN
623.7501245000003	0.0335	sub-08	1	sequence	interval	dot	NaN	NaN	NaN	NaN	NaN	NaN	NaN	NaN	NaN	NaN	NaN	NaN
623.7836255000002	0.0999	sub-08	1	sequence	stimulus	Haus	NaN	NaN	32.0	NaN	NaN	2.0	3.0	NaN	NaN	NaN	NaN	NaN
623.8835695999996	0.0335	sub-08	1	sequence	interval	dot	NaN	NaN	NaN	NaN	NaN	NaN	NaN	NaN	NaN	NaN	NaN	NaN
623.9171034999999	0.1009	sub-08	1	sequence	stimulus	Stuhl	NaN	NaN	32.0	NaN	NaN	5.0	4.0	NaN	NaN	NaN	NaN	NaN
624.0179889000001	0.0326	sub-08	1	sequence	interval	dot	NaN	NaN	NaN	NaN	NaN	NaN	NaN	NaN	NaN	NaN	NaN	NaN
624.0505634000001	0.0999	sub-08	1	sequence	stimulus	Schuh	NaN	NaN	32.0	NaN	NaN	4.0	5.0	NaN	NaN	NaN	NaN	NaN
624.1504937	0.0335	sub-08	1	sequence	interval	dot	NaN	NaN	NaN	NaN	NaN	NaN	NaN	NaN	NaN	NaN	NaN	NaN
624.1839590999998	8.5236	sub-08	1	sequence	delay	dot	NaN	NaN	NaN	NaN	NaN	NaN	NaN	NaN	NaN	NaN	NaN	NaN
632.6849284999998	0.6903	sub-08	1	sequence	choice	choice	right	NaN	NaN	-9.767630400000598	True	NaN	NaN	right	True	5.0	3.0	3.0
633.3754485	0.4998	sub-08	1	sequence	feedback	NaN	NaN	NaN	NaN	NaN	NaN	NaN	NaN	NaN	NaN	NaN	NaN	NaN
637.6958221000004	0.4996	sub-08	1	localizer	stimulus	Katze	NaN	180	2.8351184999992256	-9.603178499999558	True	NaN	NaN	NaN	NaN	NaN	NaN	NaN
638.1789334000005	2.8351	sub-08	1	localizer	blank	interval	NaN	NaN	NaN	NaN	NaN	NaN	NaN	NaN	NaN	NaN	NaN	NaN
641.3152201000003	0.4995	sub-08	1	localizer	stimulus	Haus	NaN	0	3.335980400000153	NaN	True	NaN	NaN	NaN	NaN	NaN	NaN	NaN
641.7981245999999	3.336	sub-08	1	localizer	blank	interval	NaN	NaN	NaN	NaN	NaN	NaN	NaN	NaN	NaN	NaN	NaN	NaN
645.4352383000005	0.4995	sub-08	1	localizer	stimulus	Katze	NaN	0	2.602057799999784	NaN	True	NaN	NaN	NaN	NaN	NaN	NaN	NaN
645.9182172999999	2.6021	sub-08	1	localizer	blank	interval	NaN	NaN	NaN	NaN	NaN	NaN	NaN	NaN	NaN	NaN	NaN	NaN
648.8213883999997	0.4994	sub-08	1	localizer	stimulus	Stuhl	NaN	0	2.1350523000000976	NaN	True	NaN	NaN	NaN	NaN	NaN	NaN	NaN
649.3042875000001	2.1351	sub-08	1	localizer	blank	interval	NaN	NaN	NaN	NaN	NaN	NaN	NaN	NaN	NaN	NaN	NaN	NaN
651.7403949999998	0.5	sub-08	1	localizer	stimulus	Gesicht	NaN	0	2.751920199999404	NaN	True	NaN	NaN	NaN	NaN	NaN	NaN	NaN
652.2234770000005	2.7519	sub-08	1	localizer	blank	interval	NaN	NaN	NaN	NaN	NaN	NaN	NaN	NaN	NaN	NaN	NaN	NaN
655.2768951999997	0.4991	sub-08	1	localizer	stimulus	Katze	NaN	0	2.6190460999996503	NaN	True	NaN	NaN	NaN	NaN	NaN	NaN	NaN
655.7594515000001	2.619	sub-08	1	localizer	blank	interval	NaN	NaN	NaN	NaN	NaN	NaN	NaN	NaN	NaN	NaN	NaN	NaN
658.6796635000001	0.4995	sub-08	1	localizer	stimulus	Schuh	NaN	0	2.5515970000005836	NaN	True	NaN	NaN	NaN	NaN	NaN	NaN	NaN
659.1625918999998	2.5516	sub-08	1	localizer	blank	interval	NaN	NaN	NaN	NaN	NaN	NaN	NaN	NaN	NaN	NaN	NaN	NaN
662.0154052999997	0.4994	sub-08	1	localizer	stimulus	Haus	NaN	180	2.518563300000096	-9.947203400000037	True	NaN	NaN	NaN	NaN	NaN	NaN	NaN
662.4982723000003	2.5186	sub-08	1	localizer	blank	interval	NaN	NaN	NaN	NaN	NaN	NaN	NaN	NaN	NaN	NaN	NaN	NaN
665.3179639	0.4995	sub-08	1	localizer	stimulus	Stuhl	NaN	0	2.5019162999997206	NaN	True	NaN	NaN	NaN	NaN	NaN	NaN	NaN
665.8008789000005	2.5019	sub-08	1	localizer	blank	interval	NaN	NaN	NaN	NaN	NaN	NaN	NaN	NaN	NaN	NaN	NaN	NaN
668.6039474999998	0.4996	sub-08	1	localizer	stimulus	Stuhl	NaN	0	2.1683473000002778	NaN	True	NaN	NaN	NaN	NaN	NaN	NaN	NaN
669.0869044000001	2.1683	sub-08	1	localizer	blank	interval	NaN	NaN	NaN	NaN	NaN	NaN	NaN	NaN	NaN	NaN	NaN	NaN
671.5563554	0.4995	sub-08	1	localizer	stimulus	Schuh	NaN	0	2.251603800000339	NaN	True	NaN	NaN	NaN	NaN	NaN	NaN	NaN
672.0394187000002	2.2516	sub-08	1	localizer	blank	interval	NaN	NaN	NaN	NaN	NaN	NaN	NaN	NaN	NaN	NaN	NaN	NaN
674.5924006000005	0.4993	sub-08	1	localizer	stimulus	Schuh	NaN	0	3.51960870000039	NaN	True	NaN	NaN	NaN	NaN	NaN	NaN	NaN
675.0750645999997	3.5196	sub-08	1	localizer	blank	interval	NaN	NaN	NaN	NaN	NaN	NaN	NaN	NaN	NaN	NaN	NaN	NaN
678.8959018000005	0.4995	sub-08	1	localizer	stimulus	Gesicht	NaN	180	2.2514264000001276	-9.875699199999872	True	NaN	NaN	NaN	NaN	NaN	NaN	NaN
679.3788370000002	2.2514	sub-08	1	localizer	blank	interval	NaN	NaN	NaN	NaN	NaN	NaN	NaN	NaN	NaN	NaN	NaN	NaN
681.9314262999997	0.4995	sub-08	1	localizer	stimulus	Gesicht	NaN	0	2.6520252999998775	NaN	True	NaN	NaN	NaN	NaN	NaN	NaN	NaN
682.4143357000003	2.652	sub-08	1	localizer	blank	interval	NaN	NaN	NaN	NaN	NaN	NaN	NaN	NaN	NaN	NaN	NaN	NaN
685.3675542999999	0.4995	sub-08	1	localizer	stimulus	Haus	NaN	0	1.7681173999999373	NaN	True	NaN	NaN	NaN	NaN	NaN	NaN	NaN
685.8504494999997	1.7681	sub-08	1	localizer	blank	interval	NaN	NaN	NaN	NaN	NaN	NaN	NaN	NaN	NaN	NaN	NaN	NaN
687.9196201000004	0.4994	sub-08	1	localizer	stimulus	Gesicht	NaN	0	2.1682924000006096	NaN	True	NaN	NaN	NaN	NaN	NaN	NaN	NaN
688.4025315999997	2.1683	sub-08	1	localizer	blank	interval	NaN	NaN	NaN	NaN	NaN	NaN	NaN	NaN	NaN	NaN	NaN	NaN
690.8719616999997	0.4997	sub-08	1	localizer	stimulus	Stuhl	NaN	0	2.1350087000000713	NaN	True	NaN	NaN	NaN	NaN	NaN	NaN	NaN
691.3549359999997	2.135	sub-08	1	localizer	blank	interval	NaN	NaN	NaN	NaN	NaN	NaN	NaN	NaN	NaN	NaN	NaN	NaN
693.7910413999998	0.4994	sub-08	1	localizer	stimulus	Haus	NaN	0	1.8847591000003376	NaN	True	NaN	NaN	NaN	NaN	NaN	NaN	NaN
694.274007	1.8848	sub-08	1	localizer	blank	interval	NaN	NaN	NaN	NaN	NaN	NaN	NaN	NaN	NaN	NaN	NaN	NaN
696.4601872000003	0.4993	sub-08	1	localizer	stimulus	Haus	NaN	0	3.3024945999995907	NaN	True	NaN	NaN	NaN	NaN	NaN	NaN	NaN
696.9428954000005	3.3025	sub-08	1	localizer	blank	interval	NaN	NaN	NaN	NaN	NaN	NaN	NaN	NaN	NaN	NaN	NaN	NaN
700.546582	0.4995	sub-08	1	localizer	stimulus	Schuh	NaN	180	2.0513537999995606	-9.926506300000256	True	NaN	NaN	NaN	NaN	NaN	NaN	NaN
701.0295744000005	2.0514	sub-08	1	localizer	blank	interval	NaN	NaN	NaN	NaN	NaN	NaN	NaN	NaN	NaN	NaN	NaN	NaN
703.3821155000005	0.5	sub-08	1	localizer	stimulus	Katze	NaN	0	1.90142939999987	NaN	True	NaN	NaN	NaN	NaN	NaN	NaN	NaN
703.8650656999998	1.9014	sub-08	1	localizer	blank	interval	NaN	NaN	NaN	NaN	NaN	NaN	NaN	NaN	NaN	NaN	NaN	NaN
706.0675834000003	0.4995	sub-08	1	localizer	stimulus	Katze	NaN	0	2.2850908000000345	NaN	True	NaN	NaN	NaN	NaN	NaN	NaN	NaN
706.5504868999997	2.2851	sub-08	1	localizer	blank	interval	NaN	NaN	NaN	NaN	NaN	NaN	NaN	NaN	NaN	NaN	NaN	NaN
709.1367657999999	0.4995	sub-08	1	localizer	stimulus	Gesicht	NaN	0	3.1857528000000457	NaN	True	NaN	NaN	NaN	NaN	NaN	NaN	NaN
709.6196620999999	3.1858	sub-08	1	localizer	blank	interval	NaN	NaN	NaN	NaN	NaN	NaN	NaN	NaN	NaN	NaN	NaN	NaN
713.1066233000001	0.4995	sub-08	1	localizer	stimulus	Schuh	NaN	0	2.2351669999998194	NaN	True	NaN	NaN	NaN	NaN	NaN	NaN	NaN
713.5895373000003	2.2352	sub-08	1	localizer	blank	interval	NaN	NaN	NaN	NaN	NaN	NaN	NaN	NaN	NaN	NaN	NaN	NaN
716.1259522999999	0.4995	sub-08	1	localizer	stimulus	Stuhl	NaN	180	1.6678854000001593	-9.93796409999959	True	NaN	NaN	NaN	NaN	NaN	NaN	NaN
716.6087951	1.6679	sub-08	1	localizer	blank	interval	NaN	NaN	NaN	NaN	NaN	NaN	NaN	NaN	NaN	NaN	NaN	NaN
721.7633138000001	1.0002	sub-08	1	sequence	cue	Stuhl	NaN	NaN	NaN	NaN	NaN	NaN	NaN	NaN	NaN	NaN	NaN	NaN
722.7635692000003	2.0016	sub-08	1	sequence	blank	blank	NaN	NaN	NaN	NaN	NaN	NaN	NaN	NaN	NaN	NaN	NaN	NaN
724.7651730999996	0.3004	sub-08	1	sequence	fixation	dot	NaN	NaN	NaN	NaN	NaN	NaN	NaN	NaN	NaN	NaN	NaN	NaN
725.0846336000004	0.1142	sub-08	1	sequence	stimulus	Gesicht	NaN	NaN	128.0	NaN	NaN	1.0	1.0	NaN	NaN	NaN	NaN	NaN
725.1988268000005	0.1336	sub-08	1	sequence	interval	dot	NaN	NaN	NaN	NaN	NaN	NaN	NaN	NaN	NaN	NaN	NaN	NaN
725.3324438	0.1001	sub-08	1	sequence	stimulus	Katze	NaN	NaN	128.0	NaN	NaN	3.0	2.0	NaN	NaN	NaN	NaN	NaN
725.432503	0.1335	sub-08	1	sequence	interval	dot	NaN	NaN	NaN	NaN	NaN	NaN	NaN	NaN	NaN	NaN	NaN	NaN
725.5660278000005	0.0999	sub-08	1	sequence	stimulus	Schuh	NaN	NaN	128.0	NaN	NaN	4.0	3.0	NaN	NaN	NaN	NaN	NaN
725.6659255000004	0.1337	sub-08	1	sequence	interval	dot	NaN	NaN	NaN	NaN	NaN	NaN	NaN	NaN	NaN	NaN	NaN	NaN
725.7995975000003	0.0999	sub-08	1	sequence	stimulus	Haus	NaN	NaN	128.0	NaN	NaN	2.0	4.0	NaN	NaN	NaN	NaN	NaN
725.8995421	0.1335	sub-08	1	sequence	interval	dot	NaN	NaN	NaN	NaN	NaN	NaN	NaN	NaN	NaN	NaN	NaN	NaN
726.0330612999996	0.1	sub-08	1	sequence	stimulus	Stuhl	NaN	NaN	128.0	NaN	NaN	5.0	5.0	NaN	NaN	NaN	NaN	NaN
726.1330207999999	0.1335	sub-08	1	sequence	interval	dot	NaN	NaN	NaN	NaN	NaN	NaN	NaN	NaN	NaN	NaN	NaN	NaN
726.2664846999996	8.0716	sub-08	1	sequence	delay	dot	NaN	NaN	NaN	NaN	NaN	NaN	NaN	NaN	NaN	NaN	NaN	NaN
734.3171410000004	0.8737	sub-08	1	sequence	choice	choice	left	NaN	NaN	-9.582412700000532	True	NaN	NaN	left	True	5.0	4.0	5.0
735.1912198	0.4997	sub-08	1	sequence	feedback	NaN	NaN	NaN	NaN	NaN	NaN	NaN	NaN	NaN	NaN	NaN	NaN	NaN
735.6910662999999	1.0005	sub-08	1	sequence	cue	Katze	NaN	NaN	NaN	NaN	NaN	NaN	NaN	NaN	NaN	NaN	NaN	NaN
736.6915641000005	2.0017	sub-08	1	sequence	blank	blank	NaN	NaN	NaN	NaN	NaN	NaN	NaN	NaN	NaN	NaN	NaN	NaN
738.6932228000005	0.3002	sub-08	1	sequence	fixation	dot	NaN	NaN	NaN	NaN	NaN	NaN	NaN	NaN	NaN	NaN	NaN	NaN
739.0111872999996	0.1157	sub-08	1	sequence	stimulus	Stuhl	NaN	NaN	64.0	NaN	NaN	5.0	1.0	NaN	NaN	NaN	NaN	NaN
739.1268928999998	0.0669	sub-08	1	sequence	interval	dot	NaN	NaN	NaN	NaN	NaN	NaN	NaN	NaN	NaN	NaN	NaN	NaN
739.1938049999999	0.0999	sub-08	1	sequence	stimulus	Katze	NaN	NaN	64.0	NaN	NaN	3.0	2.0	NaN	NaN	NaN	NaN	NaN
739.2936958999999	0.0668	sub-08	1	sequence	interval	dot	NaN	NaN	NaN	NaN	NaN	NaN	NaN	NaN	NaN	NaN	NaN	NaN
739.3605328000003	0.1	sub-08	1	sequence	stimulus	Haus	NaN	NaN	64.0	NaN	NaN	2.0	3.0	NaN	NaN	NaN	NaN	NaN
739.4605059000005	0.0669	sub-08	1	sequence	interval	dot	NaN	NaN	NaN	NaN	NaN	NaN	NaN	NaN	NaN	NaN	NaN	NaN
739.5273801000003	0.1001	sub-08	1	sequence	stimulus	Gesicht	NaN	NaN	64.0	NaN	NaN	1.0	4.0	NaN	NaN	NaN	NaN	NaN
739.6274659000001	0.0669	sub-08	1	sequence	interval	dot	NaN	NaN	NaN	NaN	NaN	NaN	NaN	NaN	NaN	NaN	NaN	NaN
739.6943956000005	0.0999	sub-08	1	sequence	stimulus	Schuh	NaN	NaN	64.0	NaN	NaN	4.0	5.0	NaN	NaN	NaN	NaN	NaN
739.7943285000001	0.0666	sub-08	1	sequence	interval	dot	NaN	NaN	NaN	NaN	NaN	NaN	NaN	NaN	NaN	NaN	NaN	NaN
739.8609083000001	8.3883	sub-08	1	sequence	delay	dot	NaN	NaN	NaN	NaN	NaN	NaN	NaN	NaN	NaN	NaN	NaN	NaN
748.2266176000003	0.6753	sub-08	1	sequence	choice	choice	right	NaN	NaN	-9.789438100000552	True	NaN	NaN	right	True	5.0	2.0	2.0
748.9021341999996	0.5	sub-08	1	sequence	feedback	NaN	NaN	NaN	NaN	NaN	NaN	NaN	NaN	NaN	NaN	NaN	NaN	NaN
749.4022942000001	1.0003	sub-08	1	sequence	cue	Stuhl	NaN	NaN	NaN	NaN	NaN	NaN	NaN	NaN	NaN	NaN	NaN	NaN
750.4026129000003	2.0016	sub-08	1	sequence	blank	blank	NaN	NaN	NaN	NaN	NaN	NaN	NaN	NaN	NaN	NaN	NaN	NaN
752.4041735000001	0.3003	sub-08	1	sequence	fixation	dot	NaN	NaN	NaN	NaN	NaN	NaN	NaN	NaN	NaN	NaN	NaN	NaN
752.7229163000002	0.115	sub-08	1	sequence	stimulus	Gesicht	NaN	NaN	64.0	NaN	NaN	1.0	1.0	NaN	NaN	NaN	NaN	NaN
752.8379451999999	0.0668	sub-08	1	sequence	interval	dot	NaN	NaN	NaN	NaN	NaN	NaN	NaN	NaN	NaN	NaN	NaN	NaN
752.9047151000004	0.0999	sub-08	1	sequence	stimulus	Katze	NaN	NaN	64.0	NaN	NaN	3.0	2.0	NaN	NaN	NaN	NaN	NaN
753.0046462	0.0668	sub-08	1	sequence	interval	dot	NaN	NaN	NaN	NaN	NaN	NaN	NaN	NaN	NaN	NaN	NaN	NaN
753.0714785999999	0.1	sub-08	1	sequence	stimulus	Schuh	NaN	NaN	64.0	NaN	NaN	4.0	3.0	NaN	NaN	NaN	NaN	NaN
753.1714343000003	0.0669	sub-08	1	sequence	interval	dot	NaN	NaN	NaN	NaN	NaN	NaN	NaN	NaN	NaN	NaN	NaN	NaN
753.2383176000003	0.1	sub-08	1	sequence	stimulus	Stuhl	NaN	NaN	64.0	NaN	NaN	5.0	4.0	NaN	NaN	NaN	NaN	NaN
753.3382677	0.0669	sub-08	1	sequence	interval	dot	NaN	NaN	NaN	NaN	NaN	NaN	NaN	NaN	NaN	NaN	NaN	NaN
753.4052116000003	0.0998	sub-08	1	sequence	stimulus	Haus	NaN	NaN	64.0	NaN	NaN	2.0	5.0	NaN	NaN	NaN	NaN	NaN
753.5050300000003	0.0668	sub-08	1	sequence	interval	dot	NaN	NaN	NaN	NaN	NaN	NaN	NaN	NaN	NaN	NaN	NaN	NaN
753.5717867000003	8.372	sub-08	1	sequence	delay	dot	NaN	NaN	NaN	NaN	NaN	NaN	NaN	NaN	NaN	NaN	NaN	NaN
761.9284217000004	0.6346	sub-08	1	sequence	choice	choice	left	NaN	NaN	-9.827611499999875	True	NaN	NaN	left	True	4.0	3.0	4.0
762.5633159999998	0.4999	sub-08	1	sequence	feedback	NaN	NaN	NaN	NaN	NaN	NaN	NaN	NaN	NaN	NaN	NaN	NaN	NaN
763.0634261000005	1.0004	sub-08	1	sequence	cue	Haus	NaN	NaN	NaN	NaN	NaN	NaN	NaN	NaN	NaN	NaN	NaN	NaN
764.0637935000004	2.0014	sub-08	1	sequence	blank	blank	NaN	NaN	NaN	NaN	NaN	NaN	NaN	NaN	NaN	NaN	NaN	NaN
766.065224	0.3003	sub-08	1	sequence	fixation	dot	NaN	NaN	NaN	NaN	NaN	NaN	NaN	NaN	NaN	NaN	NaN	NaN
766.3839441	0.1151	sub-08	1	sequence	stimulus	Schuh	NaN	NaN	512.0	NaN	NaN	4.0	1.0	NaN	NaN	NaN	NaN	NaN
766.4990467999996	0.5172	sub-08	1	sequence	interval	dot	NaN	NaN	NaN	NaN	NaN	NaN	NaN	NaN	NaN	NaN	NaN	NaN
767.0162204999997	0.0999	sub-08	1	sequence	stimulus	Haus	NaN	NaN	512.0	NaN	NaN	2.0	2.0	NaN	NaN	NaN	NaN	NaN
767.1161376999999	0.5172	sub-08	1	sequence	interval	dot	NaN	NaN	NaN	NaN	NaN	NaN	NaN	NaN	NaN	NaN	NaN	NaN
767.6333342999997	0.1	sub-08	1	sequence	stimulus	Katze	NaN	NaN	512.0	NaN	NaN	3.0	3.0	NaN	NaN	NaN	NaN	NaN
767.7333073	0.5172	sub-08	1	sequence	interval	dot	NaN	NaN	NaN	NaN	NaN	NaN	NaN	NaN	NaN	NaN	NaN	NaN
768.2504795000004	0.1	sub-08	1	sequence	stimulus	Stuhl	NaN	NaN	512.0	NaN	NaN	5.0	4.0	NaN	NaN	NaN	NaN	NaN
768.3504475	0.5172	sub-08	1	sequence	interval	dot	NaN	NaN	NaN	NaN	NaN	NaN	NaN	NaN	NaN	NaN	NaN	NaN
768.8676934000005	0.1	sub-08	1	sequence	stimulus	Gesicht	NaN	NaN	512.0	NaN	NaN	1.0	5.0	NaN	NaN	NaN	NaN	NaN
768.9676522999998	0.5171	sub-08	1	sequence	interval	dot	NaN	NaN	NaN	NaN	NaN	NaN	NaN	NaN	NaN	NaN	NaN	NaN
769.4847159999999	6.1368	sub-08	1	sequence	delay	dot	NaN	NaN	NaN	NaN	NaN	NaN	NaN	NaN	NaN	NaN	NaN	NaN
775.6040247000001	0.8035	sub-08	1	sequence	choice	choice	left	NaN	NaN	-9.657289199999468	True	NaN	NaN	left	True	2.0	1.0	2.0
776.4077678000003	0.4999	sub-08	1	sequence	feedback	NaN	NaN	NaN	NaN	NaN	NaN	NaN	NaN	NaN	NaN	NaN	NaN	NaN
776.9077699	1.0005	sub-08	1	sequence	cue	Stuhl	NaN	NaN	NaN	NaN	NaN	NaN	NaN	NaN	NaN	NaN	NaN	NaN
777.9082439000003	2.0017	sub-08	1	sequence	blank	blank	NaN	NaN	NaN	NaN	NaN	NaN	NaN	NaN	NaN	NaN	NaN	NaN
779.9099698	0.3002	sub-08	1	sequence	fixation	dot	NaN	NaN	NaN	NaN	NaN	NaN	NaN	NaN	NaN	NaN	NaN	NaN
780.2279601	0.1157	sub-08	1	sequence	stimulus	Gesicht	NaN	NaN	32.0	NaN	NaN	1.0	1.0	NaN	NaN	NaN	NaN	NaN
780.3436201000004	0.0335	sub-08	1	sequence	interval	dot	NaN	NaN	NaN	NaN	NaN	NaN	NaN	NaN	NaN	NaN	NaN	NaN
780.3771078999998	0.1	sub-08	1	sequence	stimulus	Katze	NaN	NaN	32.0	NaN	NaN	3.0	2.0	NaN	NaN	NaN	NaN	NaN
780.4770925000003	0.0334	sub-08	1	sequence	interval	dot	NaN	NaN	NaN	NaN	NaN	NaN	NaN	NaN	NaN	NaN	NaN	NaN
780.5105100000001	0.1	sub-08	1	sequence	stimulus	Haus	NaN	NaN	32.0	NaN	NaN	2.0	3.0	NaN	NaN	NaN	NaN	NaN
780.6104759	0.0335	sub-08	1	sequence	interval	dot	NaN	NaN	NaN	NaN	NaN	NaN	NaN	NaN	NaN	NaN	NaN	NaN
780.6440073000003	0.0999	sub-08	1	sequence	stimulus	Stuhl	NaN	NaN	32.0	NaN	NaN	5.0	4.0	NaN	NaN	NaN	NaN	NaN
780.7439396999998	0.0334	sub-08	1	sequence	interval	dot	NaN	NaN	NaN	NaN	NaN	NaN	NaN	NaN	NaN	NaN	NaN	NaN
780.7773736999998	0.0999	sub-08	1	sequence	stimulus	Schuh	NaN	NaN	32.0	NaN	NaN	4.0	5.0	NaN	NaN	NaN	NaN	NaN
780.8772872	0.0334	sub-08	1	sequence	interval	dot	NaN	NaN	NaN	NaN	NaN	NaN	NaN	NaN	NaN	NaN	NaN	NaN
780.9106387000002	8.5385	sub-08	1	sequence	delay	dot	NaN	NaN	NaN	NaN	NaN	NaN	NaN	NaN	NaN	NaN	NaN	NaN
789.4357505999997	1.4335	sub-08	1	sequence	choice	choice	right	NaN	NaN	-9.029487900000277	True	NaN	NaN	right	True	5.0	4.0	4.0
790.8694999999998	0.5	sub-08	1	sequence	feedback	NaN	NaN	NaN	NaN	NaN	NaN	NaN	NaN	NaN	NaN	NaN	NaN	NaN
791.3697033999997	1.0002	sub-08	1	sequence	cue	Stuhl	NaN	NaN	NaN	NaN	NaN	NaN	NaN	NaN	NaN	NaN	NaN	NaN
792.369917	2.0015	sub-08	1	sequence	blank	blank	NaN	NaN	NaN	NaN	NaN	NaN	NaN	NaN	NaN	NaN	NaN	NaN
794.3714493999996	0.3004	sub-08	1	sequence	fixation	dot	NaN	NaN	NaN	NaN	NaN	NaN	NaN	NaN	NaN	NaN	NaN	NaN
794.6901857000003	0.1149	sub-08	1	sequence	stimulus	Gesicht	NaN	NaN	32.0	NaN	NaN	1.0	1.0	NaN	NaN	NaN	NaN	NaN
794.8051125000002	0.0335	sub-08	1	sequence	interval	dot	NaN	NaN	NaN	NaN	NaN	NaN	NaN	NaN	NaN	NaN	NaN	NaN
794.8386234	0.0999	sub-08	1	sequence	stimulus	Haus	NaN	NaN	32.0	NaN	NaN	2.0	2.0	NaN	NaN	NaN	NaN	NaN
794.9385670000001	0.0335	sub-08	1	sequence	interval	dot	NaN	NaN	NaN	NaN	NaN	NaN	NaN	NaN	NaN	NaN	NaN	NaN
794.9720256999999	0.1	sub-08	1	sequence	stimulus	Schuh	NaN	NaN	32.0	NaN	NaN	4.0	3.0	NaN	NaN	NaN	NaN	NaN
795.0719872	0.0335	sub-08	1	sequence	interval	dot	NaN	NaN	NaN	NaN	NaN	NaN	NaN	NaN	NaN	NaN	NaN	NaN
795.1055142000005	0.0999	sub-08	1	sequence	stimulus	Stuhl	NaN	NaN	32.0	NaN	NaN	5.0	4.0	NaN	NaN	NaN	NaN	NaN
795.2054484	0.0337	sub-08	1	sequence	interval	dot	NaN	NaN	NaN	NaN	NaN	NaN	NaN	NaN	NaN	NaN	NaN	NaN
795.2391004000001	0.1	sub-08	1	sequence	stimulus	Katze	NaN	NaN	32.0	NaN	NaN	3.0	5.0	NaN	NaN	NaN	NaN	NaN
795.3390625000002	0.0332	sub-08	1	sequence	interval	dot	NaN	NaN	NaN	NaN	NaN	NaN	NaN	NaN	NaN	NaN	NaN	NaN
795.3722974000002	8.5387	sub-08	1	sequence	delay	dot	NaN	NaN	NaN	NaN	NaN	NaN	NaN	NaN	NaN	NaN	NaN	NaN
803.8913798000003	0.6723	sub-08	1	sequence	choice	choice	right	NaN	NaN	-9.786436800000049	True	NaN	NaN	right	True	3.0	4.0	4.0
804.5639524999997	0.5	sub-08	1	sequence	feedback	NaN	NaN	NaN	NaN	NaN	NaN	NaN	NaN	NaN	NaN	NaN	NaN	NaN
805.0641906999999	1.0002	sub-08	1	sequence	cue	Katze	NaN	NaN	NaN	NaN	NaN	NaN	NaN	NaN	NaN	NaN	NaN	NaN
806.0644449000001	2.0014	sub-08	1	sequence	blank	blank	NaN	NaN	NaN	NaN	NaN	NaN	NaN	NaN	NaN	NaN	NaN	NaN
808.0658549	0.3003	sub-08	1	sequence	fixation	dot	NaN	NaN	NaN	NaN	NaN	NaN	NaN	NaN	NaN	NaN	NaN	NaN
808.3844555000005	0.1151	sub-08	1	sequence	stimulus	Schuh	NaN	NaN	512.0	NaN	NaN	4.0	1.0	NaN	NaN	NaN	NaN	NaN
808.4995203999997	0.5173	sub-08	1	sequence	interval	dot	NaN	NaN	NaN	NaN	NaN	NaN	NaN	NaN	NaN	NaN	NaN	NaN
809.0168082999999	0.0999	sub-08	1	sequence	stimulus	Haus	NaN	NaN	512.0	NaN	NaN	2.0	2.0	NaN	NaN	NaN	NaN	NaN
809.1167406000004	0.5173	sub-08	1	sequence	interval	dot	NaN	NaN	NaN	NaN	NaN	NaN	NaN	NaN	NaN	NaN	NaN	NaN
809.6339911000005	0.1	sub-08	1	sequence	stimulus	Katze	NaN	NaN	512.0	NaN	NaN	3.0	3.0	NaN	NaN	NaN	NaN	NaN
809.7339640999999	0.5171	sub-08	1	sequence	interval	dot	NaN	NaN	NaN	NaN	NaN	NaN	NaN	NaN	NaN	NaN	NaN	NaN
810.2510878000003	0.1	sub-08	1	sequence	stimulus	Gesicht	NaN	NaN	512.0	NaN	NaN	1.0	4.0	NaN	NaN	NaN	NaN	NaN
810.3510659000003	0.5173	sub-08	1	sequence	interval	dot	NaN	NaN	NaN	NaN	NaN	NaN	NaN	NaN	NaN	NaN	NaN	NaN
810.8683577000002	0.0999	sub-08	1	sequence	stimulus	Stuhl	NaN	NaN	512.0	NaN	NaN	5.0	5.0	NaN	NaN	NaN	NaN	NaN
810.9682142000001	0.5172	sub-08	1	sequence	interval	dot	NaN	NaN	NaN	NaN	NaN	NaN	NaN	NaN	NaN	NaN	NaN	NaN
811.4853737000003	6.1534	sub-08	1	sequence	delay	dot	NaN	NaN	NaN	NaN	NaN	NaN	NaN	NaN	NaN	NaN	NaN	NaN
817.6192137999997	0.689	sub-08	1	sequence	choice	choice	left	NaN	NaN	-9.77877460000036	True	NaN	NaN	left	True	3.0	5.0	3.0
818.3085197999999	0.4998	sub-08	1	sequence	feedback	NaN	NaN	NaN	NaN	NaN	NaN	NaN	NaN	NaN	NaN	NaN	NaN	NaN
818.8085237000005	1.0003	sub-08	1	sequence	cue	Haus	NaN	NaN	NaN	NaN	NaN	NaN	NaN	NaN	NaN	NaN	NaN	NaN
819.8088360000002	2.0015	sub-08	1	sequence	blank	blank	NaN	NaN	NaN	NaN	NaN	NaN	NaN	NaN	NaN	NaN	NaN	NaN
821.8103437999998	0.3002	sub-08	1	sequence	fixation	dot	NaN	NaN	NaN	NaN	NaN	NaN	NaN	NaN	NaN	NaN	NaN	NaN
822.1281594000002	0.0992	sub-08	1	sequence	stimulus	Gesicht	NaN	NaN	128.0	NaN	NaN	1.0	1.0	NaN	NaN	NaN	NaN	NaN
822.2273410999996	0.1335	sub-08	1	sequence	interval	dot	NaN	NaN	NaN	NaN	NaN	NaN	NaN	NaN	NaN	NaN	NaN	NaN
822.3608562	0.0999	sub-08	1	sequence	stimulus	Katze	NaN	NaN	128.0	NaN	NaN	3.0	2.0	NaN	NaN	NaN	NaN	NaN
822.4607930000002	0.1337	sub-08	1	sequence	interval	dot	NaN	NaN	NaN	NaN	NaN	NaN	NaN	NaN	NaN	NaN	NaN	NaN
822.5945026999998	0.0999	sub-08	1	sequence	stimulus	Stuhl	NaN	NaN	128.0	NaN	NaN	5.0	3.0	NaN	NaN	NaN	NaN	NaN
822.6944472000005	0.1335	sub-08	1	sequence	interval	dot	NaN	NaN	NaN	NaN	NaN	NaN	NaN	NaN	NaN	NaN	NaN	NaN
822.8279167999999	0.1002	sub-08	1	sequence	stimulus	Schuh	NaN	NaN	128.0	NaN	NaN	4.0	4.0	NaN	NaN	NaN	NaN	NaN
822.9281308	0.1334	sub-08	1	sequence	interval	dot	NaN	NaN	NaN	NaN	NaN	NaN	NaN	NaN	NaN	NaN	NaN	NaN
823.0615605000003	0.0999	sub-08	1	sequence	stimulus	Haus	NaN	NaN	128.0	NaN	NaN	2.0	5.0	NaN	NaN	NaN	NaN	NaN
823.1614608	0.1335	sub-08	1	sequence	interval	dot	NaN	NaN	NaN	NaN	NaN	NaN	NaN	NaN	NaN	NaN	NaN	NaN
823.2949156000004	8.0716	sub-08	1	sequence	delay	dot	NaN	NaN	NaN	NaN	NaN	NaN	NaN	NaN	NaN	NaN	NaN	NaN
831.3468420999998	0.6557	sub-08	1	sequence	choice	choice	right	NaN	NaN	-9.810493699999824	True	NaN	NaN	right	True	3.0	5.0	5.0
832.0028111000001	0.4998	sub-08	1	sequence	feedback	NaN	NaN	NaN	NaN	NaN	NaN	NaN	NaN	NaN	NaN	NaN	NaN	NaN
832.5031165999999	9.2069	sub-08	1	other	break	break	NaN	NaN	NaN	NaN	NaN	NaN	NaN	NaN	NaN	NaN	NaN	NaN
845.5471356999997	0.4996	sub-08	1	localizer	stimulus	Haus	NaN	0	2.551850299999387	NaN	True	NaN	NaN	NaN	NaN	NaN	NaN	NaN
846.0301642000004	2.5519	sub-08	1	localizer	blank	interval	NaN	NaN	NaN	NaN	NaN	NaN	NaN	NaN	NaN	NaN	NaN	NaN
848.8830699999999	0.4996	sub-08	1	localizer	stimulus	Katze	NaN	0	2.868894100000034	NaN	True	NaN	NaN	NaN	NaN	NaN	NaN	NaN
849.3661381000002	2.8689	sub-08	1	localizer	blank	interval	NaN	NaN	NaN	NaN	NaN	NaN	NaN	NaN	NaN	NaN	NaN	NaN
852.5360538000004	0.4995	sub-08	1	localizer	stimulus	Katze	NaN	0	2.835547800000313	NaN	True	NaN	NaN	NaN	NaN	NaN	NaN	NaN
853.0190470999996	2.8355	sub-08	1	localizer	blank	interval	NaN	NaN	NaN	NaN	NaN	NaN	NaN	NaN	NaN	NaN	NaN	NaN
856.1556241999997	0.4995	sub-08	1	localizer	stimulus	Schuh	NaN	0	2.7187583999993876	NaN	True	NaN	NaN	NaN	NaN	NaN	NaN	NaN
856.6386847000003	2.7188	sub-08	1	localizer	blank	interval	NaN	NaN	NaN	NaN	NaN	NaN	NaN	NaN	NaN	NaN	NaN	NaN
859.6585044000003	0.4995	sub-08	1	localizer	stimulus	Haus	NaN	180	2.851977000000261	-9.81424479999987	True	NaN	NaN	NaN	NaN	NaN	NaN	NaN
860.1416694	2.852	sub-08	1	localizer	blank	interval	NaN	NaN	NaN	NaN	NaN	NaN	NaN	NaN	NaN	NaN	NaN	NaN
863.2947924999999	0.4995	sub-08	1	localizer	stimulus	Gesicht	NaN	0	2.8522727999998096	NaN	True	NaN	NaN	NaN	NaN	NaN	NaN	NaN
863.7777401000003	2.8523	sub-08	1	localizer	blank	interval	NaN	NaN	NaN	NaN	NaN	NaN	NaN	NaN	NaN	NaN	NaN	NaN
866.9310722999999	0.4996	sub-08	1	localizer	stimulus	Haus	NaN	0	1.9012691999996605	NaN	True	NaN	NaN	NaN	NaN	NaN	NaN	NaN
867.4141821000003	1.9013	sub-08	1	localizer	blank	interval	NaN	NaN	NaN	NaN	NaN	NaN	NaN	NaN	NaN	NaN	NaN	NaN
869.6165503000002	0.4995	sub-08	1	localizer	stimulus	Haus	NaN	0	2.051484900000105	NaN	True	NaN	NaN	NaN	NaN	NaN	NaN	NaN
870.0995524999998	2.0515	sub-08	1	localizer	blank	interval	NaN	NaN	NaN	NaN	NaN	NaN	NaN	NaN	NaN	NaN	NaN	NaN
872.4521495999998	0.4995	sub-08	1	localizer	stimulus	Stuhl	NaN	0	2.685395100000278	NaN	True	NaN	NaN	NaN	NaN	NaN	NaN	NaN
872.9351035	2.6854	sub-08	1	localizer	blank	interval	NaN	NaN	NaN	NaN	NaN	NaN	NaN	NaN	NaN	NaN	NaN	NaN
875.9216396000002	0.4996	sub-08	1	localizer	stimulus	Stuhl	NaN	0	2.41863099999955	NaN	True	NaN	NaN	NaN	NaN	NaN	NaN	NaN
876.4045787000005	2.4186	sub-08	1	localizer	blank	interval	NaN	NaN	NaN	NaN	NaN	NaN	NaN	NaN	NaN	NaN	NaN	NaN
879.1243310999998	0.4995	sub-08	1	localizer	stimulus	Schuh	NaN	180	2.018178600000283	-9.944298000000344	True	NaN	NaN	NaN	NaN	NaN	NaN	NaN
879.6073287999998	2.0182	sub-08	1	localizer	blank	interval	NaN	NaN	NaN	NaN	NaN	NaN	NaN	NaN	NaN	NaN	NaN	NaN
881.9265144000001	0.4995	sub-08	1	localizer	stimulus	Gesicht	NaN	0	3.33586109999942	NaN	True	NaN	NaN	NaN	NaN	NaN	NaN	NaN
882.4094621000004	3.3359	sub-08	1	localizer	blank	interval	NaN	NaN	NaN	NaN	NaN	NaN	NaN	NaN	NaN	NaN	NaN	NaN
886.0467411	0.4994	sub-08	1	localizer	stimulus	Gesicht	NaN	0	1.5846209000001181	NaN	True	NaN	NaN	NaN	NaN	NaN	NaN	NaN
886.5294262999996	1.5846	sub-08	1	localizer	blank	interval	NaN	NaN	NaN	NaN	NaN	NaN	NaN	NaN	NaN	NaN	NaN	NaN
888.4150750999997	0.4996	sub-08	1	localizer	stimulus	Stuhl	NaN	180	1.918046100000538	-9.843442800000048	True	NaN	NaN	NaN	NaN	NaN	NaN	NaN
888.8982048999997	1.918	sub-08	1	localizer	blank	interval	NaN	NaN	NaN	NaN	NaN	NaN	NaN	NaN	NaN	NaN	NaN	NaN
891.1172718999997	0.4994	sub-08	1	localizer	stimulus	Katze	NaN	0	3.152522499999577	NaN	True	NaN	NaN	NaN	NaN	NaN	NaN	NaN
891.6001947000004	3.1525	sub-08	1	localizer	blank	interval	NaN	NaN	NaN	NaN	NaN	NaN	NaN	NaN	NaN	NaN	NaN	NaN
895.0537864999997	0.4996	sub-08	1	localizer	stimulus	Gesicht	NaN	180	2.702174699999887	-9.825862300000152	True	NaN	NaN	NaN	NaN	NaN	NaN	NaN
895.536717	2.7022	sub-08	1	localizer	blank	interval	NaN	NaN	NaN	NaN	NaN	NaN	NaN	NaN	NaN	NaN	NaN	NaN
898.5400897999998	0.4996	sub-08	1	localizer	stimulus	Katze	NaN	0	2.8188859000001685	NaN	True	NaN	NaN	NaN	NaN	NaN	NaN	NaN
899.0230253999998	2.8189	sub-08	1	localizer	blank	interval	NaN	NaN	NaN	NaN	NaN	NaN	NaN	NaN	NaN	NaN	NaN	NaN
902.1429958	0.4993	sub-08	1	localizer	stimulus	Stuhl	NaN	0	2.718668700000194	NaN	True	NaN	NaN	NaN	NaN	NaN	NaN	NaN
902.6258231000002	2.7187	sub-08	1	localizer	blank	interval	NaN	NaN	NaN	NaN	NaN	NaN	NaN	NaN	NaN	NaN	NaN	NaN
905.6457124	0.4994	sub-08	1	localizer	stimulus	Haus	NaN	0	2.3185439000000088	NaN	True	NaN	NaN	NaN	NaN	NaN	NaN	NaN
906.1286682	2.3185	sub-08	1	localizer	blank	interval	NaN	NaN	NaN	NaN	NaN	NaN	NaN	NaN	NaN	NaN	NaN	NaN
908.7481860999995	0.4996	sub-08	1	localizer	stimulus	Schuh	NaN	0	2.5016564000007975	NaN	True	NaN	NaN	NaN	NaN	NaN	NaN	NaN
909.2313593999996	2.5017	sub-08	1	localizer	blank	interval	NaN	NaN	NaN	NaN	NaN	NaN	NaN	NaN	NaN	NaN	NaN	NaN
912.0341589	0.4995	sub-08	1	localizer	stimulus	Stuhl	NaN	0	2.134875999999963	NaN	True	NaN	NaN	NaN	NaN	NaN	NaN	NaN
912.5172048000004	2.1349	sub-08	1	localizer	blank	interval	NaN	NaN	NaN	NaN	NaN	NaN	NaN	NaN	NaN	NaN	NaN	NaN
914.9532308999997	0.4996	sub-08	1	localizer	stimulus	Gesicht	NaN	0	2.7022191999993765	NaN	True	NaN	NaN	NaN	NaN	NaN	NaN	NaN
915.4361428000002	2.7022	sub-08	1	localizer	blank	interval	NaN	NaN	NaN	NaN	NaN	NaN	NaN	NaN	NaN	NaN	NaN	NaN
918.4396007000004	0.4994	sub-08	1	localizer	stimulus	Schuh	NaN	0	3.419163399999775	NaN	True	NaN	NaN	NaN	NaN	NaN	NaN	NaN
918.9224759	3.4192	sub-08	1	localizer	blank	interval	NaN	NaN	NaN	NaN	NaN	NaN	NaN	NaN	NaN	NaN	NaN	NaN
922.6428877999996	0.4994	sub-08	1	localizer	stimulus	Schuh	NaN	0	3.0690066999995906	NaN	True	NaN	NaN	NaN	NaN	NaN	NaN	NaN
923.1257069000004	3.069	sub-08	1	localizer	blank	interval	NaN	NaN	NaN	NaN	NaN	NaN	NaN	NaN	NaN	NaN	NaN	NaN
926.4958846	0.4995	sub-08	1	localizer	stimulus	Katze	NaN	180	2.5688466999999946	-9.931423200000609	True	NaN	NaN	NaN	NaN	NaN	NaN	NaN
926.9788121	2.5688	sub-08	1	localizer	blank	interval	NaN	NaN	NaN	NaN	NaN	NaN	NaN	NaN	NaN	NaN	NaN	NaN
933.0339040999996	1.0005	sub-08	1	sequence	cue	Stuhl	NaN	NaN	NaN	NaN	NaN	NaN	NaN	NaN	NaN	NaN	NaN	NaN
934.0344135000004	2.0016	sub-08	1	sequence	blank	blank	NaN	NaN	NaN	NaN	NaN	NaN	NaN	NaN	NaN	NaN	NaN	NaN
936.0360436	0.3003	sub-08	1	sequence	fixation	dot	NaN	NaN	NaN	NaN	NaN	NaN	NaN	NaN	NaN	NaN	NaN	NaN
936.3539195000004	0.0991	sub-08	1	sequence	stimulus	Gesicht	NaN	NaN	128.0	NaN	NaN	1.0	1.0	NaN	NaN	NaN	NaN	NaN
936.4529776999998	0.1338	sub-08	1	sequence	interval	dot	NaN	NaN	NaN	NaN	NaN	NaN	NaN	NaN	NaN	NaN	NaN	NaN
936.5867459	0.0999	sub-08	1	sequence	stimulus	Katze	NaN	NaN	128.0	NaN	NaN	3.0	2.0	NaN	NaN	NaN	NaN	NaN
936.6866523999996	0.1334	sub-08	1	sequence	interval	dot	NaN	NaN	NaN	NaN	NaN	NaN	NaN	NaN	NaN	NaN	NaN	NaN
936.8200690000004	0.1	sub-08	1	sequence	stimulus	Schuh	NaN	NaN	128.0	NaN	NaN	4.0	3.0	NaN	NaN	NaN	NaN	NaN
936.9200735000004	0.1337	sub-08	1	sequence	interval	dot	NaN	NaN	NaN	NaN	NaN	NaN	NaN	NaN	NaN	NaN	NaN	NaN
937.0537657000004	0.0998	sub-08	1	sequence	stimulus	Haus	NaN	NaN	128.0	NaN	NaN	2.0	4.0	NaN	NaN	NaN	NaN	NaN
937.1535434999996	0.1336	sub-08	1	sequence	interval	dot	NaN	NaN	NaN	NaN	NaN	NaN	NaN	NaN	NaN	NaN	NaN	NaN
937.2871883999996	0.0999	sub-08	1	sequence	stimulus	Stuhl	NaN	NaN	128.0	NaN	NaN	5.0	5.0	NaN	NaN	NaN	NaN	NaN
937.387108	0.1334	sub-08	1	sequence	interval	dot	NaN	NaN	NaN	NaN	NaN	NaN	NaN	NaN	NaN	NaN	NaN	NaN
937.5205412000004	8.0551	sub-08	1	sequence	delay	dot	NaN	NaN	NaN	NaN	NaN	NaN	NaN	NaN	NaN	NaN	NaN	NaN
945.5625154	0.9824	sub-08	1	sequence	choice	choice	left	NaN	NaN	-9.475291200000356	True	NaN	NaN	left	True	5.0	2.0	5.0
946.5451070999998	0.5	sub-08	1	sequence	feedback	NaN	NaN	NaN	NaN	NaN	NaN	NaN	NaN	NaN	NaN	NaN	NaN	NaN
947.0452787000004	1.0005	sub-08	1	sequence	cue	Katze	NaN	NaN	NaN	NaN	NaN	NaN	NaN	NaN	NaN	NaN	NaN	NaN
948.0457578000004	2.0018	sub-08	1	sequence	blank	blank	NaN	NaN	NaN	NaN	NaN	NaN	NaN	NaN	NaN	NaN	NaN	NaN
950.0475623000002	0.3002	sub-08	1	sequence	fixation	dot	NaN	NaN	NaN	NaN	NaN	NaN	NaN	NaN	NaN	NaN	NaN	NaN
950.3661837	0.115	sub-08	1	sequence	stimulus	Schuh	NaN	NaN	512.0	NaN	NaN	4.0	1.0	NaN	NaN	NaN	NaN	NaN
950.4811931000004	0.5173	sub-08	1	sequence	interval	dot	NaN	NaN	NaN	NaN	NaN	NaN	NaN	NaN	NaN	NaN	NaN	NaN
950.9984892000002	0.0999	sub-08	1	sequence	stimulus	Haus	NaN	NaN	512.0	NaN	NaN	2.0	2.0	NaN	NaN	NaN	NaN	NaN
951.0983482	0.5174	sub-08	1	sequence	interval	dot	NaN	NaN	NaN	NaN	NaN	NaN	NaN	NaN	NaN	NaN	NaN	NaN
951.6157134000003	0.0998	sub-08	1	sequence	stimulus	Katze	NaN	NaN	512.0	NaN	NaN	3.0	3.0	NaN	NaN	NaN	NaN	NaN
951.7155608000004	0.5174	sub-08	1	sequence	interval	dot	NaN	NaN	NaN	NaN	NaN	NaN	NaN	NaN	NaN	NaN	NaN	NaN
952.2329744999996	0.0998	sub-08	1	sequence	stimulus	Stuhl	NaN	NaN	512.0	NaN	NaN	5.0	4.0	NaN	NaN	NaN	NaN	NaN
952.3328086	0.5171	sub-08	1	sequence	interval	dot	NaN	NaN	NaN	NaN	NaN	NaN	NaN	NaN	NaN	NaN	NaN	NaN
952.8499211999996	0.0999	sub-08	1	sequence	stimulus	Gesicht	NaN	NaN	512.0	NaN	NaN	1.0	5.0	NaN	NaN	NaN	NaN	NaN
952.9498580999998	0.517	sub-08	1	sequence	interval	dot	NaN	NaN	NaN	NaN	NaN	NaN	NaN	NaN	NaN	NaN	NaN	NaN
953.4668548999998	6.1534	sub-08	1	sequence	delay	dot	NaN	NaN	NaN	NaN	NaN	NaN	NaN	NaN	NaN	NaN	NaN	NaN
959.6022027999998	0.6207	sub-08	1	sequence	choice	choice	left	NaN	NaN	-9.8397530000002	True	NaN	NaN	left	True	3.0	5.0	3.0
960.2232301000004	0.4998	sub-08	1	sequence	feedback	NaN	NaN	NaN	NaN	NaN	NaN	NaN	NaN	NaN	NaN	NaN	NaN	NaN
960.7232618999996	1.0004	sub-08	1	sequence	cue	Schuh	NaN	NaN	NaN	NaN	NaN	NaN	NaN	NaN	NaN	NaN	NaN	NaN
961.7236456	2.0015	sub-08	1	sequence	blank	blank	NaN	NaN	NaN	NaN	NaN	NaN	NaN	NaN	NaN	NaN	NaN	NaN
963.7251048999996	0.3002	sub-08	1	sequence	fixation	dot	NaN	NaN	NaN	NaN	NaN	NaN	NaN	NaN	NaN	NaN	NaN	NaN
964.0588084	0.0999	sub-08	1	sequence	stimulus	Gesicht	NaN	NaN	32.0	NaN	NaN	1.0	1.0	NaN	NaN	NaN	NaN	NaN
964.1587178999998	0.0336	sub-08	1	sequence	interval	dot	NaN	NaN	NaN	NaN	NaN	NaN	NaN	NaN	NaN	NaN	NaN	NaN
964.1922949	0.1	sub-08	1	sequence	stimulus	Katze	NaN	NaN	32.0	NaN	NaN	3.0	2.0	NaN	NaN	NaN	NaN	NaN
964.2922968000004	0.0334	sub-08	1	sequence	interval	dot	NaN	NaN	NaN	NaN	NaN	NaN	NaN	NaN	NaN	NaN	NaN	NaN
964.3256865000004	0.1	sub-08	1	sequence	stimulus	Haus	NaN	NaN	32.0	NaN	NaN	2.0	3.0	NaN	NaN	NaN	NaN	NaN
964.4256606	0.0335	sub-08	1	sequence	interval	dot	NaN	NaN	NaN	NaN	NaN	NaN	NaN	NaN	NaN	NaN	NaN	NaN
964.4591157000004	0.1	sub-08	1	sequence	stimulus	Stuhl	NaN	NaN	32.0	NaN	NaN	5.0	4.0	NaN	NaN	NaN	NaN	NaN
964.5590904	0.0334	sub-08	1	sequence	interval	dot	NaN	NaN	NaN	NaN	NaN	NaN	NaN	NaN	NaN	NaN	NaN	NaN
964.5924839	0.1001	sub-08	1	sequence	stimulus	Schuh	NaN	NaN	32.0	NaN	NaN	4.0	5.0	NaN	NaN	NaN	NaN	NaN
964.6925609999998	0.0333	sub-08	1	sequence	interval	dot	NaN	NaN	NaN	NaN	NaN	NaN	NaN	NaN	NaN	NaN	NaN	NaN
964.7258853000004	8.539	sub-08	1	sequence	delay	dot	NaN	NaN	NaN	NaN	NaN	NaN	NaN	NaN	NaN	NaN	NaN	NaN
973.2519129000002	0.6988	sub-08	1	sequence	choice	choice	right	NaN	NaN	-9.764665200000309	False	NaN	NaN	left	True	5.0	4.0	5.0
973.9510083000004	0.4998	sub-08	1	sequence	feedback	NaN	NaN	NaN	NaN	NaN	NaN	NaN	NaN	NaN	NaN	NaN	NaN	NaN
974.4509839000002	1.0002	sub-08	1	sequence	cue	Schuh	NaN	NaN	NaN	NaN	NaN	NaN	NaN	NaN	NaN	NaN	NaN	NaN
975.4512396	2.0017	sub-08	1	sequence	blank	blank	NaN	NaN	NaN	NaN	NaN	NaN	NaN	NaN	NaN	NaN	NaN	NaN
977.4529126999996	0.3002	sub-08	1	sequence	fixation	dot	NaN	NaN	NaN	NaN	NaN	NaN	NaN	NaN	NaN	NaN	NaN	NaN
977.7707154999998	0.0992	sub-08	1	sequence	stimulus	Gesicht	NaN	NaN	64.0	NaN	NaN	1.0	1.0	NaN	NaN	NaN	NaN	NaN
977.8698845999998	0.0668	sub-08	1	sequence	interval	dot	NaN	NaN	NaN	NaN	NaN	NaN	NaN	NaN	NaN	NaN	NaN	NaN
977.9367333	0.1004	sub-08	1	sequence	stimulus	Katze	NaN	NaN	64.0	NaN	NaN	3.0	2.0	NaN	NaN	NaN	NaN	NaN
978.0370887	0.0666	sub-08	1	sequence	interval	dot	NaN	NaN	NaN	NaN	NaN	NaN	NaN	NaN	NaN	NaN	NaN	NaN
978.1037333000004	0.0999	sub-08	1	sequence	stimulus	Schuh	NaN	NaN	64.0	NaN	NaN	4.0	3.0	NaN	NaN	NaN	NaN	NaN
978.2036072	0.0668	sub-08	1	sequence	interval	dot	NaN	NaN	NaN	NaN	NaN	NaN	NaN	NaN	NaN	NaN	NaN	NaN
978.2703649000003	0.1	sub-08	1	sequence	stimulus	Stuhl	NaN	NaN	64.0	NaN	NaN	5.0	4.0	NaN	NaN	NaN	NaN	NaN
978.3703849000004	0.0668	sub-08	1	sequence	interval	dot	NaN	NaN	NaN	NaN	NaN	NaN	NaN	NaN	NaN	NaN	NaN	NaN
978.4371682	0.1	sub-08	1	sequence	stimulus	Haus	NaN	NaN	64.0	NaN	NaN	2.0	5.0	NaN	NaN	NaN	NaN	NaN
978.5372110999996	0.0667	sub-08	1	sequence	interval	dot	NaN	NaN	NaN	NaN	NaN	NaN	NaN	NaN	NaN	NaN	NaN	NaN
978.6039093999998	8.3718	sub-08	1	sequence	delay	dot	NaN	NaN	NaN	NaN	NaN	NaN	NaN	NaN	NaN	NaN	NaN	NaN
986.9536020000004	0.8748	sub-08	1	sequence	choice	choice	left	NaN	NaN	-9.588164900000264	False	NaN	NaN	right	True	5.0	3.0	3.0
987.8285070000002	0.5	sub-08	1	sequence	feedback	NaN	NaN	NaN	NaN	NaN	NaN	NaN	NaN	NaN	NaN	NaN	NaN	NaN
988.3286233999996	1.0006	sub-08	1	sequence	cue	Schuh	NaN	NaN	NaN	NaN	NaN	NaN	NaN	NaN	NaN	NaN	NaN	NaN
989.3292217999996	2.0015	sub-08	1	sequence	blank	blank	NaN	NaN	NaN	NaN	NaN	NaN	NaN	NaN	NaN	NaN	NaN	NaN
991.3307664000004	0.3004	sub-08	1	sequence	fixation	dot	NaN	NaN	NaN	NaN	NaN	NaN	NaN	NaN	NaN	NaN	NaN	NaN
991.6486979	0.0992	sub-08	1	sequence	stimulus	Stuhl	NaN	NaN	64.0	NaN	NaN	5.0	1.0	NaN	NaN	NaN	NaN	NaN
991.7479044000002	0.067	sub-08	1	sequence	interval	dot	NaN	NaN	NaN	NaN	NaN	NaN	NaN	NaN	NaN	NaN	NaN	NaN
991.8149076999998	0.0998	sub-08	1	sequence	stimulus	Katze	NaN	NaN	64.0	NaN	NaN	3.0	2.0	NaN	NaN	NaN	NaN	NaN
991.9146793999998	0.0669	sub-08	1	sequence	interval	dot	NaN	NaN	NaN	NaN	NaN	NaN	NaN	NaN	NaN	NaN	NaN	NaN
991.9815731999996	0.1	sub-08	1	sequence	stimulus	Haus	NaN	NaN	64.0	NaN	NaN	2.0	3.0	NaN	NaN	NaN	NaN	NaN
992.0816022999998	0.0667	sub-08	1	sequence	interval	dot	NaN	NaN	NaN	NaN	NaN	NaN	NaN	NaN	NaN	NaN	NaN	NaN
992.1483209999996	0.1	sub-08	1	sequence	stimulus	Gesicht	NaN	NaN	64.0	NaN	NaN	1.0	4.0	NaN	NaN	NaN	NaN	NaN
992.2483395	0.0668	sub-08	1	sequence	interval	dot	NaN	NaN	NaN	NaN	NaN	NaN	NaN	NaN	NaN	NaN	NaN	NaN
992.3151641000004	0.1001	sub-08	1	sequence	stimulus	Schuh	NaN	NaN	64.0	NaN	NaN	4.0	5.0	NaN	NaN	NaN	NaN	NaN
992.4152264000004	0.0667	sub-08	1	sequence	interval	dot	NaN	NaN	NaN	NaN	NaN	NaN	NaN	NaN	NaN	NaN	NaN	NaN
992.4819002000004	8.3717	sub-08	1	sequence	delay	dot	NaN	NaN	NaN	NaN	NaN	NaN	NaN	NaN	NaN	NaN	NaN	NaN
1000.8373395	1.036	sub-08	1	sequence	choice	choice	right	NaN	NaN	-9.425959000000148	True	NaN	NaN	right	True	4.0	5.0	5.0
1001.8735609000004	0.5	sub-08	1	sequence	feedback	NaN	NaN	NaN	NaN	NaN	NaN	NaN	NaN	NaN	NaN	NaN	NaN	NaN
1002.3736586000005	1.0002	sub-08	1	sequence	cue	Schuh	NaN	NaN	NaN	NaN	NaN	NaN	NaN	NaN	NaN	NaN	NaN	NaN
1003.3738888999997	2.0017	sub-08	1	sequence	blank	blank	NaN	NaN	NaN	NaN	NaN	NaN	NaN	NaN	NaN	NaN	NaN	NaN
1005.3755595000002	0.3003	sub-08	1	sequence	fixation	dot	NaN	NaN	NaN	NaN	NaN	NaN	NaN	NaN	NaN	NaN	NaN	NaN
1005.6940077	0.1151	sub-08	1	sequence	stimulus	Gesicht	NaN	NaN	32.0	NaN	NaN	1.0	1.0	NaN	NaN	NaN	NaN	NaN
1005.8090671999998	0.0336	sub-08	1	sequence	interval	dot	NaN	NaN	NaN	NaN	NaN	NaN	NaN	NaN	NaN	NaN	NaN	NaN
1005.8426532000004	0.1	sub-08	1	sequence	stimulus	Haus	NaN	NaN	32.0	NaN	NaN	2.0	2.0	NaN	NaN	NaN	NaN	NaN
1005.9426064999998	0.0335	sub-08	1	sequence	interval	dot	NaN	NaN	NaN	NaN	NaN	NaN	NaN	NaN	NaN	NaN	NaN	NaN
1005.9761111999997	0.1	sub-08	1	sequence	stimulus	Schuh	NaN	NaN	32.0	NaN	NaN	4.0	3.0	NaN	NaN	NaN	NaN	NaN
1006.0761309999998	0.0334	sub-08	1	sequence	interval	dot	NaN	NaN	NaN	NaN	NaN	NaN	NaN	NaN	NaN	NaN	NaN	NaN
1006.1095409	0.1001	sub-08	1	sequence	stimulus	Stuhl	NaN	NaN	32.0	NaN	NaN	5.0	4.0	NaN	NaN	NaN	NaN	NaN
1006.2096062	0.0334	sub-08	1	sequence	interval	dot	NaN	NaN	NaN	NaN	NaN	NaN	NaN	NaN	NaN	NaN	NaN	NaN
1006.2430322	0.0999	sub-08	1	sequence	stimulus	Katze	NaN	NaN	32.0	NaN	NaN	3.0	5.0	NaN	NaN	NaN	NaN	NaN
1006.3429815999998	0.0334	sub-08	1	sequence	interval	dot	NaN	NaN	NaN	NaN	NaN	NaN	NaN	NaN	NaN	NaN	NaN	NaN
1006.3764238000005	8.5387	sub-08	1	sequence	delay	dot	NaN	NaN	NaN	NaN	NaN	NaN	NaN	NaN	NaN	NaN	NaN	NaN
1014.9030789999996	1.5319	sub-08	1	sequence	choice	choice	left	NaN	NaN	-8.9187651000002	True	NaN	NaN	left	True	3.0	4.0	3.0
1016.4352749999998	0.4999	sub-08	1	sequence	feedback	NaN	NaN	NaN	NaN	NaN	NaN	NaN	NaN	NaN	NaN	NaN	NaN	NaN
1016.9353785000004	1.0002	sub-08	1	sequence	cue	Katze	NaN	NaN	NaN	NaN	NaN	NaN	NaN	NaN	NaN	NaN	NaN	NaN
1017.9356307999996	2.0016	sub-08	1	sequence	blank	blank	NaN	NaN	NaN	NaN	NaN	NaN	NaN	NaN	NaN	NaN	NaN	NaN
1019.9372585	0.3003	sub-08	1	sequence	fixation	dot	NaN	NaN	NaN	NaN	NaN	NaN	NaN	NaN	NaN	NaN	NaN	NaN
1020.2551155	0.0993	sub-08	1	sequence	stimulus	Schuh	NaN	NaN	512.0	NaN	NaN	4.0	1.0	NaN	NaN	NaN	NaN	NaN
1020.3543670999998	0.5172	sub-08	1	sequence	interval	dot	NaN	NaN	NaN	NaN	NaN	NaN	NaN	NaN	NaN	NaN	NaN	NaN
1020.8716057	0.1	sub-08	1	sequence	stimulus	Haus	NaN	NaN	512.0	NaN	NaN	2.0	2.0	NaN	NaN	NaN	NaN	NaN
1020.9715649999998	0.5172	sub-08	1	sequence	interval	dot	NaN	NaN	NaN	NaN	NaN	NaN	NaN	NaN	NaN	NaN	NaN	NaN
1021.4887513000004	0.0999	sub-08	1	sequence	stimulus	Katze	NaN	NaN	512.0	NaN	NaN	3.0	3.0	NaN	NaN	NaN	NaN	NaN
1021.5886295	0.5172	sub-08	1	sequence	interval	dot	NaN	NaN	NaN	NaN	NaN	NaN	NaN	NaN	NaN	NaN	NaN	NaN
1022.1058672	0.0999	sub-08	1	sequence	stimulus	Gesicht	NaN	NaN	512.0	NaN	NaN	1.0	4.0	NaN	NaN	NaN	NaN	NaN
1022.205809	0.5173	sub-08	1	sequence	interval	dot	NaN	NaN	NaN	NaN	NaN	NaN	NaN	NaN	NaN	NaN	NaN	NaN
1022.7230876000004	0.1	sub-08	1	sequence	stimulus	Stuhl	NaN	NaN	512.0	NaN	NaN	5.0	5.0	NaN	NaN	NaN	NaN	NaN
1022.8230641	0.517	sub-08	1	sequence	interval	dot	NaN	NaN	NaN	NaN	NaN	NaN	NaN	NaN	NaN	NaN	NaN	NaN
1023.3400828000003	6.1368	sub-08	1	sequence	delay	dot	NaN	NaN	NaN	NaN	NaN	NaN	NaN	NaN	NaN	NaN	NaN	NaN
1029.4628132999997	0.6999	sub-08	1	sequence	choice	choice	right	NaN	NaN	-9.7530325000007	True	NaN	NaN	right	True	4.0	3.0	3.0
1030.1629506	0.4999	sub-08	1	sequence	feedback	NaN	NaN	NaN	NaN	NaN	NaN	NaN	NaN	NaN	NaN	NaN	NaN	NaN
1030.6630861000003	1.0003	sub-08	1	sequence	cue	Stuhl	NaN	NaN	NaN	NaN	NaN	NaN	NaN	NaN	NaN	NaN	NaN	NaN
1031.6633625000004	2.0018	sub-08	1	sequence	blank	blank	NaN	NaN	NaN	NaN	NaN	NaN	NaN	NaN	NaN	NaN	NaN	NaN
1033.6651994000003	0.3002	sub-08	1	sequence	fixation	dot	NaN	NaN	NaN	NaN	NaN	NaN	NaN	NaN	NaN	NaN	NaN	NaN
1033.9837532	0.1151	sub-08	1	sequence	stimulus	Gesicht	NaN	NaN	128.0	NaN	NaN	1.0	1.0	NaN	NaN	NaN	NaN	NaN
1034.0988598000004	0.1336	sub-08	1	sequence	interval	dot	NaN	NaN	NaN	NaN	NaN	NaN	NaN	NaN	NaN	NaN	NaN	NaN
1034.2324691000003	0.1001	sub-08	1	sequence	stimulus	Katze	NaN	NaN	128.0	NaN	NaN	3.0	2.0	NaN	NaN	NaN	NaN	NaN
1034.3325636999998	0.1333	sub-08	1	sequence	interval	dot	NaN	NaN	NaN	NaN	NaN	NaN	NaN	NaN	NaN	NaN	NaN	NaN
1034.4658578999995	0.1	sub-08	1	sequence	stimulus	Stuhl	NaN	NaN	128.0	NaN	NaN	5.0	3.0	NaN	NaN	NaN	NaN	NaN
1034.5658160000005	0.1335	sub-08	1	sequence	interval	dot	NaN	NaN	NaN	NaN	NaN	NaN	NaN	NaN	NaN	NaN	NaN	NaN
1034.6993423000004	0.1	sub-08	1	sequence	stimulus	Schuh	NaN	NaN	128.0	NaN	NaN	4.0	4.0	NaN	NaN	NaN	NaN	NaN
1034.7993116999996	0.1336	sub-08	1	sequence	interval	dot	NaN	NaN	NaN	NaN	NaN	NaN	NaN	NaN	NaN	NaN	NaN	NaN
1034.9328684000002	0.1	sub-08	1	sequence	stimulus	Haus	NaN	NaN	128.0	NaN	NaN	2.0	5.0	NaN	NaN	NaN	NaN	NaN
1035.0328368	0.1334	sub-08	1	sequence	interval	dot	NaN	NaN	NaN	NaN	NaN	NaN	NaN	NaN	NaN	NaN	NaN	NaN
1035.1662588	8.0717	sub-08	1	sequence	delay	dot	NaN	NaN	NaN	NaN	NaN	NaN	NaN	NaN	NaN	NaN	NaN	NaN
1043.2163779000002	0.6575	sub-08	1	sequence	choice	choice	right	NaN	NaN	-9.802173799999764	True	NaN	NaN	right	True	5.0	3.0	3.0
1043.8741732	0.4997	sub-08	1	sequence	feedback	NaN	NaN	NaN	NaN	NaN	NaN	NaN	NaN	NaN	NaN	NaN	NaN	NaN
1048.1943431999998	0.4994	sub-08	1	localizer	stimulus	Gesicht	NaN	0	3.519446799999969	NaN	True	NaN	NaN	NaN	NaN	NaN	NaN	NaN
1048.6772096000004	3.5194	sub-08	1	localizer	blank	interval	NaN	NaN	NaN	NaN	NaN	NaN	NaN	NaN	NaN	NaN	NaN	NaN
1052.4977762	0.4995	sub-08	1	localizer	stimulus	Schuh	NaN	0	2.852288000000044	NaN	True	NaN	NaN	NaN	NaN	NaN	NaN	NaN
1052.9806873999996	2.8523	sub-08	1	localizer	blank	interval	NaN	NaN	NaN	NaN	NaN	NaN	NaN	NaN	NaN	NaN	NaN	NaN
1056.1341272	0.4996	sub-08	1	localizer	stimulus	Katze	NaN	0	2.134941999999455	NaN	True	NaN	NaN	NaN	NaN	NaN	NaN	NaN
1056.617099	2.1349	sub-08	1	localizer	blank	interval	NaN	NaN	NaN	NaN	NaN	NaN	NaN	NaN	NaN	NaN	NaN	NaN
1059.0533408	0.4992	sub-08	1	localizer	stimulus	Katze	NaN	180	2.3351995000002717	-9.857168499999716	True	NaN	NaN	NaN	NaN	NaN	NaN	NaN
1059.5360012	2.3352	sub-08	1	localizer	blank	interval	NaN	NaN	NaN	NaN	NaN	NaN	NaN	NaN	NaN	NaN	NaN	NaN
1062.1723515000003	0.4995	sub-08	1	localizer	stimulus	Haus	NaN	0	2.8354269999999815	NaN	True	NaN	NaN	NaN	NaN	NaN	NaN	NaN
1062.6553575999997	2.8354	sub-08	1	localizer	blank	interval	NaN	NaN	NaN	NaN	NaN	NaN	NaN	NaN	NaN	NaN	NaN	NaN
1065.7918785000002	0.4996	sub-08	1	localizer	stimulus	Katze	NaN	0	3.0522578999998586	NaN	True	NaN	NaN	NaN	NaN	NaN	NaN	NaN
1066.2748419	3.0523	sub-08	1	localizer	blank	interval	NaN	NaN	NaN	NaN	NaN	NaN	NaN	NaN	NaN	NaN	NaN	NaN
1069.6283356000004	0.4994	sub-08	1	localizer	stimulus	Gesicht	NaN	180	2.117813400000159	-9.758997700000693	True	NaN	NaN	NaN	NaN	NaN	NaN	NaN
1070.111715	2.1178	sub-08	1	localizer	blank	interval	NaN	NaN	NaN	NaN	NaN	NaN	NaN	NaN	NaN	NaN	NaN	NaN
1072.5306220000002	0.4995	sub-08	1	localizer	stimulus	Gesicht	NaN	0	2.768926200000351	NaN	True	NaN	NaN	NaN	NaN	NaN	NaN	NaN
1073.0135553	2.7689	sub-08	1	localizer	blank	interval	NaN	NaN	NaN	NaN	NaN	NaN	NaN	NaN	NaN	NaN	NaN	NaN
1076.0835479999996	0.4996	sub-08	1	localizer	stimulus	Katze	NaN	0	2.5017973999993046	NaN	True	NaN	NaN	NaN	NaN	NaN	NaN	NaN
1076.5665543000005	2.5018	sub-08	1	localizer	blank	interval	NaN	NaN	NaN	NaN	NaN	NaN	NaN	NaN	NaN	NaN	NaN	NaN
1079.3697390999996	0.4992	sub-08	1	localizer	stimulus	Schuh	NaN	180	2.7687988000006953	-9.742054400000598	True	NaN	NaN	NaN	NaN	NaN	NaN	NaN
1079.8525431999997	2.7688	sub-08	1	localizer	blank	interval	NaN	NaN	NaN	NaN	NaN	NaN	NaN	NaN	NaN	NaN	NaN	NaN
1082.9224762000003	0.4996	sub-08	1	localizer	stimulus	Stuhl	NaN	0	3.13548609999998	NaN	True	NaN	NaN	NaN	NaN	NaN	NaN	NaN
1083.4055709000004	3.1355	sub-08	1	localizer	blank	interval	NaN	NaN	NaN	NaN	NaN	NaN	NaN	NaN	NaN	NaN	NaN	NaN
1086.8422081999995	0.4995	sub-08	1	localizer	stimulus	Stuhl	NaN	0	2.3851799999990817	NaN	True	NaN	NaN	NaN	NaN	NaN	NaN	NaN
1087.3252189000004	2.3852	sub-08	1	localizer	blank	interval	NaN	NaN	NaN	NaN	NaN	NaN	NaN	NaN	NaN	NaN	NaN	NaN
1090.0115347	0.4995	sub-08	1	localizer	stimulus	Katze	NaN	0	1.9514368000000104	NaN	True	NaN	NaN	NaN	NaN	NaN	NaN	NaN
1090.4944698999998	1.9514	sub-08	1	localizer	blank	interval	NaN	NaN	NaN	NaN	NaN	NaN	NaN	NaN	NaN	NaN	NaN	NaN
1092.7470414999998	0.4995	sub-08	1	localizer	stimulus	Stuhl	NaN	0	2.9355763000003208	NaN	True	NaN	NaN	NaN	NaN	NaN	NaN	NaN
1093.2300341	2.9356	sub-08	1	localizer	blank	interval	NaN	NaN	NaN	NaN	NaN	NaN	NaN	NaN	NaN	NaN	NaN	NaN
1096.4667806999996	0.4995	sub-08	1	localizer	stimulus	Haus	NaN	0	3.2019275999998627	NaN	True	NaN	NaN	NaN	NaN	NaN	NaN	NaN
1096.9501502000005	3.2019	sub-08	1	localizer	blank	interval	NaN	NaN	NaN	NaN	NaN	NaN	NaN	NaN	NaN	NaN	NaN	NaN
