onset	duration	subject	session	condition	trial_type	stim_label	key_down	orientation	interval_time	response_time	accuracy	stim_index	serial_position	key_expected	key_pressed	choice_left	choice_right	choice_correct
1.258632199999738	1.0362	sub-16	1	instruction	instruction	language_selection	german	NaN	NaN	NaN	NaN	NaN	NaN	NaN	NaN	NaN	NaN	NaN
35.3221923000001	0.5	sub-16	1	localizer	stimulus	Stuhl	NaN	0	3.6528033000004143	NaN	1.0	NaN	NaN	NaN	NaN	NaN	NaN	NaN
35.80516209999951	3.6528	sub-16	1	localizer	blank	interval	NaN	NaN	NaN	NaN	NaN	NaN	NaN	NaN	NaN	NaN	NaN	NaN
39.75905739999962	0.4996	sub-16	1	localizer	stimulus	Haus	NaN	0	2.18491240000003	NaN	True	NaN	NaN	NaN	NaN	NaN	NaN	NaN
40.24215659999936	2.1849	sub-16	1	localizer	blank	interval	NaN	NaN	NaN	NaN	NaN	NaN	NaN	NaN	NaN	NaN	NaN	NaN
42.72817399999985	0.4996	sub-16	1	localizer	stimulus	Haus	NaN	0	2.5519443000002866	NaN	True	NaN	NaN	NaN	NaN	NaN	NaN	NaN
43.21116399999937	2.5519	sub-16	1	localizer	blank	interval	NaN	NaN	NaN	NaN	NaN	NaN	NaN	NaN	NaN	NaN	NaN	NaN
46.06421059999957	0.4995	sub-16	1	localizer	stimulus	Gesicht	NaN	0	2.8330636999999115	NaN	True	NaN	NaN	NaN	NaN	NaN	NaN	NaN
46.54720439999983	2.8331	sub-16	1	localizer	blank	interval	NaN	NaN	NaN	NaN	NaN	NaN	NaN	NaN	NaN	NaN	NaN	NaN
49.68396179999945	0.4996	sub-16	1	localizer	stimulus	Gesicht	NaN	0	3.102185599999764	NaN	True	NaN	NaN	NaN	NaN	NaN	NaN	NaN
50.1669837999998	3.1022	sub-16	1	localizer	blank	interval	NaN	NaN	NaN	NaN	NaN	NaN	NaN	NaN	NaN	NaN	NaN	NaN
53.5702510000001	0.4995	sub-16	1	localizer	stimulus	Schuh	NaN	0	2.1182785000000877	0.5481736000001547	False	NaN	NaN	NaN	NaN	NaN	NaN	NaN
54.05323959999987	2.1183	sub-16	1	localizer	blank	interval	NaN	NaN	NaN	NaN	NaN	NaN	NaN	NaN	NaN	NaN	NaN	NaN
56.47256879999986	0.4996	sub-16	1	localizer	stimulus	Stuhl	NaN	0	1.4009887000002053	NaN	True	NaN	NaN	NaN	NaN	NaN	NaN	NaN
56.95563749999928	1.401	sub-16	1	localizer	blank	interval	NaN	NaN	NaN	NaN	NaN	NaN	NaN	NaN	NaN	NaN	NaN	NaN
58.65765139999985	0.4996	sub-16	1	localizer	stimulus	Schuh	NaN	180	1.9848029000004317	0.612856599999759	True	NaN	NaN	NaN	NaN	NaN	NaN	NaN
59.140719299999546	1.9848	sub-16	1	localizer	blank	interval	NaN	NaN	NaN	NaN	NaN	NaN	NaN	NaN	NaN	NaN	NaN	NaN
61.42658959999972	0.4999	sub-16	1	localizer	stimulus	Katze	NaN	0	2.86882229999992	NaN	True	NaN	NaN	NaN	NaN	NaN	NaN	NaN
61.909658699999454	2.8688	sub-16	1	localizer	blank	interval	NaN	NaN	NaN	NaN	NaN	NaN	NaN	NaN	NaN	NaN	NaN	NaN
65.07959289999962	0.4995	sub-16	1	localizer	stimulus	Schuh	NaN	0	2.902324700000463	NaN	True	NaN	NaN	NaN	NaN	NaN	NaN	NaN
65.56255989999954	2.9023	sub-16	1	localizer	blank	interval	NaN	NaN	NaN	NaN	NaN	NaN	NaN	NaN	NaN	NaN	NaN	NaN
68.7659552999994	0.4996	sub-16	1	localizer	stimulus	Schuh	NaN	0	2.468739899999491	NaN	True	NaN	NaN	NaN	NaN	NaN	NaN	NaN
69.2490170000001	2.4687	sub-16	1	localizer	blank	interval	NaN	NaN	NaN	NaN	NaN	NaN	NaN	NaN	NaN	NaN	NaN	NaN
72.0187922999994	0.4995	sub-16	1	localizer	stimulus	Haus	NaN	180	2.7519845999995596	0.5958909999999378	True	NaN	NaN	NaN	NaN	NaN	NaN	NaN
72.50171479999972	2.752	sub-16	1	localizer	blank	interval	NaN	NaN	NaN	NaN	NaN	NaN	NaN	NaN	NaN	NaN	NaN	NaN
75.55473780000011	0.4995	sub-16	1	localizer	stimulus	Schuh	NaN	0	2.2683781999994608	NaN	True	NaN	NaN	NaN	NaN	NaN	NaN	NaN
76.03769879999982	2.2684	sub-16	1	localizer	blank	interval	NaN	NaN	NaN	NaN	NaN	NaN	NaN	NaN	NaN	NaN	NaN	NaN
78.60717999999997	0.4996	sub-16	1	localizer	stimulus	Gesicht	NaN	0	2.435193399999662	NaN	True	NaN	NaN	NaN	NaN	NaN	NaN	NaN
79.0901974999997	2.4352	sub-16	1	localizer	blank	interval	NaN	NaN	NaN	NaN	NaN	NaN	NaN	NaN	NaN	NaN	NaN	NaN
81.82650119999926	0.4995	sub-16	1	localizer	stimulus	Haus	NaN	0	2.7521069999993415	NaN	True	NaN	NaN	NaN	NaN	NaN	NaN	NaN
82.3094602000001	2.7521	sub-16	1	localizer	blank	interval	NaN	NaN	NaN	NaN	NaN	NaN	NaN	NaN	NaN	NaN	NaN	NaN
85.36270809999951	0.4995	sub-16	1	localizer	stimulus	Katze	NaN	180	2.0015000000003056	0.4836405999994895	True	NaN	NaN	NaN	NaN	NaN	NaN	NaN
85.84564879999925	2.0015	sub-16	1	localizer	blank	interval	NaN	NaN	NaN	NaN	NaN	NaN	NaN	NaN	NaN	NaN	NaN	NaN
88.1483662999999	0.4994	sub-16	1	localizer	stimulus	Haus	NaN	0	2.1016930999994656	NaN	True	NaN	NaN	NaN	NaN	NaN	NaN	NaN
88.63123379999979	2.1017	sub-16	1	localizer	blank	interval	NaN	NaN	NaN	NaN	NaN	NaN	NaN	NaN	NaN	NaN	NaN	NaN
91.03398079999988	0.4996	sub-16	1	localizer	stimulus	Stuhl	NaN	180	2.168402599999368	0.6042505000004894	True	NaN	NaN	NaN	NaN	NaN	NaN	NaN
91.51699009999992	2.1684	sub-16	1	localizer	blank	interval	NaN	NaN	NaN	NaN	NaN	NaN	NaN	NaN	NaN	NaN	NaN	NaN
93.98634459999994	0.4995	sub-16	1	localizer	stimulus	Stuhl	NaN	0	3.3525990999996793	NaN	True	NaN	NaN	NaN	NaN	NaN	NaN	NaN
94.46927719999984	3.3526	sub-16	1	localizer	blank	interval	NaN	NaN	NaN	NaN	NaN	NaN	NaN	NaN	NaN	NaN	NaN	NaN
98.12300549999964	0.4995	sub-16	1	localizer	stimulus	Gesicht	NaN	180	3.3025167999994665	0.6032642999998643	True	NaN	NaN	NaN	NaN	NaN	NaN	NaN
98.60597280000002	3.3025	sub-16	1	localizer	blank	interval	NaN	NaN	NaN	NaN	NaN	NaN	NaN	NaN	NaN	NaN	NaN	NaN
102.2095878	0.4995	sub-16	1	localizer	stimulus	Katze	NaN	0	3.1524605999993582	NaN	True	NaN	NaN	NaN	NaN	NaN	NaN	NaN
102.69259770000008	3.1525	sub-16	1	localizer	blank	interval	NaN	NaN	NaN	NaN	NaN	NaN	NaN	NaN	NaN	NaN	NaN	NaN
106.14616829999976	0.4995	sub-16	1	localizer	stimulus	Katze	NaN	0	2.602016000000745	NaN	True	NaN	NaN	NaN	NaN	NaN	NaN	NaN
106.62909749999926	2.602	sub-16	1	localizer	blank	interval	NaN	NaN	NaN	NaN	NaN	NaN	NaN	NaN	NaN	NaN	NaN	NaN
109.53228189999936	0.4995	sub-16	1	localizer	stimulus	Stuhl	NaN	0	1.4344825999996687	NaN	True	NaN	NaN	NaN	NaN	NaN	NaN	NaN
110.01520789999996	1.4345	sub-16	1	localizer	blank	interval	NaN	NaN	NaN	NaN	NaN	NaN	NaN	NaN	NaN	NaN	NaN	NaN
111.75067429999945	0.5138	sub-16	1	localizer	stimulus	Katze	NaN	0	2.504509499999571	NaN	True	NaN	NaN	NaN	NaN	NaN	NaN	NaN
112.23125009999968	2.5045	sub-16	1	localizer	blank	interval	NaN	NaN	NaN	NaN	NaN	NaN	NaN	NaN	NaN	NaN	NaN	NaN
115.03667419999964	0.4995	sub-16	1	localizer	stimulus	Gesicht	NaN	0	1.9681534000001193	NaN	True	NaN	NaN	NaN	NaN	NaN	NaN	NaN
115.51960329999928	1.9682	sub-16	1	localizer	blank	interval	NaN	NaN	NaN	NaN	NaN	NaN	NaN	NaN	NaN	NaN	NaN	NaN
120.97427599999992	1.0005	sub-16	1	sequence	cue	Schuh	NaN	NaN	NaN	NaN	NaN	NaN	NaN	NaN	NaN	NaN	NaN	NaN
121.97477789999994	2.0016	sub-16	1	sequence	blank	blank	NaN	NaN	NaN	NaN	NaN	NaN	NaN	NaN	NaN	NaN	NaN	NaN
123.97638209999968	0.3002	sub-16	1	sequence	fixation	dot	NaN	NaN	NaN	NaN	NaN	NaN	NaN	NaN	NaN	NaN	NaN	NaN
124.3243179000001	0.1024	sub-16	1	sequence	stimulus	Haus	NaN	NaN	32.0	NaN	NaN	2.0	1.0	NaN	NaN	NaN	NaN	NaN
124.42674139999964	0.0335	sub-16	1	sequence	interval	dot	NaN	NaN	NaN	NaN	NaN	NaN	NaN	NaN	NaN	NaN	NaN	NaN
124.4602205000001	0.0999	sub-16	1	sequence	stimulus	Gesicht	NaN	NaN	32.0	NaN	NaN	1.0	2.0	NaN	NaN	NaN	NaN	NaN
124.56015099999968	0.0335	sub-16	1	sequence	interval	dot	NaN	NaN	NaN	NaN	NaN	NaN	NaN	NaN	NaN	NaN	NaN	NaN
124.59360109999945	0.1	sub-16	1	sequence	stimulus	Stuhl	NaN	NaN	32.0	NaN	NaN	5.0	3.0	NaN	NaN	NaN	NaN	NaN
124.69358469999952	0.0335	sub-16	1	sequence	interval	dot	NaN	NaN	NaN	NaN	NaN	NaN	NaN	NaN	NaN	NaN	NaN	NaN
124.72711059999985	0.1	sub-16	1	sequence	stimulus	Katze	NaN	NaN	32.0	NaN	NaN	3.0	4.0	NaN	NaN	NaN	NaN	NaN
124.8270905999998	0.0334	sub-16	1	sequence	interval	dot	NaN	NaN	NaN	NaN	NaN	NaN	NaN	NaN	NaN	NaN	NaN	NaN
124.86053579999952	0.0999	sub-16	1	sequence	stimulus	Schuh	NaN	NaN	32.0	NaN	NaN	4.0	5.0	NaN	NaN	NaN	NaN	NaN
124.96047399999952	0.0334	sub-16	1	sequence	interval	dot	NaN	NaN	NaN	NaN	NaN	NaN	NaN	NaN	NaN	NaN	NaN	NaN
124.99382819999936	8.5377	sub-16	1	sequence	delay	dot	NaN	NaN	NaN	NaN	NaN	NaN	NaN	NaN	NaN	NaN	NaN	NaN
133.51269129999946	0.7556	sub-16	1	sequence	choice	choice	left	NaN	NaN	0.7306543999993664	True	NaN	NaN	left	1.0	5.0	2.0	5.0
134.26856539999972	0.5002	sub-16	1	sequence	feedback	NaN	NaN	NaN	NaN	NaN	NaN	NaN	NaN	NaN	NaN	NaN	NaN	NaN
134.76891819999946	1.0005	sub-16	1	sequence	cue	Schuh	NaN	NaN	NaN	NaN	NaN	NaN	NaN	NaN	NaN	NaN	NaN	NaN
135.76941249999982	2.0014	sub-16	1	sequence	blank	blank	NaN	NaN	NaN	NaN	NaN	NaN	NaN	NaN	NaN	NaN	NaN	NaN
137.77084800000011	0.3002	sub-16	1	sequence	fixation	dot	NaN	NaN	NaN	NaN	NaN	NaN	NaN	NaN	NaN	NaN	NaN	NaN
138.10263880000002	0.1019	sub-16	1	sequence	stimulus	Gesicht	NaN	NaN	64.0	NaN	NaN	1.0	1.0	NaN	NaN	NaN	NaN	NaN
138.20453689999977	0.0668	sub-16	1	sequence	interval	dot	NaN	NaN	NaN	NaN	NaN	NaN	NaN	NaN	NaN	NaN	NaN	NaN
138.2713703999998	0.0999	sub-16	1	sequence	stimulus	Haus	NaN	NaN	64.0	NaN	NaN	2.0	2.0	NaN	NaN	NaN	NaN	NaN
138.3713047000001	0.0669	sub-16	1	sequence	interval	dot	NaN	NaN	NaN	NaN	NaN	NaN	NaN	NaN	NaN	NaN	NaN	NaN
138.43820090000008	0.0999	sub-16	1	sequence	stimulus	Katze	NaN	NaN	64.0	NaN	NaN	3.0	3.0	NaN	NaN	NaN	NaN	NaN
138.5381099999995	0.0669	sub-16	1	sequence	interval	dot	NaN	NaN	NaN	NaN	NaN	NaN	NaN	NaN	NaN	NaN	NaN	NaN
138.6049829999993	0.1	sub-16	1	sequence	stimulus	Schuh	NaN	NaN	64.0	NaN	NaN	4.0	4.0	NaN	NaN	NaN	NaN	NaN
138.70497649999925	0.0668	sub-16	1	sequence	interval	dot	NaN	NaN	NaN	NaN	NaN	NaN	NaN	NaN	NaN	NaN	NaN	NaN
138.77176669999972	0.1	sub-16	1	sequence	stimulus	Stuhl	NaN	NaN	64.0	NaN	NaN	5.0	5.0	NaN	NaN	NaN	NaN	NaN
138.87171839999974	0.0667	sub-16	1	sequence	interval	dot	NaN	NaN	NaN	NaN	NaN	NaN	NaN	NaN	NaN	NaN	NaN	NaN
138.93842649999988	8.371	sub-16	1	sequence	delay	dot	NaN	NaN	NaN	NaN	NaN	NaN	NaN	NaN	NaN	NaN	NaN	NaN
147.29235859999972	0.7036	sub-16	1	sequence	choice	choice	left	NaN	NaN	0.6808651000001191	True	NaN	NaN	left	True	4.0	5.0	4.0
147.99620569999934	0.5	sub-16	1	sequence	feedback	NaN	NaN	NaN	NaN	NaN	NaN	NaN	NaN	NaN	NaN	NaN	NaN	NaN
148.4963705	1.0008	sub-16	1	sequence	cue	Katze	NaN	NaN	NaN	NaN	NaN	NaN	NaN	NaN	NaN	NaN	NaN	NaN
149.49720119999984	2.0015	sub-16	1	sequence	blank	blank	NaN	NaN	NaN	NaN	NaN	NaN	NaN	NaN	NaN	NaN	NaN	NaN
151.4986726999996	0.3006	sub-16	1	sequence	fixation	dot	NaN	NaN	NaN	NaN	NaN	NaN	NaN	NaN	NaN	NaN	NaN	NaN
151.8303995999995	0.1019	sub-16	1	sequence	stimulus	Gesicht	NaN	NaN	512.0	NaN	NaN	1.0	1.0	NaN	NaN	NaN	NaN	NaN
151.9323244999996	0.5173	sub-16	1	sequence	interval	dot	NaN	NaN	NaN	NaN	NaN	NaN	NaN	NaN	NaN	NaN	NaN	NaN
152.44964859999982	0.0999	sub-16	1	sequence	stimulus	Haus	NaN	NaN	512.0	NaN	NaN	2.0	2.0	NaN	NaN	NaN	NaN	NaN
152.54954850000013	0.5173	sub-16	1	sequence	interval	dot	NaN	NaN	NaN	NaN	NaN	NaN	NaN	NaN	NaN	NaN	NaN	NaN
153.06683259999954	0.1	sub-16	1	sequence	stimulus	Stuhl	NaN	NaN	512.0	NaN	NaN	5.0	3.0	NaN	NaN	NaN	NaN	NaN
153.16683620000003	0.5172	sub-16	1	sequence	interval	dot	NaN	NaN	NaN	NaN	NaN	NaN	NaN	NaN	NaN	NaN	NaN	NaN
153.6840400000001	0.1165	sub-16	1	sequence	stimulus	Schuh	NaN	NaN	512.0	NaN	NaN	4.0	4.0	NaN	NaN	NaN	NaN	NaN
153.8005432	0.5173	sub-16	1	sequence	interval	dot	NaN	NaN	NaN	NaN	NaN	NaN	NaN	NaN	NaN	NaN	NaN	NaN
154.31785459999992	0.0974	sub-16	1	sequence	stimulus	Katze	NaN	NaN	512.0	NaN	NaN	3.0	5.0	NaN	NaN	NaN	NaN	NaN
154.41525829999955	0.5196	sub-16	1	sequence	interval	dot	NaN	NaN	NaN	NaN	NaN	NaN	NaN	NaN	NaN	NaN	NaN	NaN
154.93488869999965	6.1525	sub-16	1	sequence	delay	dot	NaN	NaN	NaN	NaN	NaN	NaN	NaN	NaN	NaN	NaN	NaN	NaN
161.07212889999937	0.7183	sub-16	1	sequence	choice	choice	right	NaN	NaN	0.6869413000003988	True	NaN	NaN	right	True	2.0	5.0	5.0
161.7905682999999	0.5001	sub-16	1	sequence	feedback	NaN	NaN	NaN	NaN	NaN	NaN	NaN	NaN	NaN	NaN	NaN	NaN	NaN
162.29081589999987	1.0008	sub-16	1	sequence	cue	Haus	NaN	NaN	NaN	NaN	NaN	NaN	NaN	NaN	NaN	NaN	NaN	NaN
163.29165569999986	2.0016	sub-16	1	sequence	blank	blank	NaN	NaN	NaN	NaN	NaN	NaN	NaN	NaN	NaN	NaN	NaN	NaN
165.29327359999934	0.3002	sub-16	1	sequence	fixation	dot	NaN	NaN	NaN	NaN	NaN	NaN	NaN	NaN	NaN	NaN	NaN	NaN
165.61167750000004	0.1151	sub-16	1	sequence	stimulus	Haus	NaN	NaN	512.0	NaN	NaN	2.0	1.0	NaN	NaN	NaN	NaN	NaN
165.72676989999945	0.5173	sub-16	1	sequence	interval	dot	NaN	NaN	NaN	NaN	NaN	NaN	NaN	NaN	NaN	NaN	NaN	NaN
166.2440477	0.1	sub-16	1	sequence	stimulus	Katze	NaN	NaN	512.0	NaN	NaN	3.0	2.0	NaN	NaN	NaN	NaN	NaN
166.34400779999942	0.5172	sub-16	1	sequence	interval	dot	NaN	NaN	NaN	NaN	NaN	NaN	NaN	NaN	NaN	NaN	NaN	NaN
166.86120159999973	0.0999	sub-16	1	sequence	stimulus	Stuhl	NaN	NaN	512.0	NaN	NaN	5.0	3.0	NaN	NaN	NaN	NaN	NaN
166.96110039999985	0.5173	sub-16	1	sequence	interval	dot	NaN	NaN	NaN	NaN	NaN	NaN	NaN	NaN	NaN	NaN	NaN	NaN
167.47837019999952	0.0999	sub-16	1	sequence	stimulus	Schuh	NaN	NaN	512.0	NaN	NaN	4.0	4.0	NaN	NaN	NaN	NaN	NaN
167.57827289999932	0.5173	sub-16	1	sequence	interval	dot	NaN	NaN	NaN	NaN	NaN	NaN	NaN	NaN	NaN	NaN	NaN	NaN
168.0955574999998	0.0999	sub-16	1	sequence	stimulus	Gesicht	NaN	NaN	512.0	NaN	NaN	1.0	5.0	NaN	NaN	NaN	NaN	NaN
168.1954667	0.5171	sub-16	1	sequence	interval	dot	NaN	NaN	NaN	NaN	NaN	NaN	NaN	NaN	NaN	NaN	NaN	NaN
168.71253290000004	6.1525	sub-16	1	sequence	delay	dot	NaN	NaN	NaN	NaN	NaN	NaN	NaN	NaN	NaN	NaN	NaN	NaN
174.85174259999985	0.5832	sub-16	1	sequence	choice	choice	right	NaN	NaN	0.5652141000000483	True	NaN	NaN	right	True	4.0	1.0	1.0
175.4351717999998	0.5001	sub-16	1	sequence	feedback	NaN	NaN	NaN	NaN	NaN	NaN	NaN	NaN	NaN	NaN	NaN	NaN	NaN
175.9355403999998	1.0007	sub-16	1	sequence	cue	Haus	NaN	NaN	NaN	NaN	NaN	NaN	NaN	NaN	NaN	NaN	NaN	NaN
176.9362814999995	2.0012	sub-16	1	sequence	blank	blank	NaN	NaN	NaN	NaN	NaN	NaN	NaN	NaN	NaN	NaN	NaN	NaN
178.93751939999947	0.3002	sub-16	1	sequence	fixation	dot	NaN	NaN	NaN	NaN	NaN	NaN	NaN	NaN	NaN	NaN	NaN	NaN
179.25519519999943	0.0994	sub-16	1	sequence	stimulus	Katze	NaN	NaN	64.0	NaN	NaN	3.0	1.0	NaN	NaN	NaN	NaN	NaN
179.3546037999995	0.0667	sub-16	1	sequence	interval	dot	NaN	NaN	NaN	NaN	NaN	NaN	NaN	NaN	NaN	NaN	NaN	NaN
179.42129889999978	0.1	sub-16	1	sequence	stimulus	Schuh	NaN	NaN	64.0	NaN	NaN	4.0	2.0	NaN	NaN	NaN	NaN	NaN
179.52127199999995	0.067	sub-16	1	sequence	interval	dot	NaN	NaN	NaN	NaN	NaN	NaN	NaN	NaN	NaN	NaN	NaN	NaN
179.58828790000007	0.0998	sub-16	1	sequence	stimulus	Stuhl	NaN	NaN	64.0	NaN	NaN	5.0	3.0	NaN	NaN	NaN	NaN	NaN
179.68810779999967	0.0669	sub-16	1	sequence	interval	dot	NaN	NaN	NaN	NaN	NaN	NaN	NaN	NaN	NaN	NaN	NaN	NaN
179.7550295000001	0.1	sub-16	1	sequence	stimulus	Haus	NaN	NaN	64.0	NaN	NaN	2.0	4.0	NaN	NaN	NaN	NaN	NaN
179.8549822999994	0.0668	sub-16	1	sequence	interval	dot	NaN	NaN	NaN	NaN	NaN	NaN	NaN	NaN	NaN	NaN	NaN	NaN
179.92174559999967	0.1	sub-16	1	sequence	stimulus	Gesicht	NaN	NaN	64.0	NaN	NaN	1.0	5.0	NaN	NaN	NaN	NaN	NaN
180.02175110000007	0.0667	sub-16	1	sequence	interval	dot	NaN	NaN	NaN	NaN	NaN	NaN	NaN	NaN	NaN	NaN	NaN	NaN
180.08849529999952	8.3878	sub-16	1	sequence	delay	dot	NaN	NaN	NaN	NaN	NaN	NaN	NaN	NaN	NaN	NaN	NaN	NaN
188.4494393999994	0.5631	sub-16	1	sequence	choice	choice	right	NaN	NaN	0.5220435000001089	True	NaN	NaN	right	True	1.0	4.0	4.0
189.01275759999956	0.5	sub-16	1	sequence	feedback	NaN	NaN	NaN	NaN	NaN	NaN	NaN	NaN	NaN	NaN	NaN	NaN	NaN
189.51293839999929	1.0006	sub-16	1	sequence	cue	Gesicht	NaN	NaN	NaN	NaN	NaN	NaN	NaN	NaN	NaN	NaN	NaN	NaN
190.51359219999995	2.0017	sub-16	1	sequence	blank	blank	NaN	NaN	NaN	NaN	NaN	NaN	NaN	NaN	NaN	NaN	NaN	NaN
192.5152895000001	0.3001	sub-16	1	sequence	fixation	dot	NaN	NaN	NaN	NaN	NaN	NaN	NaN	NaN	NaN	NaN	NaN	NaN
192.8329307999993	0.0992	sub-16	1	sequence	stimulus	Stuhl	NaN	NaN	32.0	NaN	NaN	5.0	1.0	NaN	NaN	NaN	NaN	NaN
192.93213769999969	0.0335	sub-16	1	sequence	interval	dot	NaN	NaN	NaN	NaN	NaN	NaN	NaN	NaN	NaN	NaN	NaN	NaN
192.96561380000003	0.0999	sub-16	1	sequence	stimulus	Schuh	NaN	NaN	32.0	NaN	NaN	4.0	2.0	NaN	NaN	NaN	NaN	NaN
193.0655343999997	0.0335	sub-16	1	sequence	interval	dot	NaN	NaN	NaN	NaN	NaN	NaN	NaN	NaN	NaN	NaN	NaN	NaN
193.09906039999987	0.1	sub-16	1	sequence	stimulus	Haus	NaN	NaN	32.0	NaN	NaN	2.0	3.0	NaN	NaN	NaN	NaN	NaN
193.1990145	0.0335	sub-16	1	sequence	interval	dot	NaN	NaN	NaN	NaN	NaN	NaN	NaN	NaN	NaN	NaN	NaN	NaN
193.23248869999952	0.0999	sub-16	1	sequence	stimulus	Gesicht	NaN	NaN	32.0	NaN	NaN	1.0	4.0	NaN	NaN	NaN	NaN	NaN
193.33242209999932	0.0335	sub-16	1	sequence	interval	dot	NaN	NaN	NaN	NaN	NaN	NaN	NaN	NaN	NaN	NaN	NaN	NaN
193.3659173999995	0.1	sub-16	1	sequence	stimulus	Katze	NaN	NaN	32.0	NaN	NaN	3.0	5.0	NaN	NaN	NaN	NaN	NaN
193.4659445999996	0.0333	sub-16	1	sequence	interval	dot	NaN	NaN	NaN	NaN	NaN	NaN	NaN	NaN	NaN	NaN	NaN	NaN
193.49924569999985	8.538	sub-16	1	sequence	delay	dot	NaN	NaN	NaN	NaN	NaN	NaN	NaN	NaN	NaN	NaN	NaN	NaN
202.0212722999995	0.6858	sub-16	1	sequence	choice	choice	right	NaN	NaN	0.6571323000007396	True	NaN	NaN	right	True	2.0	4.0	4.0
202.70729140000003	0.5001	sub-16	1	sequence	feedback	NaN	NaN	NaN	NaN	NaN	NaN	NaN	NaN	NaN	NaN	NaN	NaN	NaN
203.20758969999952	1.0004	sub-16	1	sequence	cue	Schuh	NaN	NaN	NaN	NaN	NaN	NaN	NaN	NaN	NaN	NaN	NaN	NaN
204.20797969999967	2.0015	sub-16	1	sequence	blank	blank	NaN	NaN	NaN	NaN	NaN	NaN	NaN	NaN	NaN	NaN	NaN	NaN
206.20953259999987	0.3002	sub-16	1	sequence	fixation	dot	NaN	NaN	NaN	NaN	NaN	NaN	NaN	NaN	NaN	NaN	NaN	NaN
206.5280605999997	0.1151	sub-16	1	sequence	stimulus	Haus	NaN	NaN	128.0	NaN	NaN	2.0	1.0	NaN	NaN	NaN	NaN	NaN
206.6431788	0.1336	sub-16	1	sequence	interval	dot	NaN	NaN	NaN	NaN	NaN	NaN	NaN	NaN	NaN	NaN	NaN	NaN
206.77675969999927	0.0999	sub-16	1	sequence	stimulus	Stuhl	NaN	NaN	128.0	NaN	NaN	5.0	2.0	NaN	NaN	NaN	NaN	NaN
206.8767054	0.1336	sub-16	1	sequence	interval	dot	NaN	NaN	NaN	NaN	NaN	NaN	NaN	NaN	NaN	NaN	NaN	NaN
207.01027639999936	0.1	sub-16	1	sequence	stimulus	Schuh	NaN	NaN	128.0	NaN	NaN	4.0	3.0	NaN	NaN	NaN	NaN	NaN
207.11023119999936	0.1336	sub-16	1	sequence	interval	dot	NaN	NaN	NaN	NaN	NaN	NaN	NaN	NaN	NaN	NaN	NaN	NaN
207.2437970000001	0.0999	sub-16	1	sequence	stimulus	Katze	NaN	NaN	128.0	NaN	NaN	3.0	4.0	NaN	NaN	NaN	NaN	NaN
207.3437393999993	0.1336	sub-16	1	sequence	interval	dot	NaN	NaN	NaN	NaN	NaN	NaN	NaN	NaN	NaN	NaN	NaN	NaN
207.47734259999925	0.0999	sub-16	1	sequence	stimulus	Gesicht	NaN	NaN	128.0	NaN	NaN	1.0	5.0	NaN	NaN	NaN	NaN	NaN
207.5772803	0.1334	sub-16	1	sequence	interval	dot	NaN	NaN	NaN	NaN	NaN	NaN	NaN	NaN	NaN	NaN	NaN	NaN
207.71072509999976	8.054	sub-16	1	sequence	delay	dot	NaN	NaN	NaN	NaN	NaN	NaN	NaN	NaN	NaN	NaN	NaN	NaN
215.7488397999996	0.7194	sub-16	1	sequence	choice	choice	left	NaN	NaN	0.6896218000001682	True	NaN	NaN	left	True	3.0	5.0	3.0
216.4684946999996	0.5001	sub-16	1	sequence	feedback	NaN	NaN	NaN	NaN	NaN	NaN	NaN	NaN	NaN	NaN	NaN	NaN	NaN
216.96878549999929	1.0005	sub-16	1	sequence	cue	Gesicht	NaN	NaN	NaN	NaN	NaN	NaN	NaN	NaN	NaN	NaN	NaN	NaN
217.9692759999998	2.0014	sub-16	1	sequence	blank	blank	NaN	NaN	NaN	NaN	NaN	NaN	NaN	NaN	NaN	NaN	NaN	NaN
219.97064369999956	0.3004	sub-16	1	sequence	fixation	dot	NaN	NaN	NaN	NaN	NaN	NaN	NaN	NaN	NaN	NaN	NaN	NaN
220.28840589999984	0.0992	sub-16	1	sequence	stimulus	Haus	NaN	NaN	128.0	NaN	NaN	2.0	1.0	NaN	NaN	NaN	NaN	NaN
220.3876555999996	0.1335	sub-16	1	sequence	interval	dot	NaN	NaN	NaN	NaN	NaN	NaN	NaN	NaN	NaN	NaN	NaN	NaN
220.5211952	0.1001	sub-16	1	sequence	stimulus	Katze	NaN	NaN	128.0	NaN	NaN	3.0	2.0	NaN	NaN	NaN	NaN	NaN
220.62127349999992	0.1335	sub-16	1	sequence	interval	dot	NaN	NaN	NaN	NaN	NaN	NaN	NaN	NaN	NaN	NaN	NaN	NaN
220.75476609999987	0.0999	sub-16	1	sequence	stimulus	Stuhl	NaN	NaN	128.0	NaN	NaN	5.0	3.0	NaN	NaN	NaN	NaN	NaN
220.85470349999923	0.1337	sub-16	1	sequence	interval	dot	NaN	NaN	NaN	NaN	NaN	NaN	NaN	NaN	NaN	NaN	NaN	NaN
220.988378	0.1	sub-16	1	sequence	stimulus	Gesicht	NaN	NaN	128.0	NaN	NaN	1.0	4.0	NaN	NaN	NaN	NaN	NaN
221.0883417999994	0.1335	sub-16	1	sequence	interval	dot	NaN	NaN	NaN	NaN	NaN	NaN	NaN	NaN	NaN	NaN	NaN	NaN
221.22182639999937	0.0999	sub-16	1	sequence	stimulus	Schuh	NaN	NaN	128.0	NaN	NaN	4.0	5.0	NaN	NaN	NaN	NaN	NaN
221.32176399999932	0.1334	sub-16	1	sequence	interval	dot	NaN	NaN	NaN	NaN	NaN	NaN	NaN	NaN	NaN	NaN	NaN	NaN
221.45518939999965	8.071	sub-16	1	sequence	delay	dot	NaN	NaN	NaN	NaN	NaN	NaN	NaN	NaN	NaN	NaN	NaN	NaN
229.5025212999999	0.6265	sub-16	1	sequence	choice	choice	left	NaN	NaN	0.5920690000002651	True	NaN	NaN	left	True	4.0	3.0	4.0
230.12932339999952	0.5001	sub-16	1	sequence	feedback	NaN	NaN	NaN	NaN	NaN	NaN	NaN	NaN	NaN	NaN	NaN	NaN	NaN
234.4499569999998	0.4994	sub-16	1	localizer	stimulus	Schuh	NaN	0	2.5020966000001863	NaN	True	NaN	NaN	NaN	NaN	NaN	NaN	NaN
234.93290159999924	2.5021	sub-16	1	localizer	blank	interval	NaN	NaN	NaN	NaN	NaN	NaN	NaN	NaN	NaN	NaN	NaN	NaN
237.73320259999943	0.5024	sub-16	1	localizer	stimulus	Katze	NaN	0	2.284954600000674	NaN	True	NaN	NaN	NaN	NaN	NaN	NaN	NaN
238.21913009999932	2.285	sub-16	1	localizer	blank	interval	NaN	NaN	NaN	NaN	NaN	NaN	NaN	NaN	NaN	NaN	NaN	NaN
240.80498759999955	0.4997	sub-16	1	localizer	stimulus	Stuhl	NaN	0	2.301801300000079	NaN	True	NaN	NaN	NaN	NaN	NaN	NaN	NaN
241.28807340000003	2.3018	sub-16	1	localizer	blank	interval	NaN	NaN	NaN	NaN	NaN	NaN	NaN	NaN	NaN	NaN	NaN	NaN
243.89082989999952	0.4996	sub-16	1	localizer	stimulus	Gesicht	NaN	180	2.3183877000001587	0.4996100999996997	True	NaN	NaN	NaN	NaN	NaN	NaN	NaN
244.37384519999975	2.3184	sub-16	1	localizer	blank	interval	NaN	NaN	NaN	NaN	NaN	NaN	NaN	NaN	NaN	NaN	NaN	NaN
246.9933407999997	0.4996	sub-16	1	localizer	stimulus	Schuh	NaN	0	2.9189094000003024	NaN	True	NaN	NaN	NaN	NaN	NaN	NaN	NaN
247.47638019999977	2.9189	sub-16	1	localizer	blank	interval	NaN	NaN	NaN	NaN	NaN	NaN	NaN	NaN	NaN	NaN	NaN	NaN
250.6964129999997	0.4995	sub-16	1	localizer	stimulus	Gesicht	NaN	0	2.8855677999999614	NaN	True	NaN	NaN	NaN	NaN	NaN	NaN	NaN
251.17932389999987	2.8856	sub-16	1	localizer	blank	interval	NaN	NaN	NaN	NaN	NaN	NaN	NaN	NaN	NaN	NaN	NaN	NaN
254.36595059999945	0.4995	sub-16	1	localizer	stimulus	Katze	NaN	180	2.435286400000223	0.4803165999992416	True	NaN	NaN	NaN	NaN	NaN	NaN	NaN
254.8489856999995	2.4353	sub-16	1	localizer	blank	interval	NaN	NaN	NaN	NaN	NaN	NaN	NaN	NaN	NaN	NaN	NaN	NaN
257.5853002999993	0.4996	sub-16	1	localizer	stimulus	Haus	NaN	0	2.818902099999832	NaN	True	NaN	NaN	NaN	NaN	NaN	NaN	NaN
258.0683879999997	2.8189	sub-16	1	localizer	blank	interval	NaN	NaN	NaN	NaN	NaN	NaN	NaN	NaN	NaN	NaN	NaN	NaN
261.1883694999997	0.4994	sub-16	1	localizer	stimulus	Katze	NaN	0	2.6019251999996413	NaN	True	NaN	NaN	NaN	NaN	NaN	NaN	NaN
261.67119139999977	2.6019	sub-16	1	localizer	blank	interval	NaN	NaN	NaN	NaN	NaN	NaN	NaN	NaN	NaN	NaN	NaN	NaN
264.5741873999996	0.4996	sub-16	1	localizer	stimulus	Gesicht	NaN	0	2.5185606000004555	NaN	True	NaN	NaN	NaN	NaN	NaN	NaN	NaN
265.0572433999996	2.5186	sub-16	1	localizer	blank	interval	NaN	NaN	NaN	NaN	NaN	NaN	NaN	NaN	NaN	NaN	NaN	NaN
267.8769003999996	0.4995	sub-16	1	localizer	stimulus	Haus	NaN	180	2.051458600000842	0.4814073000006829	True	NaN	NaN	NaN	NaN	NaN	NaN	NaN
268.35996219999925	2.0515	sub-16	1	localizer	blank	interval	NaN	NaN	NaN	NaN	NaN	NaN	NaN	NaN	NaN	NaN	NaN	NaN
270.71249369999987	0.4996	sub-16	1	localizer	stimulus	Stuhl	NaN	0	1.9347340000003896	NaN	True	NaN	NaN	NaN	NaN	NaN	NaN	NaN
271.1955743999997	1.9347	sub-16	1	localizer	blank	interval	NaN	NaN	NaN	NaN	NaN	NaN	NaN	NaN	NaN	NaN	NaN	NaN
273.43141209999976	0.4995	sub-16	1	localizer	stimulus	Haus	NaN	0	2.535274599999866	NaN	True	NaN	NaN	NaN	NaN	NaN	NaN	NaN
273.91440539999985	2.5353	sub-16	1	localizer	blank	interval	NaN	NaN	NaN	NaN	NaN	NaN	NaN	NaN	NaN	NaN	NaN	NaN
276.75083579999955	0.4995	sub-16	1	localizer	stimulus	Schuh	NaN	180	3.0999320000000807	0.4634439999999813	True	NaN	NaN	NaN	NaN	NaN	NaN	NaN
277.2337422999999	3.0999	sub-16	1	localizer	blank	interval	NaN	NaN	NaN	NaN	NaN	NaN	NaN	NaN	NaN	NaN	NaN	NaN
280.63742569999977	0.4996	sub-16	1	localizer	stimulus	Haus	NaN	0	2.0513338999999178	NaN	True	NaN	NaN	NaN	NaN	NaN	NaN	NaN
281.1204405999997	2.0513	sub-16	1	localizer	blank	interval	NaN	NaN	NaN	NaN	NaN	NaN	NaN	NaN	NaN	NaN	NaN	NaN
283.4728888	0.4995	sub-16	1	localizer	stimulus	Haus	NaN	0	1.5010567999997875	NaN	True	NaN	NaN	NaN	NaN	NaN	NaN	NaN
283.95587290000003	1.5011	sub-16	1	localizer	blank	interval	NaN	NaN	NaN	NaN	NaN	NaN	NaN	NaN	NaN	NaN	NaN	NaN
285.7580266999994	0.4995	sub-16	1	localizer	stimulus	Gesicht	NaN	0	2.5019177000004333	NaN	True	NaN	NaN	NaN	NaN	NaN	NaN	NaN
286.2410014999996	2.5019	sub-16	1	localizer	blank	interval	NaN	NaN	NaN	NaN	NaN	NaN	NaN	NaN	NaN	NaN	NaN	NaN
289.0440076999994	0.4996	sub-16	1	localizer	stimulus	Gesicht	NaN	0	2.0181816999993316	NaN	True	NaN	NaN	NaN	NaN	NaN	NaN	NaN
289.5270313000001	2.0182	sub-16	1	localizer	blank	interval	NaN	NaN	NaN	NaN	NaN	NaN	NaN	NaN	NaN	NaN	NaN	NaN
291.84627180000007	0.4996	sub-16	1	localizer	stimulus	Stuhl	NaN	0	1.2175152999998318	NaN	True	NaN	NaN	NaN	NaN	NaN	NaN	NaN
292.3292606999994	1.2175	sub-16	1	localizer	blank	interval	NaN	NaN	NaN	NaN	NaN	NaN	NaN	NaN	NaN	NaN	NaN	NaN
293.8478656999996	0.4996	sub-16	1	localizer	stimulus	Stuhl	NaN	0	2.5186171000004833	NaN	True	NaN	NaN	NaN	NaN	NaN	NaN	NaN
294.3308763999994	2.5186	sub-16	1	localizer	blank	interval	NaN	NaN	NaN	NaN	NaN	NaN	NaN	NaN	NaN	NaN	NaN	NaN
297.1505569000001	0.4995	sub-16	1	localizer	stimulus	Katze	NaN	0	2.6521437000001242	NaN	True	NaN	NaN	NaN	NaN	NaN	NaN	NaN
297.6335657999998	2.6521	sub-16	1	localizer	blank	interval	NaN	NaN	NaN	NaN	NaN	NaN	NaN	NaN	NaN	NaN	NaN	NaN
300.5867260999994	0.4971	sub-16	1	localizer	stimulus	Katze	NaN	0	1.6179429000003438	NaN	True	NaN	NaN	NaN	NaN	NaN	NaN	NaN
301.06982379999954	1.6179	sub-16	1	localizer	blank	interval	NaN	NaN	NaN	NaN	NaN	NaN	NaN	NaN	NaN	NaN	NaN	NaN
302.9888560999998	0.4995	sub-16	1	localizer	stimulus	Schuh	NaN	0	2.2182161000000633	NaN	True	NaN	NaN	NaN	NaN	NaN	NaN	NaN
303.4717606999993	2.2182	sub-16	1	localizer	blank	interval	NaN	NaN	NaN	NaN	NaN	NaN	NaN	NaN	NaN	NaN	NaN	NaN
305.9910555999995	0.4996	sub-16	1	localizer	stimulus	Stuhl	NaN	180	2.6853628999997454	0.4551620000002003	True	NaN	NaN	NaN	NaN	NaN	NaN	NaN
306.4740578000001	2.6854	sub-16	1	localizer	blank	interval	NaN	NaN	NaN	NaN	NaN	NaN	NaN	NaN	NaN	NaN	NaN	NaN
309.4605142999999	0.4996	sub-16	1	localizer	stimulus	Schuh	NaN	0	3.8362483000000793	NaN	True	NaN	NaN	NaN	NaN	NaN	NaN	NaN
309.94356419999986	3.8362	sub-16	1	localizer	blank	interval	NaN	NaN	NaN	NaN	NaN	NaN	NaN	NaN	NaN	NaN	NaN	NaN
317.2663397999995	1.0005	sub-16	1	sequence	cue	Schuh	NaN	NaN	NaN	NaN	NaN	NaN	NaN	NaN	NaN	NaN	NaN	NaN
318.26685180000004	2.0017	sub-16	1	sequence	blank	blank	NaN	NaN	NaN	NaN	NaN	NaN	NaN	NaN	NaN	NaN	NaN	NaN
320.2685985999997	0.3002	sub-16	1	sequence	fixation	dot	NaN	NaN	NaN	NaN	NaN	NaN	NaN	NaN	NaN	NaN	NaN	NaN
320.58627439999964	0.0993	sub-16	1	sequence	stimulus	Haus	NaN	NaN	512.0	NaN	NaN	2.0	1.0	NaN	NaN	NaN	NaN	NaN
320.68557489999966	0.5172	sub-16	1	sequence	interval	dot	NaN	NaN	NaN	NaN	NaN	NaN	NaN	NaN	NaN	NaN	NaN	NaN
321.2027505999995	0.1166	sub-16	1	sequence	stimulus	Katze	NaN	NaN	512.0	NaN	NaN	3.0	2.0	NaN	NaN	NaN	NaN	NaN
321.3193510000001	0.5172	sub-16	1	sequence	interval	dot	NaN	NaN	NaN	NaN	NaN	NaN	NaN	NaN	NaN	NaN	NaN	NaN
321.8365924999998	0.1	sub-16	1	sequence	stimulus	Stuhl	NaN	NaN	512.0	NaN	NaN	5.0	3.0	NaN	NaN	NaN	NaN	NaN
321.9365838999993	0.5172	sub-16	1	sequence	interval	dot	NaN	NaN	NaN	NaN	NaN	NaN	NaN	NaN	NaN	NaN	NaN	NaN
322.45379090000006	0.1001	sub-16	1	sequence	stimulus	Schuh	NaN	NaN	512.0	NaN	NaN	4.0	4.0	NaN	NaN	NaN	NaN	NaN
322.5538409999999	0.5172	sub-16	1	sequence	interval	dot	NaN	NaN	NaN	NaN	NaN	NaN	NaN	NaN	NaN	NaN	NaN	NaN
323.0710341999993	0.1	sub-16	1	sequence	stimulus	Gesicht	NaN	NaN	512.0	NaN	NaN	1.0	5.0	NaN	NaN	NaN	NaN	NaN
323.1709971	0.5171	sub-16	1	sequence	interval	dot	NaN	NaN	NaN	NaN	NaN	NaN	NaN	NaN	NaN	NaN	NaN	NaN
323.68808679999984	6.1359	sub-16	1	sequence	delay	dot	NaN	NaN	NaN	NaN	NaN	NaN	NaN	NaN	NaN	NaN	NaN	NaN
329.8083461999995	0.5352	sub-16	1	sequence	choice	choice	left	NaN	NaN	0.5103714999995645	True	NaN	NaN	left	True	4.0	5.0	4.0
330.34389179999926	0.4998	sub-16	1	sequence	feedback	NaN	NaN	NaN	NaN	NaN	NaN	NaN	NaN	NaN	NaN	NaN	NaN	NaN
330.8438688999995	1.0008	sub-16	1	sequence	cue	Katze	NaN	NaN	NaN	NaN	NaN	NaN	NaN	NaN	NaN	NaN	NaN	NaN
331.8447161999993	2.0013	sub-16	1	sequence	blank	blank	NaN	NaN	NaN	NaN	NaN	NaN	NaN	NaN	NaN	NaN	NaN	NaN
333.8460686999997	0.3003	sub-16	1	sequence	fixation	dot	NaN	NaN	NaN	NaN	NaN	NaN	NaN	NaN	NaN	NaN	NaN	NaN
334.16390669999964	0.0992	sub-16	1	sequence	stimulus	Gesicht	NaN	NaN	64.0	NaN	NaN	1.0	1.0	NaN	NaN	NaN	NaN	NaN
334.2630792	0.0669	sub-16	1	sequence	interval	dot	NaN	NaN	NaN	NaN	NaN	NaN	NaN	NaN	NaN	NaN	NaN	NaN
334.32993279999937	0.0999	sub-16	1	sequence	stimulus	Haus	NaN	NaN	64.0	NaN	NaN	2.0	2.0	NaN	NaN	NaN	NaN	NaN
334.4298743999998	0.0668	sub-16	1	sequence	interval	dot	NaN	NaN	NaN	NaN	NaN	NaN	NaN	NaN	NaN	NaN	NaN	NaN
334.4967035999998	0.1	sub-16	1	sequence	stimulus	Katze	NaN	NaN	64.0	NaN	NaN	3.0	3.0	NaN	NaN	NaN	NaN	NaN
334.5966733999994	0.0668	sub-16	1	sequence	interval	dot	NaN	NaN	NaN	NaN	NaN	NaN	NaN	NaN	NaN	NaN	NaN	NaN
334.6635142999994	0.1	sub-16	1	sequence	stimulus	Schuh	NaN	NaN	64.0	NaN	NaN	4.0	4.0	NaN	NaN	NaN	NaN	NaN
334.7634690999994	0.0669	sub-16	1	sequence	interval	dot	NaN	NaN	NaN	NaN	NaN	NaN	NaN	NaN	NaN	NaN	NaN	NaN
334.83032789999925	0.1	sub-16	1	sequence	stimulus	Stuhl	NaN	NaN	64.0	NaN	NaN	5.0	5.0	NaN	NaN	NaN	NaN	NaN
334.9302837999994	0.0667	sub-16	1	sequence	interval	dot	NaN	NaN	NaN	NaN	NaN	NaN	NaN	NaN	NaN	NaN	NaN	NaN
334.9969911999997	8.3713	sub-16	1	sequence	delay	dot	NaN	NaN	NaN	NaN	NaN	NaN	NaN	NaN	NaN	NaN	NaN	NaN
343.3540534999993	0.9509	sub-16	1	sequence	choice	choice	right	NaN	NaN	0.9259789999996428	True	NaN	NaN	right	True	5.0	3.0	3.0
344.30523879999964	0.5	sub-16	1	sequence	feedback	NaN	NaN	NaN	NaN	NaN	NaN	NaN	NaN	NaN	NaN	NaN	NaN	NaN
344.80535019999934	1.0005	sub-16	1	sequence	cue	Stuhl	NaN	NaN	NaN	NaN	NaN	NaN	NaN	NaN	NaN	NaN	NaN	NaN
345.8058975999993	2.0016	sub-16	1	sequence	blank	blank	NaN	NaN	NaN	NaN	NaN	NaN	NaN	NaN	NaN	NaN	NaN	NaN
347.80749789999936	0.3001	sub-16	1	sequence	fixation	dot	NaN	NaN	NaN	NaN	NaN	NaN	NaN	NaN	NaN	NaN	NaN	NaN
348.12588379999943	0.1152	sub-16	1	sequence	stimulus	Katze	NaN	NaN	64.0	NaN	NaN	3.0	1.0	NaN	NaN	NaN	NaN	NaN
348.2410523999997	0.0668	sub-16	1	sequence	interval	dot	NaN	NaN	NaN	NaN	NaN	NaN	NaN	NaN	NaN	NaN	NaN	NaN
348.3078766999997	0.1	sub-16	1	sequence	stimulus	Schuh	NaN	NaN	64.0	NaN	NaN	4.0	2.0	NaN	NaN	NaN	NaN	NaN
348.4078389999995	0.0668	sub-16	1	sequence	interval	dot	NaN	NaN	NaN	NaN	NaN	NaN	NaN	NaN	NaN	NaN	NaN	NaN
348.47467179999967	0.1	sub-16	1	sequence	stimulus	Stuhl	NaN	NaN	64.0	NaN	NaN	5.0	3.0	NaN	NaN	NaN	NaN	NaN
348.5746634999996	0.0669	sub-16	1	sequence	interval	dot	NaN	NaN	NaN	NaN	NaN	NaN	NaN	NaN	NaN	NaN	NaN	NaN
348.6415381999996	0.0999	sub-16	1	sequence	stimulus	Haus	NaN	NaN	64.0	NaN	NaN	2.0	4.0	NaN	NaN	NaN	NaN	NaN
348.7414693999999	0.0668	sub-16	1	sequence	interval	dot	NaN	NaN	NaN	NaN	NaN	NaN	NaN	NaN	NaN	NaN	NaN	NaN
348.8082760999996	0.0999	sub-16	1	sequence	stimulus	Gesicht	NaN	NaN	64.0	NaN	NaN	1.0	5.0	NaN	NaN	NaN	NaN	NaN
348.9082252999997	0.0667	sub-16	1	sequence	interval	dot	NaN	NaN	NaN	NaN	NaN	NaN	NaN	NaN	NaN	NaN	NaN	NaN
348.9749728999996	8.3878	sub-16	1	sequence	delay	dot	NaN	NaN	NaN	NaN	NaN	NaN	NaN	NaN	NaN	NaN	NaN	NaN
357.34168469999986	0.6741	sub-16	1	sequence	choice	choice	left	NaN	NaN	0.6433942000003299	True	NaN	NaN	left	True	3.0	4.0	3.0
358.01609049999934	0.5001	sub-16	1	sequence	feedback	NaN	NaN	NaN	NaN	NaN	NaN	NaN	NaN	NaN	NaN	NaN	NaN	NaN
358.51638189999994	1.0006	sub-16	1	sequence	cue	Schuh	NaN	NaN	NaN	NaN	NaN	NaN	NaN	NaN	NaN	NaN	NaN	NaN
359.51702209999985	2.0015	sub-16	1	sequence	blank	blank	NaN	NaN	NaN	NaN	NaN	NaN	NaN	NaN	NaN	NaN	NaN	NaN
361.5185296	0.3004	sub-16	1	sequence	fixation	dot	NaN	NaN	NaN	NaN	NaN	NaN	NaN	NaN	NaN	NaN	NaN	NaN
361.8363535999997	0.1008	sub-16	1	sequence	stimulus	Gesicht	NaN	NaN	512.0	NaN	NaN	1.0	1.0	NaN	NaN	NaN	NaN	NaN
361.9371529999999	0.5158	sub-16	1	sequence	interval	dot	NaN	NaN	NaN	NaN	NaN	NaN	NaN	NaN	NaN	NaN	NaN	NaN
362.4529109999994	0.0999	sub-16	1	sequence	stimulus	Haus	NaN	NaN	512.0	NaN	NaN	2.0	2.0	NaN	NaN	NaN	NaN	NaN
362.552764	0.5172	sub-16	1	sequence	interval	dot	NaN	NaN	NaN	NaN	NaN	NaN	NaN	NaN	NaN	NaN	NaN	NaN
363.069915	0.1	sub-16	1	sequence	stimulus	Stuhl	NaN	NaN	512.0	NaN	NaN	5.0	3.0	NaN	NaN	NaN	NaN	NaN
363.1699089999993	0.5172	sub-16	1	sequence	interval	dot	NaN	NaN	NaN	NaN	NaN	NaN	NaN	NaN	NaN	NaN	NaN	NaN
363.6871112999997	0.1	sub-16	1	sequence	stimulus	Schuh	NaN	NaN	512.0	NaN	NaN	4.0	4.0	NaN	NaN	NaN	NaN	NaN
363.7871109999997	0.5172	sub-16	1	sequence	interval	dot	NaN	NaN	NaN	NaN	NaN	NaN	NaN	NaN	NaN	NaN	NaN	NaN
364.3043328999993	0.1	sub-16	1	sequence	stimulus	Katze	NaN	NaN	512.0	NaN	NaN	3.0	5.0	NaN	NaN	NaN	NaN	NaN
364.4042913999992	0.5171	sub-16	1	sequence	interval	dot	NaN	NaN	NaN	NaN	NaN	NaN	NaN	NaN	NaN	NaN	NaN	NaN
364.9214358999998	6.1358	sub-16	1	sequence	delay	dot	NaN	NaN	NaN	NaN	NaN	NaN	NaN	NaN	NaN	NaN	NaN	NaN
371.0433721	0.5	sub-16	1	sequence	choice	choice	right	NaN	NaN	0.4768485000004148	True	NaN	NaN	right	True	2.0	4.0	4.0
371.5434864999997	0.5003	sub-16	1	sequence	feedback	NaN	NaN	NaN	NaN	NaN	NaN	NaN	NaN	NaN	NaN	NaN	NaN	NaN
372.0439237999999	1.0005	sub-16	1	sequence	cue	Schuh	NaN	NaN	NaN	NaN	NaN	NaN	NaN	NaN	NaN	NaN	NaN	NaN
373.04444819999935	2.0016	sub-16	1	sequence	blank	blank	NaN	NaN	NaN	NaN	NaN	NaN	NaN	NaN	NaN	NaN	NaN	NaN
375.0460684999998	0.3003	sub-16	1	sequence	fixation	dot	NaN	NaN	NaN	NaN	NaN	NaN	NaN	NaN	NaN	NaN	NaN	NaN
375.3646270999998	0.1151	sub-16	1	sequence	stimulus	Haus	NaN	NaN	128.0	NaN	NaN	2.0	1.0	NaN	NaN	NaN	NaN	NaN
375.4797401999994	0.1336	sub-16	1	sequence	interval	dot	NaN	NaN	NaN	NaN	NaN	NaN	NaN	NaN	NaN	NaN	NaN	NaN
375.6133022999993	0.0999	sub-16	1	sequence	stimulus	Katze	NaN	NaN	128.0	NaN	NaN	3.0	2.0	NaN	NaN	NaN	NaN	NaN
375.7132408999996	0.1335	sub-16	1	sequence	interval	dot	NaN	NaN	NaN	NaN	NaN	NaN	NaN	NaN	NaN	NaN	NaN	NaN
375.8467493999997	0.1	sub-16	1	sequence	stimulus	Stuhl	NaN	NaN	128.0	NaN	NaN	5.0	3.0	NaN	NaN	NaN	NaN	NaN
375.94675879999977	0.1336	sub-16	1	sequence	interval	dot	NaN	NaN	NaN	NaN	NaN	NaN	NaN	NaN	NaN	NaN	NaN	NaN
376.0803763999993	0.0999	sub-16	1	sequence	stimulus	Gesicht	NaN	NaN	128.0	NaN	NaN	1.0	4.0	NaN	NaN	NaN	NaN	NaN
376.1803087999997	0.1335	sub-16	1	sequence	interval	dot	NaN	NaN	NaN	NaN	NaN	NaN	NaN	NaN	NaN	NaN	NaN	NaN
376.3138506999994	0.1	sub-16	1	sequence	stimulus	Schuh	NaN	NaN	128.0	NaN	NaN	4.0	5.0	NaN	NaN	NaN	NaN	NaN
376.41383489999953	0.1334	sub-16	1	sequence	interval	dot	NaN	NaN	NaN	NaN	NaN	NaN	NaN	NaN	NaN	NaN	NaN	NaN
376.5472327999996	8.0543	sub-16	1	sequence	delay	dot	NaN	NaN	NaN	NaN	NaN	NaN	NaN	NaN	NaN	NaN	NaN	NaN
384.5890249999993	0.6824	sub-16	1	sequence	choice	choice	left	NaN	NaN	0.660684599999513	True	NaN	NaN	left	True	5.0	3.0	5.0
385.27168249999977	0.5001	sub-16	1	sequence	feedback	NaN	NaN	NaN	NaN	NaN	NaN	NaN	NaN	NaN	NaN	NaN	NaN	NaN
385.772011	1.0004	sub-16	1	sequence	cue	Haus	NaN	NaN	NaN	NaN	NaN	NaN	NaN	NaN	NaN	NaN	NaN	NaN
386.7724398999999	2.0015	sub-16	1	sequence	blank	blank	NaN	NaN	NaN	NaN	NaN	NaN	NaN	NaN	NaN	NaN	NaN	NaN
388.7739367999993	0.3001	sub-16	1	sequence	fixation	dot	NaN	NaN	NaN	NaN	NaN	NaN	NaN	NaN	NaN	NaN	NaN	NaN
389.0923727999998	0.1151	sub-16	1	sequence	stimulus	Stuhl	NaN	NaN	32.0	NaN	NaN	5.0	1.0	NaN	NaN	NaN	NaN	NaN
389.2074905999998	0.0335	sub-16	1	sequence	interval	dot	NaN	NaN	NaN	NaN	NaN	NaN	NaN	NaN	NaN	NaN	NaN	NaN
389.24099380000007	0.1	sub-16	1	sequence	stimulus	Schuh	NaN	NaN	32.0	NaN	NaN	4.0	2.0	NaN	NaN	NaN	NaN	NaN
389.3409818	0.0335	sub-16	1	sequence	interval	dot	NaN	NaN	NaN	NaN	NaN	NaN	NaN	NaN	NaN	NaN	NaN	NaN
389.3745199999994	0.0999	sub-16	1	sequence	stimulus	Haus	NaN	NaN	32.0	NaN	NaN	2.0	3.0	NaN	NaN	NaN	NaN	NaN
389.4744071999994	0.0335	sub-16	1	sequence	interval	dot	NaN	NaN	NaN	NaN	NaN	NaN	NaN	NaN	NaN	NaN	NaN	NaN
389.5078866999993	0.0999	sub-16	1	sequence	stimulus	Gesicht	NaN	NaN	32.0	NaN	NaN	1.0	4.0	NaN	NaN	NaN	NaN	NaN
389.60781249999945	0.0335	sub-16	1	sequence	interval	dot	NaN	NaN	NaN	NaN	NaN	NaN	NaN	NaN	NaN	NaN	NaN	NaN
389.64131459999953	0.0999	sub-16	1	sequence	stimulus	Katze	NaN	NaN	32.0	NaN	NaN	3.0	5.0	NaN	NaN	NaN	NaN	NaN
389.74125639999966	0.0334	sub-16	1	sequence	interval	dot	NaN	NaN	NaN	NaN	NaN	NaN	NaN	NaN	NaN	NaN	NaN	NaN
389.77461049999965	8.538	sub-16	1	sequence	delay	dot	NaN	NaN	NaN	NaN	NaN	NaN	NaN	NaN	NaN	NaN	NaN	NaN
398.2908216999994	1.0085	sub-16	1	sequence	choice	choice	left	NaN	NaN	0.9815258000007816	True	NaN	NaN	left	True	3.0	5.0	3.0
399.2996172999992	0.5001	sub-16	1	sequence	feedback	NaN	NaN	NaN	NaN	NaN	NaN	NaN	NaN	NaN	NaN	NaN	NaN	NaN
399.7999055999999	1.0004	sub-16	1	sequence	cue	Schuh	NaN	NaN	NaN	NaN	NaN	NaN	NaN	NaN	NaN	NaN	NaN	NaN
400.8002646999994	2.0016	sub-16	1	sequence	blank	blank	NaN	NaN	NaN	NaN	NaN	NaN	NaN	NaN	NaN	NaN	NaN	NaN
402.8018406000001	0.3003	sub-16	1	sequence	fixation	dot	NaN	NaN	NaN	NaN	NaN	NaN	NaN	NaN	NaN	NaN	NaN	NaN
403.1197444999998	0.0991	sub-16	1	sequence	stimulus	Haus	NaN	NaN	32.0	NaN	NaN	2.0	1.0	NaN	NaN	NaN	NaN	NaN
403.2188700999996	0.0335	sub-16	1	sequence	interval	dot	NaN	NaN	NaN	NaN	NaN	NaN	NaN	NaN	NaN	NaN	NaN	NaN
403.2523554999998	0.1	sub-16	1	sequence	stimulus	Gesicht	NaN	NaN	32.0	NaN	NaN	1.0	2.0	NaN	NaN	NaN	NaN	NaN
403.3523061999995	0.0335	sub-16	1	sequence	interval	dot	NaN	NaN	NaN	NaN	NaN	NaN	NaN	NaN	NaN	NaN	NaN	NaN
403.3858462999997	0.1	sub-16	1	sequence	stimulus	Stuhl	NaN	NaN	32.0	NaN	NaN	5.0	3.0	NaN	NaN	NaN	NaN	NaN
403.4858663999994	0.0335	sub-16	1	sequence	interval	dot	NaN	NaN	NaN	NaN	NaN	NaN	NaN	NaN	NaN	NaN	NaN	NaN
403.5193185999997	0.0999	sub-16	1	sequence	stimulus	Katze	NaN	NaN	32.0	NaN	NaN	3.0	4.0	NaN	NaN	NaN	NaN	NaN
403.6192648999995	0.0335	sub-16	1	sequence	interval	dot	NaN	NaN	NaN	NaN	NaN	NaN	NaN	NaN	NaN	NaN	NaN	NaN
403.6527333999993	0.1	sub-16	1	sequence	stimulus	Schuh	NaN	NaN	32.0	NaN	NaN	4.0	5.0	NaN	NaN	NaN	NaN	NaN
403.75268999999935	0.0334	sub-16	1	sequence	interval	dot	NaN	NaN	NaN	NaN	NaN	NaN	NaN	NaN	NaN	NaN	NaN	NaN
403.78612579999935	8.5378	sub-16	1	sequence	delay	dot	NaN	NaN	NaN	NaN	NaN	NaN	NaN	NaN	NaN	NaN	NaN	NaN
412.3045542	0.5724	sub-16	1	sequence	choice	choice	right	NaN	NaN	0.5462052000002586	True	NaN	NaN	right	True	2.0	5.0	5.0
412.8772114999993	0.5	sub-16	1	sequence	feedback	NaN	NaN	NaN	NaN	NaN	NaN	NaN	NaN	NaN	NaN	NaN	NaN	NaN
413.3773015999996	1.0006	sub-16	1	sequence	cue	Schuh	NaN	NaN	NaN	NaN	NaN	NaN	NaN	NaN	NaN	NaN	NaN	NaN
414.3778873000001	2.0016	sub-16	1	sequence	blank	blank	NaN	NaN	NaN	NaN	NaN	NaN	NaN	NaN	NaN	NaN	NaN	NaN
416.3795030000001	0.3002	sub-16	1	sequence	fixation	dot	NaN	NaN	NaN	NaN	NaN	NaN	NaN	NaN	NaN	NaN	NaN	NaN
416.6982135999997	0.115	sub-16	1	sequence	stimulus	Haus	NaN	NaN	128.0	NaN	NaN	2.0	1.0	NaN	NaN	NaN	NaN	NaN
416.81321539999954	0.1335	sub-16	1	sequence	interval	dot	NaN	NaN	NaN	NaN	NaN	NaN	NaN	NaN	NaN	NaN	NaN	NaN
416.9467154999993	0.1	sub-16	1	sequence	stimulus	Stuhl	NaN	NaN	128.0	NaN	NaN	5.0	2.0	NaN	NaN	NaN	NaN	NaN
417.0466728000001	0.1336	sub-16	1	sequence	interval	dot	NaN	NaN	NaN	NaN	NaN	NaN	NaN	NaN	NaN	NaN	NaN	NaN
417.1802358999994	0.1	sub-16	1	sequence	stimulus	Schuh	NaN	NaN	128.0	NaN	NaN	4.0	3.0	NaN	NaN	NaN	NaN	NaN
417.2802154000001	0.1335	sub-16	1	sequence	interval	dot	NaN	NaN	NaN	NaN	NaN	NaN	NaN	NaN	NaN	NaN	NaN	NaN
417.4136894999992	0.1	sub-16	1	sequence	stimulus	Katze	NaN	NaN	128.0	NaN	NaN	3.0	4.0	NaN	NaN	NaN	NaN	NaN
417.51373689999946	0.1336	sub-16	1	sequence	interval	dot	NaN	NaN	NaN	NaN	NaN	NaN	NaN	NaN	NaN	NaN	NaN	NaN
417.6473020999993	0.0999	sub-16	1	sequence	stimulus	Gesicht	NaN	NaN	128.0	NaN	NaN	1.0	5.0	NaN	NaN	NaN	NaN	NaN
417.74724160000005	0.1334	sub-16	1	sequence	interval	dot	NaN	NaN	NaN	NaN	NaN	NaN	NaN	NaN	NaN	NaN	NaN	NaN
417.8806899000001	8.071	sub-16	1	sequence	delay	dot	NaN	NaN	NaN	NaN	NaN	NaN	NaN	NaN	NaN	NaN	NaN	NaN
425.92820699999993	0.6241	sub-16	1	sequence	choice	choice	left	NaN	NaN	0.590524600000208	False	NaN	NaN	right	True	4.0	3.0	3.0
426.55257399999937	0.5025	sub-16	1	sequence	feedback	NaN	NaN	NaN	NaN	NaN	NaN	NaN	NaN	NaN	NaN	NaN	NaN	NaN
427.0555815999997	13.11	sub-16	1	other	break	break	NaN	NaN	NaN	NaN	NaN	NaN	NaN	NaN	NaN	NaN	NaN	NaN
443.9860248999994	0.4995	sub-16	1	localizer	stimulus	Stuhl	NaN	180	3.3862809000002017	0.6680305999998382	True	NaN	NaN	NaN	NaN	NaN	NaN	NaN
444.4855129999996	3.3863	sub-16	1	localizer	blank	interval	NaN	NaN	NaN	NaN	NaN	NaN	NaN	NaN	NaN	NaN	NaN	NaN
448.1729102999998	0.4996	sub-16	1	localizer	stimulus	Gesicht	NaN	0	3.0854872999998406	NaN	True	NaN	NaN	NaN	NaN	NaN	NaN	NaN
448.65591529999983	3.0855	sub-16	1	localizer	blank	interval	NaN	NaN	NaN	NaN	NaN	NaN	NaN	NaN	NaN	NaN	NaN	NaN
452.0425605999999	0.4995	sub-16	1	localizer	stimulus	Haus	NaN	0	4.0364155999996	NaN	True	NaN	NaN	NaN	NaN	NaN	NaN	NaN
452.5255325999997	4.0364	sub-16	1	localizer	blank	interval	NaN	NaN	NaN	NaN	NaN	NaN	NaN	NaN	NaN	NaN	NaN	NaN
456.8630930999998	0.4995	sub-16	1	localizer	stimulus	Gesicht	NaN	0	2.752086600000439	NaN	True	NaN	NaN	NaN	NaN	NaN	NaN	NaN
457.3460564999996	2.7521	sub-16	1	localizer	blank	interval	NaN	NaN	NaN	NaN	NaN	NaN	NaN	NaN	NaN	NaN	NaN	NaN
460.3992398	0.4996	sub-16	1	localizer	stimulus	Katze	NaN	180	3.0690623999997797	0.4388944000002084	True	NaN	NaN	NaN	NaN	NaN	NaN	NaN
460.8822510999999	3.0691	sub-16	1	localizer	blank	interval	NaN	NaN	NaN	NaN	NaN	NaN	NaN	NaN	NaN	NaN	NaN	NaN
464.25239209999927	0.4995	sub-16	1	localizer	stimulus	Katze	NaN	0	2.818887200000063	NaN	True	NaN	NaN	NaN	NaN	NaN	NaN	NaN
464.73541119999936	2.8189	sub-16	1	localizer	blank	interval	NaN	NaN	NaN	NaN	NaN	NaN	NaN	NaN	NaN	NaN	NaN	NaN
467.8552787999997	0.4997	sub-16	1	localizer	stimulus	Gesicht	NaN	0	2.4343109999999797	NaN	True	NaN	NaN	NaN	NaN	NaN	NaN	NaN
468.3393159999996	2.4343	sub-16	1	localizer	blank	interval	NaN	NaN	NaN	NaN	NaN	NaN	NaN	NaN	NaN	NaN	NaN	NaN
471.0746786999998	0.4994	sub-16	1	localizer	stimulus	Gesicht	NaN	0	2.3850752999996985	NaN	True	NaN	NaN	NaN	NaN	NaN	NaN	NaN
471.5576117999999	2.3851	sub-16	1	localizer	blank	interval	NaN	NaN	NaN	NaN	NaN	NaN	NaN	NaN	NaN	NaN	NaN	NaN
474.2437833999993	0.4996	sub-16	1	localizer	stimulus	Schuh	NaN	0	2.285020500000371	NaN	True	NaN	NaN	NaN	NaN	NaN	NaN	NaN
474.7268053999997	2.285	sub-16	1	localizer	blank	interval	NaN	NaN	NaN	NaN	NaN	NaN	NaN	NaN	NaN	NaN	NaN	NaN
477.31291879999935	0.4995	sub-16	1	localizer	stimulus	Katze	NaN	0	2.1515660000004573	NaN	True	NaN	NaN	NaN	NaN	NaN	NaN	NaN
477.7959684999996	2.1516	sub-16	1	localizer	blank	interval	NaN	NaN	NaN	NaN	NaN	NaN	NaN	NaN	NaN	NaN	NaN	NaN
480.2486390999993	0.4995	sub-16	1	localizer	stimulus	Stuhl	NaN	0	3.0190309999998135	NaN	True	NaN	NaN	NaN	NaN	NaN	NaN	NaN
480.7316136999998	3.019	sub-16	1	localizer	blank	interval	NaN	NaN	NaN	NaN	NaN	NaN	NaN	NaN	NaN	NaN	NaN	NaN
484.0517050999997	0.4996	sub-16	1	localizer	stimulus	Schuh	NaN	0	2.3852144999991083	NaN	True	NaN	NaN	NaN	NaN	NaN	NaN	NaN
484.5347363000001	2.3852	sub-16	1	localizer	blank	interval	NaN	NaN	NaN	NaN	NaN	NaN	NaN	NaN	NaN	NaN	NaN	NaN
487.2210715000001	0.4996	sub-16	1	localizer	stimulus	Haus	NaN	0	2.4851418999996895	NaN	True	NaN	NaN	NaN	NaN	NaN	NaN	NaN
487.7040914999998	2.4851	sub-16	1	localizer	blank	interval	NaN	NaN	NaN	NaN	NaN	NaN	NaN	NaN	NaN	NaN	NaN	NaN
490.4905037999997	0.4996	sub-16	1	localizer	stimulus	Haus	NaN	180	2.6017714999998702	0.467538500000046	True	NaN	NaN	NaN	NaN	NaN	NaN	NaN
490.9734836999996	2.6018	sub-16	1	localizer	blank	interval	NaN	NaN	NaN	NaN	NaN	NaN	NaN	NaN	NaN	NaN	NaN	NaN
493.876327	0.5	sub-16	1	localizer	stimulus	Schuh	NaN	0	2.601876299999276	NaN	True	NaN	NaN	NaN	NaN	NaN	NaN	NaN
494.3594315	2.6019	sub-16	1	localizer	blank	interval	NaN	NaN	NaN	NaN	NaN	NaN	NaN	NaN	NaN	NaN	NaN	NaN
497.2623691999997	0.4996	sub-16	1	localizer	stimulus	Schuh	NaN	180	2.7521373999998104	0.4556525999996665	True	NaN	NaN	NaN	NaN	NaN	NaN	NaN
497.74537340000006	2.7521	sub-16	1	localizer	blank	interval	NaN	NaN	NaN	NaN	NaN	NaN	NaN	NaN	NaN	NaN	NaN	NaN
500.79859659999966	0.4996	sub-16	1	localizer	stimulus	Stuhl	NaN	0	2.8521796999993967	NaN	True	NaN	NaN	NaN	NaN	NaN	NaN	NaN
501.2815928999999	2.8522	sub-16	1	localizer	blank	interval	NaN	NaN	NaN	NaN	NaN	NaN	NaN	NaN	NaN	NaN	NaN	NaN
504.4348517999997	0.4997	sub-16	1	localizer	stimulus	Stuhl	NaN	0	2.952294200000381	NaN	True	NaN	NaN	NaN	NaN	NaN	NaN	NaN
504.9178546999992	2.9523	sub-16	1	localizer	blank	interval	NaN	NaN	NaN	NaN	NaN	NaN	NaN	NaN	NaN	NaN	NaN	NaN
508.17138089999935	0.4995	sub-16	1	localizer	stimulus	Haus	NaN	0	3.035746100000381	NaN	True	NaN	NaN	NaN	NaN	NaN	NaN	NaN
508.6543593999995	3.0357	sub-16	1	localizer	blank	interval	NaN	NaN	NaN	NaN	NaN	NaN	NaN	NaN	NaN	NaN	NaN	NaN
511.9912438000001	0.4997	sub-16	1	localizer	stimulus	Stuhl	NaN	0	2.7853033999999752	NaN	True	NaN	NaN	NaN	NaN	NaN	NaN	NaN
512.47415	2.7853	sub-16	1	localizer	blank	interval	NaN	NaN	NaN	NaN	NaN	NaN	NaN	NaN	NaN	NaN	NaN	NaN
515.5605397999998	0.4996	sub-16	1	localizer	stimulus	Katze	NaN	0	2.3850890000003346	NaN	True	NaN	NaN	NaN	NaN	NaN	NaN	NaN
516.0436217999995	2.3851	sub-16	1	localizer	blank	interval	NaN	NaN	NaN	NaN	NaN	NaN	NaN	NaN	NaN	NaN	NaN	NaN
518.7297867999996	0.4996	sub-16	1	localizer	stimulus	Haus	NaN	0	2.7854904999994687	NaN	True	NaN	NaN	NaN	NaN	NaN	NaN	NaN
519.2127824999998	2.7855	sub-16	1	localizer	blank	interval	NaN	NaN	NaN	NaN	NaN	NaN	NaN	NaN	NaN	NaN	NaN	NaN
522.2993203999995	0.4996	sub-16	1	localizer	stimulus	Katze	NaN	0	1.8847395000002507	NaN	True	NaN	NaN	NaN	NaN	NaN	NaN	NaN
522.7824010999993	1.8847	sub-16	1	localizer	blank	interval	NaN	NaN	NaN	NaN	NaN	NaN	NaN	NaN	NaN	NaN	NaN	NaN
524.9681178000001	0.4996	sub-16	1	localizer	stimulus	Schuh	NaN	0	1.6177921999997125	NaN	True	NaN	NaN	NaN	NaN	NaN	NaN	NaN
525.4512082000001	1.6178	sub-16	1	localizer	blank	interval	NaN	NaN	NaN	NaN	NaN	NaN	NaN	NaN	NaN	NaN	NaN	NaN
527.3700449999997	0.4996	sub-16	1	localizer	stimulus	Gesicht	NaN	180	3.436087199999747	0.4840059999996811	True	NaN	NaN	NaN	NaN	NaN	NaN	NaN
527.8530965999998	3.4361	sub-16	1	localizer	blank	interval	NaN	NaN	NaN	NaN	NaN	NaN	NaN	NaN	NaN	NaN	NaN	NaN
534.7756154999997	1.0005	sub-16	1	sequence	cue	Haus	NaN	NaN	NaN	NaN	NaN	NaN	NaN	NaN	NaN	NaN	NaN	NaN
535.7761049000001	2.0016	sub-16	1	sequence	blank	blank	NaN	NaN	NaN	NaN	NaN	NaN	NaN	NaN	NaN	NaN	NaN	NaN
537.7776838999998	0.3002	sub-16	1	sequence	fixation	dot	NaN	NaN	NaN	NaN	NaN	NaN	NaN	NaN	NaN	NaN	NaN	NaN
538.0962706999999	0.1151	sub-16	1	sequence	stimulus	Stuhl	NaN	NaN	32.0	NaN	NaN	5.0	1.0	NaN	NaN	NaN	NaN	NaN
538.2113546	0.0335	sub-16	1	sequence	interval	dot	NaN	NaN	NaN	NaN	NaN	NaN	NaN	NaN	NaN	NaN	NaN	NaN
538.2448375999993	0.0999	sub-16	1	sequence	stimulus	Schuh	NaN	NaN	32.0	NaN	NaN	4.0	2.0	NaN	NaN	NaN	NaN	NaN
538.3447691000001	0.0335	sub-16	1	sequence	interval	dot	NaN	NaN	NaN	NaN	NaN	NaN	NaN	NaN	NaN	NaN	NaN	NaN
538.3782977000001	0.0999	sub-16	1	sequence	stimulus	Haus	NaN	NaN	32.0	NaN	NaN	2.0	3.0	NaN	NaN	NaN	NaN	NaN
538.4782189999996	0.0335	sub-16	1	sequence	interval	dot	NaN	NaN	NaN	NaN	NaN	NaN	NaN	NaN	NaN	NaN	NaN	NaN
538.5117590999998	0.0999	sub-16	1	sequence	stimulus	Gesicht	NaN	NaN	32.0	NaN	NaN	1.0	4.0	NaN	NaN	NaN	NaN	NaN
538.6117086999993	0.0335	sub-16	1	sequence	interval	dot	NaN	NaN	NaN	NaN	NaN	NaN	NaN	NaN	NaN	NaN	NaN	NaN
538.6452113999994	0.0999	sub-16	1	sequence	stimulus	Katze	NaN	NaN	32.0	NaN	NaN	3.0	5.0	NaN	NaN	NaN	NaN	NaN
538.7451013	0.0334	sub-16	1	sequence	interval	dot	NaN	NaN	NaN	NaN	NaN	NaN	NaN	NaN	NaN	NaN	NaN	NaN
538.7784925999995	8.5379	sub-16	1	sequence	delay	dot	NaN	NaN	NaN	NaN	NaN	NaN	NaN	NaN	NaN	NaN	NaN	NaN
547.2937857999996	0.8092	sub-16	1	sequence	choice	choice	right	NaN	NaN	0.7776201999995465	True	NaN	NaN	right	True	5.0	3.0	3.0
548.1033176999999	0.4999	sub-16	1	sequence	feedback	NaN	NaN	NaN	NaN	NaN	NaN	NaN	NaN	NaN	NaN	NaN	NaN	NaN
548.6033954999994	1.0007	sub-16	1	sequence	cue	Gesicht	NaN	NaN	NaN	NaN	NaN	NaN	NaN	NaN	NaN	NaN	NaN	NaN
549.6041360999998	2.0015	sub-16	1	sequence	blank	blank	NaN	NaN	NaN	NaN	NaN	NaN	NaN	NaN	NaN	NaN	NaN	NaN
551.6056756999997	0.3003	sub-16	1	sequence	fixation	dot	NaN	NaN	NaN	NaN	NaN	NaN	NaN	NaN	NaN	NaN	NaN	NaN
551.9240835	0.1152	sub-16	1	sequence	stimulus	Gesicht	NaN	NaN	512.0	NaN	NaN	1.0	1.0	NaN	NaN	NaN	NaN	NaN
552.0392818	0.5173	sub-16	1	sequence	interval	dot	NaN	NaN	NaN	NaN	NaN	NaN	NaN	NaN	NaN	NaN	NaN	NaN
552.5566165999999	0.0974	sub-16	1	sequence	stimulus	Haus	NaN	NaN	512.0	NaN	NaN	2.0	2.0	NaN	NaN	NaN	NaN	NaN
552.6539974999996	0.5197	sub-16	1	sequence	interval	dot	NaN	NaN	NaN	NaN	NaN	NaN	NaN	NaN	NaN	NaN	NaN	NaN
553.1737383	0.1	sub-16	1	sequence	stimulus	Stuhl	NaN	NaN	512.0	NaN	NaN	5.0	3.0	NaN	NaN	NaN	NaN	NaN
553.2737534999997	0.5172	sub-16	1	sequence	interval	dot	NaN	NaN	NaN	NaN	NaN	NaN	NaN	NaN	NaN	NaN	NaN	NaN
553.7909142999997	0.1	sub-16	1	sequence	stimulus	Schuh	NaN	NaN	512.0	NaN	NaN	4.0	4.0	NaN	NaN	NaN	NaN	NaN
553.8909202999994	0.5172	sub-16	1	sequence	interval	dot	NaN	NaN	NaN	NaN	NaN	NaN	NaN	NaN	NaN	NaN	NaN	NaN
554.4081135999995	0.1	sub-16	1	sequence	stimulus	Katze	NaN	NaN	512.0	NaN	NaN	3.0	5.0	NaN	NaN	NaN	NaN	NaN
554.5080708999994	0.517	sub-16	1	sequence	interval	dot	NaN	NaN	NaN	NaN	NaN	NaN	NaN	NaN	NaN	NaN	NaN	NaN
555.0250799999994	6.1525	sub-16	1	sequence	delay	dot	NaN	NaN	NaN	NaN	NaN	NaN	NaN	NaN	NaN	NaN	NaN	NaN
561.1512137	0.6294	sub-16	1	sequence	choice	choice	left	NaN	NaN	0.596502700000201	True	NaN	NaN	left	True	1.0	5.0	1.0
561.7809511999994	0.5	sub-16	1	sequence	feedback	NaN	NaN	NaN	NaN	NaN	NaN	NaN	NaN	NaN	NaN	NaN	NaN	NaN
562.2811149999998	1.0006	sub-16	1	sequence	cue	Katze	NaN	NaN	NaN	NaN	NaN	NaN	NaN	NaN	NaN	NaN	NaN	NaN
563.2816902999994	2.0018	sub-16	1	sequence	blank	blank	NaN	NaN	NaN	NaN	NaN	NaN	NaN	NaN	NaN	NaN	NaN	NaN
565.2834951999994	0.3	sub-16	1	sequence	fixation	dot	NaN	NaN	NaN	NaN	NaN	NaN	NaN	NaN	NaN	NaN	NaN	NaN
565.6009773999995	0.0993	sub-16	1	sequence	stimulus	Haus	NaN	NaN	128.0	NaN	NaN	2.0	1.0	NaN	NaN	NaN	NaN	NaN
565.7002340999998	0.1336	sub-16	1	sequence	interval	dot	NaN	NaN	NaN	NaN	NaN	NaN	NaN	NaN	NaN	NaN	NaN	NaN
565.8338508999996	0.0999	sub-16	1	sequence	stimulus	Stuhl	NaN	NaN	128.0	NaN	NaN	5.0	2.0	NaN	NaN	NaN	NaN	NaN
565.9337919	0.1335	sub-16	1	sequence	interval	dot	NaN	NaN	NaN	NaN	NaN	NaN	NaN	NaN	NaN	NaN	NaN	NaN
566.0673142999995	0.1	sub-16	1	sequence	stimulus	Schuh	NaN	NaN	128.0	NaN	NaN	4.0	3.0	NaN	NaN	NaN	NaN	NaN
566.1672728999993	0.1336	sub-16	1	sequence	interval	dot	NaN	NaN	NaN	NaN	NaN	NaN	NaN	NaN	NaN	NaN	NaN	NaN
566.3008463999995	0.0999	sub-16	1	sequence	stimulus	Katze	NaN	NaN	128.0	NaN	NaN	3.0	4.0	NaN	NaN	NaN	NaN	NaN
566.4007928999999	0.1336	sub-16	1	sequence	interval	dot	NaN	NaN	NaN	NaN	NaN	NaN	NaN	NaN	NaN	NaN	NaN	NaN
566.5343924999997	0.0999	sub-16	1	sequence	stimulus	Gesicht	NaN	NaN	128.0	NaN	NaN	1.0	5.0	NaN	NaN	NaN	NaN	NaN
566.6343354999999	0.1334	sub-16	1	sequence	interval	dot	NaN	NaN	NaN	NaN	NaN	NaN	NaN	NaN	NaN	NaN	NaN	NaN
566.7677773999994	8.0545	sub-16	1	sequence	delay	dot	NaN	NaN	NaN	NaN	NaN	NaN	NaN	NaN	NaN	NaN	NaN	NaN
574.8009389999997	0.8078	sub-16	1	sequence	choice	choice	right	NaN	NaN	0.7758064999998169	True	NaN	NaN	right	True	5.0	4.0	4.0
575.6090245999994	0.4998	sub-16	1	sequence	feedback	NaN	NaN	NaN	NaN	NaN	NaN	NaN	NaN	NaN	NaN	NaN	NaN	NaN
576.1089763	1.0005	sub-16	1	sequence	cue	Gesicht	NaN	NaN	NaN	NaN	NaN	NaN	NaN	NaN	NaN	NaN	NaN	NaN
577.1094708999999	2.0018	sub-16	1	sequence	blank	blank	NaN	NaN	NaN	NaN	NaN	NaN	NaN	NaN	NaN	NaN	NaN	NaN
579.1112374999993	0.3002	sub-16	1	sequence	fixation	dot	NaN	NaN	NaN	NaN	NaN	NaN	NaN	NaN	NaN	NaN	NaN	NaN
579.4290923999997	0.099	sub-16	1	sequence	stimulus	Haus	NaN	NaN	512.0	NaN	NaN	2.0	1.0	NaN	NaN	NaN	NaN	NaN
579.5281148999993	0.5172	sub-16	1	sequence	interval	dot	NaN	NaN	NaN	NaN	NaN	NaN	NaN	NaN	NaN	NaN	NaN	NaN
580.0453119999993	0.0999	sub-16	1	sequence	stimulus	Katze	NaN	NaN	512.0	NaN	NaN	3.0	2.0	NaN	NaN	NaN	NaN	NaN
580.1452448	0.5172	sub-16	1	sequence	interval	dot	NaN	NaN	NaN	NaN	NaN	NaN	NaN	NaN	NaN	NaN	NaN	NaN
580.6624487999998	0.0999	sub-16	1	sequence	stimulus	Stuhl	NaN	NaN	512.0	NaN	NaN	5.0	3.0	NaN	NaN	NaN	NaN	NaN
580.7623979999998	0.5173	sub-16	1	sequence	interval	dot	NaN	NaN	NaN	NaN	NaN	NaN	NaN	NaN	NaN	NaN	NaN	NaN
581.2797276000001	0.0999	sub-16	1	sequence	stimulus	Schuh	NaN	NaN	512.0	NaN	NaN	4.0	4.0	NaN	NaN	NaN	NaN	NaN
581.3796144999997	0.5172	sub-16	1	sequence	interval	dot	NaN	NaN	NaN	NaN	NaN	NaN	NaN	NaN	NaN	NaN	NaN	NaN
581.8967820999997	0.1	sub-16	1	sequence	stimulus	Gesicht	NaN	NaN	512.0	NaN	NaN	1.0	5.0	NaN	NaN	NaN	NaN	NaN
581.9967459999998	0.5171	sub-16	1	sequence	interval	dot	NaN	NaN	NaN	NaN	NaN	NaN	NaN	NaN	NaN	NaN	NaN	NaN
582.5138348	6.1361	sub-16	1	sequence	delay	dot	NaN	NaN	NaN	NaN	NaN	NaN	NaN	NaN	NaN	NaN	NaN	NaN
588.6326153	0.6703	sub-16	1	sequence	choice	choice	left	NaN	NaN	0.6440760000004957	True	NaN	NaN	left	True	5.0	3.0	5.0
589.3031825999997	0.4999	sub-16	1	sequence	feedback	NaN	NaN	NaN	NaN	NaN	NaN	NaN	NaN	NaN	NaN	NaN	NaN	NaN
589.8032665000001	1.0008	sub-16	1	sequence	cue	Stuhl	NaN	NaN	NaN	NaN	NaN	NaN	NaN	NaN	NaN	NaN	NaN	NaN
590.8040420999996	2.0016	sub-16	1	sequence	blank	blank	NaN	NaN	NaN	NaN	NaN	NaN	NaN	NaN	NaN	NaN	NaN	NaN
592.8056270999996	0.3004	sub-16	1	sequence	fixation	dot	NaN	NaN	NaN	NaN	NaN	NaN	NaN	NaN	NaN	NaN	NaN	NaN
593.1240324999999	0.1153	sub-16	1	sequence	stimulus	Gesicht	NaN	NaN	64.0	NaN	NaN	1.0	1.0	NaN	NaN	NaN	NaN	NaN
593.2392958999999	0.0669	sub-16	1	sequence	interval	dot	NaN	NaN	NaN	NaN	NaN	NaN	NaN	NaN	NaN	NaN	NaN	NaN
593.3061754999999	0.0999	sub-16	1	sequence	stimulus	Haus	NaN	NaN	64.0	NaN	NaN	2.0	2.0	NaN	NaN	NaN	NaN	NaN
593.4061091999993	0.0669	sub-16	1	sequence	interval	dot	NaN	NaN	NaN	NaN	NaN	NaN	NaN	NaN	NaN	NaN	NaN	NaN
593.4730258999998	0.0999	sub-16	1	sequence	stimulus	Katze	NaN	NaN	64.0	NaN	NaN	3.0	3.0	NaN	NaN	NaN	NaN	NaN
593.5728992999993	0.0668	sub-16	1	sequence	interval	dot	NaN	NaN	NaN	NaN	NaN	NaN	NaN	NaN	NaN	NaN	NaN	NaN
593.6397109999998	0.0999	sub-16	1	sequence	stimulus	Schuh	NaN	NaN	64.0	NaN	NaN	4.0	4.0	NaN	NaN	NaN	NaN	NaN
593.7396571999998	0.0643	sub-16	1	sequence	interval	dot	NaN	NaN	NaN	NaN	NaN	NaN	NaN	NaN	NaN	NaN	NaN	NaN
593.8039394999996	0.1026	sub-16	1	sequence	stimulus	Stuhl	NaN	NaN	64.0	NaN	NaN	5.0	5.0	NaN	NaN	NaN	NaN	NaN
593.9064909999997	0.0667	sub-16	1	sequence	interval	dot	NaN	NaN	NaN	NaN	NaN	NaN	NaN	NaN	NaN	NaN	NaN	NaN
593.9732283999992	8.3877	sub-16	1	sequence	delay	dot	NaN	NaN	NaN	NaN	NaN	NaN	NaN	NaN	NaN	NaN	NaN	NaN
602.3343095999999	0.6797	sub-16	1	sequence	choice	choice	left	NaN	NaN	0.6370145000000775	True	NaN	NaN	left	True	5.0	2.0	5.0
603.0142645999995	0.5	sub-16	1	sequence	feedback	NaN	NaN	NaN	NaN	NaN	NaN	NaN	NaN	NaN	NaN	NaN	NaN	NaN
603.5145494999997	1.0004	sub-16	1	sequence	cue	Katze	NaN	NaN	NaN	NaN	NaN	NaN	NaN	NaN	NaN	NaN	NaN	NaN
604.5149722999995	2.0016	sub-16	1	sequence	blank	blank	NaN	NaN	NaN	NaN	NaN	NaN	NaN	NaN	NaN	NaN	NaN	NaN
606.5166061999998	0.3002	sub-16	1	sequence	fixation	dot	NaN	NaN	NaN	NaN	NaN	NaN	NaN	NaN	NaN	NaN	NaN	NaN
606.8344094999993	0.0992	sub-16	1	sequence	stimulus	Haus	NaN	NaN	128.0	NaN	NaN	2.0	1.0	NaN	NaN	NaN	NaN	NaN
606.9336026999999	0.1335	sub-16	1	sequence	interval	dot	NaN	NaN	NaN	NaN	NaN	NaN	NaN	NaN	NaN	NaN	NaN	NaN
607.0671358999998	0.1	sub-16	1	sequence	stimulus	Katze	NaN	NaN	128.0	NaN	NaN	3.0	2.0	NaN	NaN	NaN	NaN	NaN
607.1671046000001	0.1335	sub-16	1	sequence	interval	dot	NaN	NaN	NaN	NaN	NaN	NaN	NaN	NaN	NaN	NaN	NaN	NaN
607.3006301999994	0.1	sub-16	1	sequence	stimulus	Stuhl	NaN	NaN	128.0	NaN	NaN	5.0	3.0	NaN	NaN	NaN	NaN	NaN
607.4006212999993	0.1336	sub-16	1	sequence	interval	dot	NaN	NaN	NaN	NaN	NaN	NaN	NaN	NaN	NaN	NaN	NaN	NaN
607.5342486999998	0.0999	sub-16	1	sequence	stimulus	Gesicht	NaN	NaN	128.0	NaN	NaN	1.0	4.0	NaN	NaN	NaN	NaN	NaN
607.6341893999997	0.1335	sub-16	1	sequence	interval	dot	NaN	NaN	NaN	NaN	NaN	NaN	NaN	NaN	NaN	NaN	NaN	NaN
607.7677165999994	0.1	sub-16	1	sequence	stimulus	Schuh	NaN	NaN	128.0	NaN	NaN	4.0	5.0	NaN	NaN	NaN	NaN	NaN
607.8676903999994	0.1334	sub-16	1	sequence	interval	dot	NaN	NaN	NaN	NaN	NaN	NaN	NaN	NaN	NaN	NaN	NaN	NaN
608.0010912999996	8.0878	sub-16	1	sequence	delay	dot	NaN	NaN	NaN	NaN	NaN	NaN	NaN	NaN	NaN	NaN	NaN	NaN
616.0621655999994	0.6298	sub-16	1	sequence	choice	choice	left	NaN	NaN	0.589199600000029	True	NaN	NaN	left	True	2.0	3.0	2.0
616.6922342999997	0.5	sub-16	1	sequence	feedback	NaN	NaN	NaN	NaN	NaN	NaN	NaN	NaN	NaN	NaN	NaN	NaN	NaN
617.1924105999997	1.0004	sub-16	1	sequence	cue	Katze	NaN	NaN	NaN	NaN	NaN	NaN	NaN	NaN	NaN	NaN	NaN	NaN
618.1928696999994	2.0016	sub-16	1	sequence	blank	blank	NaN	NaN	NaN	NaN	NaN	NaN	NaN	NaN	NaN	NaN	NaN	NaN
620.1944852999995	0.3001	sub-16	1	sequence	fixation	dot	NaN	NaN	NaN	NaN	NaN	NaN	NaN	NaN	NaN	NaN	NaN	NaN
620.5121420999994	0.0992	sub-16	1	sequence	stimulus	Haus	NaN	NaN	32.0	NaN	NaN	2.0	1.0	NaN	NaN	NaN	NaN	NaN
620.6113146999996	0.0336	sub-16	1	sequence	interval	dot	NaN	NaN	NaN	NaN	NaN	NaN	NaN	NaN	NaN	NaN	NaN	NaN
620.6448678999996	0.0999	sub-16	1	sequence	stimulus	Gesicht	NaN	NaN	32.0	NaN	NaN	1.0	2.0	NaN	NaN	NaN	NaN	NaN
620.7447550999996	0.0335	sub-16	1	sequence	interval	dot	NaN	NaN	NaN	NaN	NaN	NaN	NaN	NaN	NaN	NaN	NaN	NaN
620.7782076999993	0.1	sub-16	1	sequence	stimulus	Stuhl	NaN	NaN	32.0	NaN	NaN	5.0	3.0	NaN	NaN	NaN	NaN	NaN
620.8782420999996	0.0335	sub-16	1	sequence	interval	dot	NaN	NaN	NaN	NaN	NaN	NaN	NaN	NaN	NaN	NaN	NaN	NaN
620.9117538999999	0.0999	sub-16	1	sequence	stimulus	Katze	NaN	NaN	32.0	NaN	NaN	3.0	4.0	NaN	NaN	NaN	NaN	NaN
621.011638	0.0335	sub-16	1	sequence	interval	dot	NaN	NaN	NaN	NaN	NaN	NaN	NaN	NaN	NaN	NaN	NaN	NaN
621.0450965999999	0.1	sub-16	1	sequence	stimulus	Schuh	NaN	NaN	32.0	NaN	NaN	4.0	5.0	NaN	NaN	NaN	NaN	NaN
621.1450765999998	0.0333	sub-16	1	sequence	interval	dot	NaN	NaN	NaN	NaN	NaN	NaN	NaN	NaN	NaN	NaN	NaN	NaN
621.1784124999995	8.5211	sub-16	1	sequence	delay	dot	NaN	NaN	NaN	NaN	NaN	NaN	NaN	NaN	NaN	NaN	NaN	NaN
629.6857100999996	0.6171	sub-16	1	sequence	choice	choice	right	NaN	NaN	0.5866039000002274	True	NaN	NaN	right	True	5.0	4.0	4.0
630.3030867999996	0.4999	sub-16	1	sequence	feedback	NaN	NaN	NaN	NaN	NaN	NaN	NaN	NaN	NaN	NaN	NaN	NaN	NaN
630.8032371999998	1.0005	sub-16	1	sequence	cue	Haus	NaN	NaN	NaN	NaN	NaN	NaN	NaN	NaN	NaN	NaN	NaN	NaN
631.8037377	2.0017	sub-16	1	sequence	blank	blank	NaN	NaN	NaN	NaN	NaN	NaN	NaN	NaN	NaN	NaN	NaN	NaN
633.8054540999992	0.3002	sub-16	1	sequence	fixation	dot	NaN	NaN	NaN	NaN	NaN	NaN	NaN	NaN	NaN	NaN	NaN	NaN
634.1238460999994	0.1153	sub-16	1	sequence	stimulus	Katze	NaN	NaN	64.0	NaN	NaN	3.0	1.0	NaN	NaN	NaN	NaN	NaN
634.2391340999993	0.0668	sub-16	1	sequence	interval	dot	NaN	NaN	NaN	NaN	NaN	NaN	NaN	NaN	NaN	NaN	NaN	NaN
634.3059705999995	0.1	sub-16	1	sequence	stimulus	Schuh	NaN	NaN	64.0	NaN	NaN	4.0	2.0	NaN	NaN	NaN	NaN	NaN
634.4059350999996	0.0668	sub-16	1	sequence	interval	dot	NaN	NaN	NaN	NaN	NaN	NaN	NaN	NaN	NaN	NaN	NaN	NaN
634.4727724999993	0.0999	sub-16	1	sequence	stimulus	Stuhl	NaN	NaN	64.0	NaN	NaN	5.0	3.0	NaN	NaN	NaN	NaN	NaN
634.5727079999997	0.0669	sub-16	1	sequence	interval	dot	NaN	NaN	NaN	NaN	NaN	NaN	NaN	NaN	NaN	NaN	NaN	NaN
634.6395863999996	0.1	sub-16	1	sequence	stimulus	Haus	NaN	NaN	64.0	NaN	NaN	2.0	4.0	NaN	NaN	NaN	NaN	NaN
634.7396014999995	0.0668	sub-16	1	sequence	interval	dot	NaN	NaN	NaN	NaN	NaN	NaN	NaN	NaN	NaN	NaN	NaN	NaN
634.8063693999993	0.0999	sub-16	1	sequence	stimulus	Gesicht	NaN	NaN	64.0	NaN	NaN	1.0	5.0	NaN	NaN	NaN	NaN	NaN
634.9063090999998	0.0667	sub-16	1	sequence	interval	dot	NaN	NaN	NaN	NaN	NaN	NaN	NaN	NaN	NaN	NaN	NaN	NaN
634.9730374999999	8.3878	sub-16	1	sequence	delay	dot	NaN	NaN	NaN	NaN	NaN	NaN	NaN	NaN	NaN	NaN	NaN	NaN
643.3354917999995	0.6117	sub-16	1	sequence	choice	choice	right	NaN	NaN	0.5812239999995654	True	NaN	NaN	right	True	5.0	4.0	4.0
643.9474106999996	0.4998	sub-16	1	sequence	feedback	NaN	NaN	NaN	NaN	NaN	NaN	NaN	NaN	NaN	NaN	NaN	NaN	NaN
648.2678671999993	0.4995	sub-16	1	localizer	stimulus	Schuh	NaN	0	2.135008499999458	NaN	True	NaN	NaN	NaN	NaN	NaN	NaN	NaN
648.7508699	2.135	sub-16	1	localizer	blank	interval	NaN	NaN	NaN	NaN	NaN	NaN	NaN	NaN	NaN	NaN	NaN	NaN
651.1868749999994	0.4995	sub-16	1	localizer	stimulus	Katze	NaN	180	2.285138499999448	0.459125700000186	True	NaN	NaN	NaN	NaN	NaN	NaN	NaN
651.6699048	2.2851	sub-16	1	localizer	blank	interval	NaN	NaN	NaN	NaN	NaN	NaN	NaN	NaN	NaN	NaN	NaN	NaN
654.2561355999997	0.4995	sub-16	1	localizer	stimulus	Katze	NaN	0	2.2326325000003635	NaN	True	NaN	NaN	NaN	NaN	NaN	NaN	NaN
654.7390726999993	2.2326	sub-16	1	localizer	blank	interval	NaN	NaN	NaN	NaN	NaN	NaN	NaN	NaN	NaN	NaN	NaN	NaN
657.2752707999998	0.4996	sub-16	1	localizer	stimulus	Schuh	NaN	0	1.7012458999997762	NaN	True	NaN	NaN	NaN	NaN	NaN	NaN	NaN
657.7583580999999	1.7012	sub-16	1	localizer	blank	interval	NaN	NaN	NaN	NaN	NaN	NaN	NaN	NaN	NaN	NaN	NaN	NaN
659.7605404999995	0.4996	sub-16	1	localizer	stimulus	Stuhl	NaN	0	2.48527920000015	NaN	True	NaN	NaN	NaN	NaN	NaN	NaN	NaN
660.2434379999995	2.4853	sub-16	1	localizer	blank	interval	NaN	NaN	NaN	NaN	NaN	NaN	NaN	NaN	NaN	NaN	NaN	NaN
663.0297980999994	0.4996	sub-16	1	localizer	stimulus	Katze	NaN	0	2.185014300000148	NaN	True	NaN	NaN	NaN	NaN	NaN	NaN	NaN
663.5128451999999	2.185	sub-16	1	localizer	blank	interval	NaN	NaN	NaN	NaN	NaN	NaN	NaN	NaN	NaN	NaN	NaN	NaN
665.9988549	0.4995	sub-16	1	localizer	stimulus	Stuhl	NaN	0	3.019010399999388	NaN	True	NaN	NaN	NaN	NaN	NaN	NaN	NaN
666.4818255999999	3.019	sub-16	1	localizer	blank	interval	NaN	NaN	NaN	NaN	NaN	NaN	NaN	NaN	NaN	NaN	NaN	NaN
669.8019408	0.4996	sub-16	1	localizer	stimulus	Gesicht	NaN	180	3.4693832999992082	0.4519489000003887	True	NaN	NaN	NaN	NaN	NaN	NaN	NaN
670.2849384000001	3.4694	sub-16	1	localizer	blank	interval	NaN	NaN	NaN	NaN	NaN	NaN	NaN	NaN	NaN	NaN	NaN	NaN
674.0553639	0.4996	sub-16	1	localizer	stimulus	Gesicht	NaN	0	2.051695699999982	NaN	True	NaN	NaN	NaN	NaN	NaN	NaN	NaN
674.5383660999996	2.0517	sub-16	1	localizer	blank	interval	NaN	NaN	NaN	NaN	NaN	NaN	NaN	NaN	NaN	NaN	NaN	NaN
676.8910331999996	0.4996	sub-16	1	localizer	stimulus	Katze	NaN	0	2.2183903000004648	NaN	True	NaN	NaN	NaN	NaN	NaN	NaN	NaN
677.3741746999995	2.2184	sub-16	1	localizer	blank	interval	NaN	NaN	NaN	NaN	NaN	NaN	NaN	NaN	NaN	NaN	NaN	NaN
679.8936704999996	0.4995	sub-16	1	localizer	stimulus	Haus	NaN	0	2.6350616999998238	NaN	True	NaN	NaN	NaN	NaN	NaN	NaN	NaN
680.3767085999998	2.6351	sub-16	1	localizer	blank	interval	NaN	NaN	NaN	NaN	NaN	NaN	NaN	NaN	NaN	NaN	NaN	NaN
683.3128806999994	0.4995	sub-16	1	localizer	stimulus	Haus	NaN	180	3.135667999999896	0.5090921999999409	True	NaN	NaN	NaN	NaN	NaN	NaN	NaN
683.7959222	3.1357	sub-16	1	localizer	blank	interval	NaN	NaN	NaN	NaN	NaN	NaN	NaN	NaN	NaN	NaN	NaN	NaN
687.2327056999993	0.4996	sub-16	1	localizer	stimulus	Stuhl	NaN	0	2.652100299999802	NaN	True	NaN	NaN	NaN	NaN	NaN	NaN	NaN
687.7156464	2.6521	sub-16	1	localizer	blank	interval	NaN	NaN	NaN	NaN	NaN	NaN	NaN	NaN	NaN	NaN	NaN	NaN
690.6689258999995	0.4994	sub-16	1	localizer	stimulus	Haus	NaN	0	2.785405599999649	NaN	True	NaN	NaN	NaN	NaN	NaN	NaN	NaN
691.1518748999997	2.7854	sub-16	1	localizer	blank	interval	NaN	NaN	NaN	NaN	NaN	NaN	NaN	NaN	NaN	NaN	NaN	NaN
694.2383657999999	0.4995	sub-16	1	localizer	stimulus	Katze	NaN	0	2.051581900000201	NaN	True	NaN	NaN	NaN	NaN	NaN	NaN	NaN
694.7213816999993	2.0516	sub-16	1	localizer	blank	interval	NaN	NaN	NaN	NaN	NaN	NaN	NaN	NaN	NaN	NaN	NaN	NaN
697.0740995999995	0.4996	sub-16	1	localizer	stimulus	Gesicht	NaN	0	2.9857373999993797	NaN	True	NaN	NaN	NaN	NaN	NaN	NaN	NaN
697.5571227999999	2.9857	sub-16	1	localizer	blank	interval	NaN	NaN	NaN	NaN	NaN	NaN	NaN	NaN	NaN	NaN	NaN	NaN
700.8439174999994	0.4995	sub-16	1	localizer	stimulus	Schuh	NaN	0	2.7185780999998315	NaN	True	NaN	NaN	NaN	NaN	NaN	NaN	NaN
701.3268694999997	2.7186	sub-16	1	localizer	blank	interval	NaN	NaN	NaN	NaN	NaN	NaN	NaN	NaN	NaN	NaN	NaN	NaN
704.3465140999997	0.4996	sub-16	1	localizer	stimulus	Schuh	NaN	180	2.301752899999883	0.5553387999998449	True	NaN	NaN	NaN	NaN	NaN	NaN	NaN
704.8295123999997	2.3018	sub-16	1	localizer	blank	interval	NaN	NaN	NaN	NaN	NaN	NaN	NaN	NaN	NaN	NaN	NaN	NaN
707.4323172999993	0.4996	sub-16	1	localizer	stimulus	Gesicht	NaN	0	2.218301999999312	NaN	True	NaN	NaN	NaN	NaN	NaN	NaN	NaN
707.9154171	2.2183	sub-16	1	localizer	blank	interval	NaN	NaN	NaN	NaN	NaN	NaN	NaN	NaN	NaN	NaN	NaN	NaN
710.4347933999998	0.4996	sub-16	1	localizer	stimulus	Stuhl	NaN	180	3.58610839999983	0.427190999999766	True	NaN	NaN	NaN	NaN	NaN	NaN	NaN
710.917813	3.5861	sub-16	1	localizer	blank	interval	NaN	NaN	NaN	NaN	NaN	NaN	NaN	NaN	NaN	NaN	NaN	NaN
714.8049694000001	0.4996	sub-16	1	localizer	stimulus	Stuhl	NaN	0	2.7355392999998003	NaN	True	NaN	NaN	NaN	NaN	NaN	NaN	NaN
715.2879913999996	2.7355	sub-16	1	localizer	blank	interval	NaN	NaN	NaN	NaN	NaN	NaN	NaN	NaN	NaN	NaN	NaN	NaN
718.3246099999997	0.4996	sub-16	1	localizer	stimulus	Schuh	NaN	0	2.735511700000643	NaN	True	NaN	NaN	NaN	NaN	NaN	NaN	NaN
718.8076642999995	2.7355	sub-16	1	localizer	blank	interval	NaN	NaN	NaN	NaN	NaN	NaN	NaN	NaN	NaN	NaN	NaN	NaN
721.8442527999996	0.4995	sub-16	1	localizer	stimulus	Haus	NaN	0	2.001292099999773	NaN	True	NaN	NaN	NaN	NaN	NaN	NaN	NaN
722.3272277999995	2.0013	sub-16	1	localizer	blank	interval	NaN	NaN	NaN	NaN	NaN	NaN	NaN	NaN	NaN	NaN	NaN	NaN
724.6295831999996	0.4996	sub-16	1	localizer	stimulus	Gesicht	NaN	0	2.4351486000005025	NaN	True	NaN	NaN	NaN	NaN	NaN	NaN	NaN
725.1126337999995	2.4351	sub-16	1	localizer	blank	interval	NaN	NaN	NaN	NaN	NaN	NaN	NaN	NaN	NaN	NaN	NaN	NaN
727.8489124999996	0.4995	sub-16	1	localizer	stimulus	Haus	NaN	0	2.5184675999998944	NaN	True	NaN	NaN	NaN	NaN	NaN	NaN	NaN
728.3319666999996	2.5185	sub-16	1	localizer	blank	interval	NaN	NaN	NaN	NaN	NaN	NaN	NaN	NaN	NaN	NaN	NaN	NaN
734.3369165999993	1.0006	sub-16	1	sequence	cue	Gesicht	NaN	NaN	NaN	NaN	NaN	NaN	NaN	NaN	NaN	NaN	NaN	NaN
735.3374739000001	2.0016	sub-16	1	sequence	blank	blank	NaN	NaN	NaN	NaN	NaN	NaN	NaN	NaN	NaN	NaN	NaN	NaN
737.3390744999997	0.3002	sub-16	1	sequence	fixation	dot	NaN	NaN	NaN	NaN	NaN	NaN	NaN	NaN	NaN	NaN	NaN	NaN
737.6577410999998	0.115	sub-16	1	sequence	stimulus	Haus	NaN	NaN	128.0	NaN	NaN	2.0	1.0	NaN	NaN	NaN	NaN	NaN
737.7727173999992	0.1336	sub-16	1	sequence	interval	dot	NaN	NaN	NaN	NaN	NaN	NaN	NaN	NaN	NaN	NaN	NaN	NaN
737.9062853999994	0.1	sub-16	1	sequence	stimulus	Katze	NaN	NaN	128.0	NaN	NaN	3.0	2.0	NaN	NaN	NaN	NaN	NaN
738.0062435999998	0.1336	sub-16	1	sequence	interval	dot	NaN	NaN	NaN	NaN	NaN	NaN	NaN	NaN	NaN	NaN	NaN	NaN
738.1398302999996	0.0999	sub-16	1	sequence	stimulus	Stuhl	NaN	NaN	128.0	NaN	NaN	5.0	3.0	NaN	NaN	NaN	NaN	NaN
738.2397440999994	0.1337	sub-16	1	sequence	interval	dot	NaN	NaN	NaN	NaN	NaN	NaN	NaN	NaN	NaN	NaN	NaN	NaN
738.3734202999995	0.0999	sub-16	1	sequence	stimulus	Gesicht	NaN	NaN	128.0	NaN	NaN	1.0	4.0	NaN	NaN	NaN	NaN	NaN
738.4733376999993	0.1336	sub-16	1	sequence	interval	dot	NaN	NaN	NaN	NaN	NaN	NaN	NaN	NaN	NaN	NaN	NaN	NaN
738.6069328999993	0.0999	sub-16	1	sequence	stimulus	Schuh	NaN	NaN	128.0	NaN	NaN	4.0	5.0	NaN	NaN	NaN	NaN	NaN
738.7068405	0.1335	sub-16	1	sequence	interval	dot	NaN	NaN	NaN	NaN	NaN	NaN	NaN	NaN	NaN	NaN	NaN	NaN
738.8403320999996	8.0709	sub-16	1	sequence	delay	dot	NaN	NaN	NaN	NaN	NaN	NaN	NaN	NaN	NaN	NaN	NaN	NaN
746.8911428000001	0.6563	sub-16	1	sequence	choice	choice	left	NaN	NaN	0.630764999999883	True	NaN	NaN	left	True	4.0	5.0	4.0
747.5478534999993	0.5	sub-16	1	sequence	feedback	NaN	NaN	NaN	NaN	NaN	NaN	NaN	NaN	NaN	NaN	NaN	NaN	NaN
748.0481006999998	1.0005	sub-16	1	sequence	cue	Schuh	NaN	NaN	NaN	NaN	NaN	NaN	NaN	NaN	NaN	NaN	NaN	NaN
749.0486499999997	2.0015	sub-16	1	sequence	blank	blank	NaN	NaN	NaN	NaN	NaN	NaN	NaN	NaN	NaN	NaN	NaN	NaN
751.0501590999993	0.3002	sub-16	1	sequence	fixation	dot	NaN	NaN	NaN	NaN	NaN	NaN	NaN	NaN	NaN	NaN	NaN	NaN
751.3678825999996	0.0993	sub-16	1	sequence	stimulus	Gesicht	NaN	NaN	512.0	NaN	NaN	1.0	1.0	NaN	NaN	NaN	NaN	NaN
751.4671539999999	0.5173	sub-16	1	sequence	interval	dot	NaN	NaN	NaN	NaN	NaN	NaN	NaN	NaN	NaN	NaN	NaN	NaN
751.9844247999999	0.0999	sub-16	1	sequence	stimulus	Haus	NaN	NaN	512.0	NaN	NaN	2.0	2.0	NaN	NaN	NaN	NaN	NaN
752.0843138999999	0.5172	sub-16	1	sequence	interval	dot	NaN	NaN	NaN	NaN	NaN	NaN	NaN	NaN	NaN	NaN	NaN	NaN
752.6014974999998	0.1	sub-16	1	sequence	stimulus	Stuhl	NaN	NaN	512.0	NaN	NaN	5.0	3.0	NaN	NaN	NaN	NaN	NaN
752.7014756999997	0.5172	sub-16	1	sequence	interval	dot	NaN	NaN	NaN	NaN	NaN	NaN	NaN	NaN	NaN	NaN	NaN	NaN
753.2186544999995	0.1	sub-16	1	sequence	stimulus	Schuh	NaN	NaN	512.0	NaN	NaN	4.0	4.0	NaN	NaN	NaN	NaN	NaN
753.3186390999999	0.5172	sub-16	1	sequence	interval	dot	NaN	NaN	NaN	NaN	NaN	NaN	NaN	NaN	NaN	NaN	NaN	NaN
753.8358154999996	0.1	sub-16	1	sequence	stimulus	Katze	NaN	NaN	512.0	NaN	NaN	3.0	5.0	NaN	NaN	NaN	NaN	NaN
753.9357884000001	0.5171	sub-16	1	sequence	interval	dot	NaN	NaN	NaN	NaN	NaN	NaN	NaN	NaN	NaN	NaN	NaN	NaN
754.4528962999993	6.1527	sub-16	1	sequence	delay	dot	NaN	NaN	NaN	NaN	NaN	NaN	NaN	NaN	NaN	NaN	NaN	NaN
760.5928307999993	0.7135	sub-16	1	sequence	choice	choice	left	NaN	NaN	0.696403900000405	True	NaN	NaN	left	True	4.0	5.0	4.0
761.3065735	0.5191	sub-16	1	sequence	feedback	NaN	NaN	NaN	NaN	NaN	NaN	NaN	NaN	NaN	NaN	NaN	NaN	NaN
761.8257897999993	0.9841	sub-16	1	sequence	cue	Katze	NaN	NaN	NaN	NaN	NaN	NaN	NaN	NaN	NaN	NaN	NaN	NaN
762.8099019000001	2.0015	sub-16	1	sequence	blank	blank	NaN	NaN	NaN	NaN	NaN	NaN	NaN	NaN	NaN	NaN	NaN	NaN
764.8113612999996	0.3002	sub-16	1	sequence	fixation	dot	NaN	NaN	NaN	NaN	NaN	NaN	NaN	NaN	NaN	NaN	NaN	NaN
765.1292159999994	0.099	sub-16	1	sequence	stimulus	Gesicht	NaN	NaN	64.0	NaN	NaN	1.0	1.0	NaN	NaN	NaN	NaN	NaN
765.2282544999998	0.0669	sub-16	1	sequence	interval	dot	NaN	NaN	NaN	NaN	NaN	NaN	NaN	NaN	NaN	NaN	NaN	NaN
765.2951913999996	0.0999	sub-16	1	sequence	stimulus	Haus	NaN	NaN	64.0	NaN	NaN	2.0	2.0	NaN	NaN	NaN	NaN	NaN
765.3951148999995	0.0668	sub-16	1	sequence	interval	dot	NaN	NaN	NaN	NaN	NaN	NaN	NaN	NaN	NaN	NaN	NaN	NaN
765.4618921000001	0.1	sub-16	1	sequence	stimulus	Katze	NaN	NaN	64.0	NaN	NaN	3.0	3.0	NaN	NaN	NaN	NaN	NaN
765.5618654	0.0669	sub-16	1	sequence	interval	dot	NaN	NaN	NaN	NaN	NaN	NaN	NaN	NaN	NaN	NaN	NaN	NaN
765.6287225999995	0.1	sub-16	1	sequence	stimulus	Schuh	NaN	NaN	64.0	NaN	NaN	4.0	4.0	NaN	NaN	NaN	NaN	NaN
765.7286753999997	0.067	sub-16	1	sequence	interval	dot	NaN	NaN	NaN	NaN	NaN	NaN	NaN	NaN	NaN	NaN	NaN	NaN
765.7956900999998	0.0997	sub-16	1	sequence	stimulus	Stuhl	NaN	NaN	64.0	NaN	NaN	5.0	5.0	NaN	NaN	NaN	NaN	NaN
765.8954254	0.0669	sub-16	1	sequence	interval	dot	NaN	NaN	NaN	NaN	NaN	NaN	NaN	NaN	NaN	NaN	NaN	NaN
765.9622842999997	8.3711	sub-16	1	sequence	delay	dot	NaN	NaN	NaN	NaN	NaN	NaN	NaN	NaN	NaN	NaN	NaN	NaN
774.3209155999994	0.6822	sub-16	1	sequence	choice	choice	left	NaN	NaN	0.6566603999999643	True	NaN	NaN	left	True	3.0	2.0	3.0
775.0033647999999	0.5	sub-16	1	sequence	feedback	NaN	NaN	NaN	NaN	NaN	NaN	NaN	NaN	NaN	NaN	NaN	NaN	NaN
775.5036105999998	1.0005	sub-16	1	sequence	cue	Katze	NaN	NaN	NaN	NaN	NaN	NaN	NaN	NaN	NaN	NaN	NaN	NaN
776.5040701999997	2.0016	sub-16	1	sequence	blank	blank	NaN	NaN	NaN	NaN	NaN	NaN	NaN	NaN	NaN	NaN	NaN	NaN
778.5056734999998	0.3003	sub-16	1	sequence	fixation	dot	NaN	NaN	NaN	NaN	NaN	NaN	NaN	NaN	NaN	NaN	NaN	NaN
778.8244111999993	0.1149	sub-16	1	sequence	stimulus	Haus	NaN	NaN	128.0	NaN	NaN	2.0	1.0	NaN	NaN	NaN	NaN	NaN
778.9393439999994	0.1336	sub-16	1	sequence	interval	dot	NaN	NaN	NaN	NaN	NaN	NaN	NaN	NaN	NaN	NaN	NaN	NaN
779.0729017999993	0.1	sub-16	1	sequence	stimulus	Stuhl	NaN	NaN	128.0	NaN	NaN	5.0	2.0	NaN	NaN	NaN	NaN	NaN
779.1728728999997	0.1336	sub-16	1	sequence	interval	dot	NaN	NaN	NaN	NaN	NaN	NaN	NaN	NaN	NaN	NaN	NaN	NaN
779.3064420000001	0.0999	sub-16	1	sequence	stimulus	Schuh	NaN	NaN	128.0	NaN	NaN	4.0	3.0	NaN	NaN	NaN	NaN	NaN
779.4063917999993	0.1336	sub-16	1	sequence	interval	dot	NaN	NaN	NaN	NaN	NaN	NaN	NaN	NaN	NaN	NaN	NaN	NaN
779.5399589999997	0.1	sub-16	1	sequence	stimulus	Katze	NaN	NaN	128.0	NaN	NaN	3.0	4.0	NaN	NaN	NaN	NaN	NaN
779.6399230999996	0.1336	sub-16	1	sequence	interval	dot	NaN	NaN	NaN	NaN	NaN	NaN	NaN	NaN	NaN	NaN	NaN	NaN
779.7734792000001	0.1	sub-16	1	sequence	stimulus	Gesicht	NaN	NaN	128.0	NaN	NaN	1.0	5.0	NaN	NaN	NaN	NaN	NaN
779.8734330999996	0.1334	sub-16	1	sequence	interval	dot	NaN	NaN	NaN	NaN	NaN	NaN	NaN	NaN	NaN	NaN	NaN	NaN
780.0068738999998	8.071	sub-16	1	sequence	delay	dot	NaN	NaN	NaN	NaN	NaN	NaN	NaN	NaN	NaN	NaN	NaN	NaN
788.0482149999998	0.6494	sub-16	1	sequence	choice	choice	right	NaN	NaN	0.6082040000001143	True	NaN	NaN	right	True	2.0	4.0	4.0
788.6978556999993	0.4999	sub-16	1	sequence	feedback	NaN	NaN	NaN	NaN	NaN	NaN	NaN	NaN	NaN	NaN	NaN	NaN	NaN
789.1979861	1.0006	sub-16	1	sequence	cue	Katze	NaN	NaN	NaN	NaN	NaN	NaN	NaN	NaN	NaN	NaN	NaN	NaN
790.1986038999994	2.0016	sub-16	1	sequence	blank	blank	NaN	NaN	NaN	NaN	NaN	NaN	NaN	NaN	NaN	NaN	NaN	NaN
792.2002241999999	0.3001	sub-16	1	sequence	fixation	dot	NaN	NaN	NaN	NaN	NaN	NaN	NaN	NaN	NaN	NaN	NaN	NaN
792.5179511999995	0.0993	sub-16	1	sequence	stimulus	Stuhl	NaN	NaN	32.0	NaN	NaN	5.0	1.0	NaN	NaN	NaN	NaN	NaN
792.6172086999995	0.0334	sub-16	1	sequence	interval	dot	NaN	NaN	NaN	NaN	NaN	NaN	NaN	NaN	NaN	NaN	NaN	NaN
792.6505919000001	0.0999	sub-16	1	sequence	stimulus	Schuh	NaN	NaN	32.0	NaN	NaN	4.0	2.0	NaN	NaN	NaN	NaN	NaN
792.7505269999992	0.0336	sub-16	1	sequence	interval	dot	NaN	NaN	NaN	NaN	NaN	NaN	NaN	NaN	NaN	NaN	NaN	NaN
792.7841023999999	0.0999	sub-16	1	sequence	stimulus	Haus	NaN	NaN	32.0	NaN	NaN	2.0	3.0	NaN	NaN	NaN	NaN	NaN
792.8840341999994	0.0335	sub-16	1	sequence	interval	dot	NaN	NaN	NaN	NaN	NaN	NaN	NaN	NaN	NaN	NaN	NaN	NaN
792.9175728999999	0.0998	sub-16	1	sequence	stimulus	Gesicht	NaN	NaN	32.0	NaN	NaN	1.0	4.0	NaN	NaN	NaN	NaN	NaN
793.0174133	0.0335	sub-16	1	sequence	interval	dot	NaN	NaN	NaN	NaN	NaN	NaN	NaN	NaN	NaN	NaN	NaN	NaN
793.0508756999998	0.1	sub-16	1	sequence	stimulus	Katze	NaN	NaN	32.0	NaN	NaN	3.0	5.0	NaN	NaN	NaN	NaN	NaN
793.1508500999998	0.0335	sub-16	1	sequence	interval	dot	NaN	NaN	NaN	NaN	NaN	NaN	NaN	NaN	NaN	NaN	NaN	NaN
793.1843119999994	8.538	sub-16	1	sequence	delay	dot	NaN	NaN	NaN	NaN	NaN	NaN	NaN	NaN	NaN	NaN	NaN	NaN
801.6978739999995	0.6442	sub-16	1	sequence	choice	choice	right	NaN	NaN	0.6035658000000694	True	NaN	NaN	right	True	2.0	5.0	5.0
802.3423033999998	0.4999	sub-16	1	sequence	feedback	NaN	NaN	NaN	NaN	NaN	NaN	NaN	NaN	NaN	NaN	NaN	NaN	NaN
802.8423515999993	1.0007	sub-16	1	sequence	cue	Stuhl	NaN	NaN	NaN	NaN	NaN	NaN	NaN	NaN	NaN	NaN	NaN	NaN
803.8430275000001	2.0017	sub-16	1	sequence	blank	blank	NaN	NaN	NaN	NaN	NaN	NaN	NaN	NaN	NaN	NaN	NaN	NaN
805.8446919999997	0.3002	sub-16	1	sequence	fixation	dot	NaN	NaN	NaN	NaN	NaN	NaN	NaN	NaN	NaN	NaN	NaN	NaN
806.1633744000001	0.1149	sub-16	1	sequence	stimulus	Katze	NaN	NaN	64.0	NaN	NaN	3.0	1.0	NaN	NaN	NaN	NaN	NaN
806.2782967999992	0.0668	sub-16	1	sequence	interval	dot	NaN	NaN	NaN	NaN	NaN	NaN	NaN	NaN	NaN	NaN	NaN	NaN
806.3450794	0.0999	sub-16	1	sequence	stimulus	Schuh	NaN	NaN	64.0	NaN	NaN	4.0	2.0	NaN	NaN	NaN	NaN	NaN
806.4449655999997	0.0668	sub-16	1	sequence	interval	dot	NaN	NaN	NaN	NaN	NaN	NaN	NaN	NaN	NaN	NaN	NaN	NaN
806.5117851999994	0.1	sub-16	1	sequence	stimulus	Stuhl	NaN	NaN	64.0	NaN	NaN	5.0	3.0	NaN	NaN	NaN	NaN	NaN
806.6117464999998	0.0669	sub-16	1	sequence	interval	dot	NaN	NaN	NaN	NaN	NaN	NaN	NaN	NaN	NaN	NaN	NaN	NaN
806.6786257999993	0.0999	sub-16	1	sequence	stimulus	Haus	NaN	NaN	64.0	NaN	NaN	2.0	4.0	NaN	NaN	NaN	NaN	NaN
806.7785513999997	0.0668	sub-16	1	sequence	interval	dot	NaN	NaN	NaN	NaN	NaN	NaN	NaN	NaN	NaN	NaN	NaN	NaN
806.8453695999997	0.1	sub-16	1	sequence	stimulus	Gesicht	NaN	NaN	64.0	NaN	NaN	1.0	5.0	NaN	NaN	NaN	NaN	NaN
806.9453226999995	0.0668	sub-16	1	sequence	interval	dot	NaN	NaN	NaN	NaN	NaN	NaN	NaN	NaN	NaN	NaN	NaN	NaN
807.0121130999996	8.3879	sub-16	1	sequence	delay	dot	NaN	NaN	NaN	NaN	NaN	NaN	NaN	NaN	NaN	NaN	NaN	NaN
815.3735634999994	0.7461	sub-16	1	sequence	choice	choice	right	NaN	NaN	0.7181488000005629	True	NaN	NaN	right	True	4.0	3.0	3.0
816.1199317	0.5	sub-16	1	sequence	feedback	NaN	NaN	NaN	NaN	NaN	NaN	NaN	NaN	NaN	NaN	NaN	NaN	NaN
816.6201568999995	1.0005	sub-16	1	sequence	cue	Schuh	NaN	NaN	NaN	NaN	NaN	NaN	NaN	NaN	NaN	NaN	NaN	NaN
817.6206843999998	2.0016	sub-16	1	sequence	blank	blank	NaN	NaN	NaN	NaN	NaN	NaN	NaN	NaN	NaN	NaN	NaN	NaN
819.6222658999995	0.3003	sub-16	1	sequence	fixation	dot	NaN	NaN	NaN	NaN	NaN	NaN	NaN	NaN	NaN	NaN	NaN	NaN
819.9408150999998	0.1151	sub-16	1	sequence	stimulus	Haus	NaN	NaN	512.0	NaN	NaN	2.0	1.0	NaN	NaN	NaN	NaN	NaN
820.0559315	0.5172	sub-16	1	sequence	interval	dot	NaN	NaN	NaN	NaN	NaN	NaN	NaN	NaN	NaN	NaN	NaN	NaN
820.5731187000001	0.1	sub-16	1	sequence	stimulus	Katze	NaN	NaN	512.0	NaN	NaN	3.0	2.0	NaN	NaN	NaN	NaN	NaN
820.6730926	0.5172	sub-16	1	sequence	interval	dot	NaN	NaN	NaN	NaN	NaN	NaN	NaN	NaN	NaN	NaN	NaN	NaN
821.1902725	0.1	sub-16	1	sequence	stimulus	Stuhl	NaN	NaN	512.0	NaN	NaN	5.0	3.0	NaN	NaN	NaN	NaN	NaN
821.2902808999997	0.5173	sub-16	1	sequence	interval	dot	NaN	NaN	NaN	NaN	NaN	NaN	NaN	NaN	NaN	NaN	NaN	NaN
821.8075848999997	0.0998	sub-16	1	sequence	stimulus	Schuh	NaN	NaN	512.0	NaN	NaN	4.0	4.0	NaN	NaN	NaN	NaN	NaN
821.9074276000001	0.5173	sub-16	1	sequence	interval	dot	NaN	NaN	NaN	NaN	NaN	NaN	NaN	NaN	NaN	NaN	NaN	NaN
822.4246912999997	0.1	sub-16	1	sequence	stimulus	Gesicht	NaN	NaN	512.0	NaN	NaN	1.0	5.0	NaN	NaN	NaN	NaN	NaN
822.5246518999993	0.5171	sub-16	1	sequence	interval	dot	NaN	NaN	NaN	NaN	NaN	NaN	NaN	NaN	NaN	NaN	NaN	NaN
823.0417935999994	6.1526	sub-16	1	sequence	delay	dot	NaN	NaN	NaN	NaN	NaN	NaN	NaN	NaN	NaN	NaN	NaN	NaN
829.1792306999996	0.7016	sub-16	1	sequence	choice	choice	right	NaN	NaN	0.6754468999997698	True	NaN	NaN	right	True	3.0	4.0	4.0
829.8810508999995	0.5001	sub-16	1	sequence	feedback	NaN	NaN	NaN	NaN	NaN	NaN	NaN	NaN	NaN	NaN	NaN	NaN	NaN
830.3813465999992	1.0005	sub-16	1	sequence	cue	Schuh	NaN	NaN	NaN	NaN	NaN	NaN	NaN	NaN	NaN	NaN	NaN	NaN
831.3818408999996	2.0015	sub-16	1	sequence	blank	blank	NaN	NaN	NaN	NaN	NaN	NaN	NaN	NaN	NaN	NaN	NaN	NaN
833.3833944999997	0.3003	sub-16	1	sequence	fixation	dot	NaN	NaN	NaN	NaN	NaN	NaN	NaN	NaN	NaN	NaN	NaN	NaN
833.7012248999999	0.0992	sub-16	1	sequence	stimulus	Haus	NaN	NaN	32.0	NaN	NaN	2.0	1.0	NaN	NaN	NaN	NaN	NaN
833.8004605999995	0.0334	sub-16	1	sequence	interval	dot	NaN	NaN	NaN	NaN	NaN	NaN	NaN	NaN	NaN	NaN	NaN	NaN
833.8338390999998	0.1	sub-16	1	sequence	stimulus	Gesicht	NaN	NaN	32.0	NaN	NaN	1.0	2.0	NaN	NaN	NaN	NaN	NaN
833.9338192999994	0.0336	sub-16	1	sequence	interval	dot	NaN	NaN	NaN	NaN	NaN	NaN	NaN	NaN	NaN	NaN	NaN	NaN
833.9673849000001	0.0999	sub-16	1	sequence	stimulus	Stuhl	NaN	NaN	32.0	NaN	NaN	5.0	3.0	NaN	NaN	NaN	NaN	NaN
834.0672740999998	0.0335	sub-16	1	sequence	interval	dot	NaN	NaN	NaN	NaN	NaN	NaN	NaN	NaN	NaN	NaN	NaN	NaN
834.1007847999999	0.1	sub-16	1	sequence	stimulus	Katze	NaN	NaN	32.0	NaN	NaN	3.0	4.0	NaN	NaN	NaN	NaN	NaN
834.2007476999997	0.0334	sub-16	1	sequence	interval	dot	NaN	NaN	NaN	NaN	NaN	NaN	NaN	NaN	NaN	NaN	NaN	NaN
834.2341804999996	0.1	sub-16	1	sequence	stimulus	Schuh	NaN	NaN	32.0	NaN	NaN	4.0	5.0	NaN	NaN	NaN	NaN	NaN
834.3341646999997	0.0333	sub-16	1	sequence	interval	dot	NaN	NaN	NaN	NaN	NaN	NaN	NaN	NaN	NaN	NaN	NaN	NaN
834.3674897000001	8.538	sub-16	1	sequence	delay	dot	NaN	NaN	NaN	NaN	NaN	NaN	NaN	NaN	NaN	NaN	NaN	NaN
842.8809363	0.6943	sub-16	1	sequence	choice	choice	left	NaN	NaN	0.668380399999478	True	NaN	NaN	left	True	5.0	4.0	5.0
843.5754846999998	0.5	sub-16	1	sequence	feedback	NaN	NaN	NaN	NaN	NaN	NaN	NaN	NaN	NaN	NaN	NaN	NaN	NaN
844.0758419999993	17.8474	sub-16	1	other	break	break	NaN	NaN	NaN	NaN	NaN	NaN	NaN	NaN	NaN	NaN	NaN	NaN
865.7437279999995	0.5138	sub-16	1	localizer	stimulus	Stuhl	NaN	0	2.2517832999992606	NaN	True	NaN	NaN	NaN	NaN	NaN	NaN	NaN
866.2435108	2.2518	sub-16	1	localizer	blank	interval	NaN	NaN	NaN	NaN	NaN	NaN	NaN	NaN	NaN	NaN	NaN	NaN
868.7963917999996	0.4994	sub-16	1	localizer	stimulus	Stuhl	NaN	180	2.7687591999992947	0.3934541999997236	True	NaN	NaN	NaN	NaN	NaN	NaN	NaN
869.27927	2.7688	sub-16	1	localizer	blank	interval	NaN	NaN	NaN	NaN	NaN	NaN	NaN	NaN	NaN	NaN	NaN	NaN
872.3490906999996	0.4995	sub-16	1	localizer	stimulus	Gesicht	NaN	0	2.7688263000000006	NaN	True	NaN	NaN	NaN	NaN	NaN	NaN	NaN
872.8320558999994	2.7688	sub-16	1	localizer	blank	interval	NaN	NaN	NaN	NaN	NaN	NaN	NaN	NaN	NaN	NaN	NaN	NaN
875.9019386999998	0.4996	sub-16	1	localizer	stimulus	Stuhl	NaN	0	1.768005799999628	NaN	True	NaN	NaN	NaN	NaN	NaN	NaN	NaN
876.3849203999998	1.768	sub-16	1	localizer	blank	interval	NaN	NaN	NaN	NaN	NaN	NaN	NaN	NaN	NaN	NaN	NaN	NaN
878.4540051999993	0.4995	sub-16	1	localizer	stimulus	Katze	NaN	0	1.9511953000001085	NaN	True	NaN	NaN	NaN	NaN	NaN	NaN	NaN
878.9372636999997	1.9512	sub-16	1	localizer	blank	interval	NaN	NaN	NaN	NaN	NaN	NaN	NaN	NaN	NaN	NaN	NaN	NaN
881.1895869999998	0.4995	sub-16	1	localizer	stimulus	Haus	NaN	0	1.9347314999995433	NaN	True	NaN	NaN	NaN	NaN	NaN	NaN	NaN
881.6726037999997	1.9347	sub-16	1	localizer	blank	interval	NaN	NaN	NaN	NaN	NaN	NaN	NaN	NaN	NaN	NaN	NaN	NaN
883.9084905999998	0.4995	sub-16	1	localizer	stimulus	Schuh	NaN	0	2.735654899999645	NaN	True	NaN	NaN	NaN	NaN	NaN	NaN	NaN
884.3913880999999	2.7357	sub-16	1	localizer	blank	interval	NaN	NaN	NaN	NaN	NaN	NaN	NaN	NaN	NaN	NaN	NaN	NaN
887.4253149999995	0.5024	sub-16	1	localizer	stimulus	Gesicht	NaN	180	1.6507226000003357	0.5005918999995629	True	NaN	NaN	NaN	NaN	NaN	NaN	NaN
887.9116122999994	1.6507	sub-16	1	localizer	blank	interval	NaN	NaN	NaN	NaN	NaN	NaN	NaN	NaN	NaN	NaN	NaN	NaN
889.8634162999997	0.4994	sub-16	1	localizer	stimulus	Katze	NaN	0	3.0023279999995793	NaN	True	NaN	NaN	NaN	NaN	NaN	NaN	NaN
890.3462731999998	3.0023	sub-16	1	localizer	blank	interval	NaN	NaN	NaN	NaN	NaN	NaN	NaN	NaN	NaN	NaN	NaN	NaN
893.6496481999993	0.4995	sub-16	1	localizer	stimulus	Stuhl	NaN	0	2.852195500000562	NaN	True	NaN	NaN	NaN	NaN	NaN	NaN	NaN
894.1326519999993	2.8522	sub-16	1	localizer	blank	interval	NaN	NaN	NaN	NaN	NaN	NaN	NaN	NaN	NaN	NaN	NaN	NaN
897.2859395999994	0.4996	sub-16	1	localizer	stimulus	Schuh	NaN	180	2.5018755999999485	0.5038835000004838	True	NaN	NaN	NaN	NaN	NaN	NaN	NaN
897.7688961999993	2.5019	sub-16	1	localizer	blank	interval	NaN	NaN	NaN	NaN	NaN	NaN	NaN	NaN	NaN	NaN	NaN	NaN
900.5718606999999	0.4996	sub-16	1	localizer	stimulus	Schuh	NaN	0	2.0965108999999984	NaN	True	NaN	NaN	NaN	NaN	NaN	NaN	NaN
901.0600309	2.0965	sub-16	1	localizer	blank	interval	NaN	NaN	NaN	NaN	NaN	NaN	NaN	NaN	NaN	NaN	NaN	NaN
903.4575458	0.4997	sub-16	1	localizer	stimulus	Katze	NaN	180	2.335156000000211	0.5243798000001334	True	NaN	NaN	NaN	NaN	NaN	NaN	NaN
903.9405480999994	2.3352	sub-16	1	localizer	blank	interval	NaN	NaN	NaN	NaN	NaN	NaN	NaN	NaN	NaN	NaN	NaN	NaN
906.57683	0.4996	sub-16	1	localizer	stimulus	Schuh	NaN	0	3.6860068000005413	NaN	True	NaN	NaN	NaN	NaN	NaN	NaN	NaN
907.0601136999994	3.686	sub-16	1	localizer	blank	interval	NaN	NaN	NaN	NaN	NaN	NaN	NaN	NaN	NaN	NaN	NaN	NaN
911.0472836	0.4993	sub-16	1	localizer	stimulus	Haus	NaN	0	2.0347906999995757	NaN	True	NaN	NaN	NaN	NaN	NaN	NaN	NaN
911.5300975	2.0348	sub-16	1	localizer	blank	interval	NaN	NaN	NaN	NaN	NaN	NaN	NaN	NaN	NaN	NaN	NaN	NaN
913.8659757999994	0.4996	sub-16	1	localizer	stimulus	Katze	NaN	0	2.318421799999669	NaN	True	NaN	NaN	NaN	NaN	NaN	NaN	NaN
914.3489761	2.3184	sub-16	1	localizer	blank	interval	NaN	NaN	NaN	NaN	NaN	NaN	NaN	NaN	NaN	NaN	NaN	NaN
916.9684954999992	0.4996	sub-16	1	localizer	stimulus	Katze	NaN	0	1.9681331000001592	NaN	True	NaN	NaN	NaN	NaN	NaN	NaN	NaN
917.4515161999998	1.9681	sub-16	1	localizer	blank	interval	NaN	NaN	NaN	NaN	NaN	NaN	NaN	NaN	NaN	NaN	NaN	NaN
919.7207411999998	0.4995	sub-16	1	localizer	stimulus	Gesicht	NaN	0	1.4344193000003997	NaN	True	NaN	NaN	NaN	NaN	NaN	NaN	NaN
920.2037408999996	1.4344	sub-16	1	localizer	blank	interval	NaN	NaN	NaN	NaN	NaN	NaN	NaN	NaN	NaN	NaN	NaN	NaN
921.9391511999992	0.4996	sub-16	1	localizer	stimulus	Gesicht	NaN	0	3.0356555999995862	NaN	True	NaN	NaN	NaN	NaN	NaN	NaN	NaN
922.4221854999996	3.0357	sub-16	1	localizer	blank	interval	NaN	NaN	NaN	NaN	NaN	NaN	NaN	NaN	NaN	NaN	NaN	NaN
925.7589342	0.4996	sub-16	1	localizer	stimulus	Schuh	NaN	0	2.435302500000148	NaN	True	NaN	NaN	NaN	NaN	NaN	NaN	NaN
926.2420011999992	2.4353	sub-16	1	localizer	blank	interval	NaN	NaN	NaN	NaN	NaN	NaN	NaN	NaN	NaN	NaN	NaN	NaN
928.9782442999996	0.4996	sub-16	1	localizer	stimulus	Stuhl	NaN	0	2.0516200000001845	NaN	True	NaN	NaN	NaN	NaN	NaN	NaN	NaN
929.4613474999996	2.0516	sub-16	1	localizer	blank	interval	NaN	NaN	NaN	NaN	NaN	NaN	NaN	NaN	NaN	NaN	NaN	NaN
931.8141212	0.4994	sub-16	1	localizer	stimulus	Haus	NaN	180	2.8521319999999832	0.4076826999998957	True	NaN	NaN	NaN	NaN	NaN	NaN	NaN
932.2969434999997	2.8521	sub-16	1	localizer	blank	interval	NaN	NaN	NaN	NaN	NaN	NaN	NaN	NaN	NaN	NaN	NaN	NaN
935.4501111	0.4996	sub-16	1	localizer	stimulus	Haus	NaN	0	2.8188285999993923	NaN	True	NaN	NaN	NaN	NaN	NaN	NaN	NaN
935.9331346999998	2.8188	sub-16	1	localizer	blank	interval	NaN	NaN	NaN	NaN	NaN	NaN	NaN	NaN	NaN	NaN	NaN	NaN
939.0530247999995	0.4996	sub-16	1	localizer	stimulus	Gesicht	NaN	0	3.2190768000001526	NaN	True	NaN	NaN	NaN	NaN	NaN	NaN	NaN
939.5360888999994	3.2191	sub-16	1	localizer	blank	interval	NaN	NaN	NaN	NaN	NaN	NaN	NaN	NaN	NaN	NaN	NaN	NaN
943.0563124	0.4996	sub-16	1	localizer	stimulus	Haus	NaN	0	2.1182015000003958	NaN	True	NaN	NaN	NaN	NaN	NaN	NaN	NaN
943.5392968999996	2.1182	sub-16	1	localizer	blank	interval	NaN	NaN	NaN	NaN	NaN	NaN	NaN	NaN	NaN	NaN	NaN	NaN
949.1441484999996	1.0008	sub-16	1	sequence	cue	Schuh	NaN	NaN	NaN	NaN	NaN	NaN	NaN	NaN	NaN	NaN	NaN	NaN
950.1450016999996	2.0014	sub-16	1	sequence	blank	blank	NaN	NaN	NaN	NaN	NaN	NaN	NaN	NaN	NaN	NaN	NaN	NaN
952.1464496	0.3002	sub-16	1	sequence	fixation	dot	NaN	NaN	NaN	NaN	NaN	NaN	NaN	NaN	NaN	NaN	NaN	NaN
952.4640172999998	0.0994	sub-16	1	sequence	stimulus	Gesicht	NaN	NaN	64.0	NaN	NaN	1.0	1.0	NaN	NaN	NaN	NaN	NaN
952.5633855999996	0.0668	sub-16	1	sequence	interval	dot	NaN	NaN	NaN	NaN	NaN	NaN	NaN	NaN	NaN	NaN	NaN	NaN
952.6301978	0.0999	sub-16	1	sequence	stimulus	Haus	NaN	NaN	64.0	NaN	NaN	2.0	2.0	NaN	NaN	NaN	NaN	NaN
952.7301179999996	0.0668	sub-16	1	sequence	interval	dot	NaN	NaN	NaN	NaN	NaN	NaN	NaN	NaN	NaN	NaN	NaN	NaN
952.7969575999996	0.1	sub-16	1	sequence	stimulus	Katze	NaN	NaN	64.0	NaN	NaN	3.0	3.0	NaN	NaN	NaN	NaN	NaN
952.8969366	0.0668	sub-16	1	sequence	interval	dot	NaN	NaN	NaN	NaN	NaN	NaN	NaN	NaN	NaN	NaN	NaN	NaN
952.9636953	0.0999	sub-16	1	sequence	stimulus	Schuh	NaN	NaN	64.0	NaN	NaN	4.0	4.0	NaN	NaN	NaN	NaN	NaN
953.0635807999996	0.0668	sub-16	1	sequence	interval	dot	NaN	NaN	NaN	NaN	NaN	NaN	NaN	NaN	NaN	NaN	NaN	NaN
953.1304142	0.0999	sub-16	1	sequence	stimulus	Stuhl	NaN	NaN	64.0	NaN	NaN	5.0	5.0	NaN	NaN	NaN	NaN	NaN
953.2302953999996	0.0668	sub-16	1	sequence	interval	dot	NaN	NaN	NaN	NaN	NaN	NaN	NaN	NaN	NaN	NaN	NaN	NaN
953.2970559999994	8.3879	sub-16	1	sequence	delay	dot	NaN	NaN	NaN	NaN	NaN	NaN	NaN	NaN	NaN	NaN	NaN	NaN
961.6722682999998	0.6656	sub-16	1	sequence	choice	choice	right	NaN	NaN	0.6491844000001947	True	NaN	NaN	right	True	5.0	4.0	4.0
962.3382015999996	0.5	sub-16	1	sequence	feedback	NaN	NaN	NaN	NaN	NaN	NaN	NaN	NaN	NaN	NaN	NaN	NaN	NaN
962.8384010999998	1.0006	sub-16	1	sequence	cue	Stuhl	NaN	NaN	NaN	NaN	NaN	NaN	NaN	NaN	NaN	NaN	NaN	NaN
963.8390426999996	2.0016	sub-16	1	sequence	blank	blank	NaN	NaN	NaN	NaN	NaN	NaN	NaN	NaN	NaN	NaN	NaN	NaN
965.8406040999998	0.3003	sub-16	1	sequence	fixation	dot	NaN	NaN	NaN	NaN	NaN	NaN	NaN	NaN	NaN	NaN	NaN	NaN
966.1590963	0.1151	sub-16	1	sequence	stimulus	Haus	NaN	NaN	512.0	NaN	NaN	2.0	1.0	NaN	NaN	NaN	NaN	NaN
966.2742173999997	0.5172	sub-16	1	sequence	interval	dot	NaN	NaN	NaN	NaN	NaN	NaN	NaN	NaN	NaN	NaN	NaN	NaN
966.7914105999998	0.1	sub-16	1	sequence	stimulus	Katze	NaN	NaN	512.0	NaN	NaN	3.0	2.0	NaN	NaN	NaN	NaN	NaN
966.8913957999994	0.5171	sub-16	1	sequence	interval	dot	NaN	NaN	NaN	NaN	NaN	NaN	NaN	NaN	NaN	NaN	NaN	NaN
967.4085275999996	0.1	sub-16	1	sequence	stimulus	Stuhl	NaN	NaN	512.0	NaN	NaN	5.0	3.0	NaN	NaN	NaN	NaN	NaN
967.5085167999996	0.5172	sub-16	1	sequence	interval	dot	NaN	NaN	NaN	NaN	NaN	NaN	NaN	NaN	NaN	NaN	NaN	NaN
968.0257447999992	0.1	sub-16	1	sequence	stimulus	Schuh	NaN	NaN	512.0	NaN	NaN	4.0	4.0	NaN	NaN	NaN	NaN	NaN
968.1257085999996	0.5173	sub-16	1	sequence	interval	dot	NaN	NaN	NaN	NaN	NaN	NaN	NaN	NaN	NaN	NaN	NaN	NaN
968.64297	0.0999	sub-16	1	sequence	stimulus	Gesicht	NaN	NaN	512.0	NaN	NaN	1.0	5.0	NaN	NaN	NaN	NaN	NaN
968.74287	0.5171	sub-16	1	sequence	interval	dot	NaN	NaN	NaN	NaN	NaN	NaN	NaN	NaN	NaN	NaN	NaN	NaN
969.2599771999994	6.1527	sub-16	1	sequence	delay	dot	NaN	NaN	NaN	NaN	NaN	NaN	NaN	NaN	NaN	NaN	NaN	NaN
975.3999897999992	0.549	sub-16	1	sequence	choice	choice	left	NaN	NaN	0.5210684999992736	True	NaN	NaN	left	True	3.0	1.0	3.0
975.9492219999992	0.4999	sub-16	1	sequence	feedback	NaN	NaN	NaN	NaN	NaN	NaN	NaN	NaN	NaN	NaN	NaN	NaN	NaN
976.4492535	1.0007	sub-16	1	sequence	cue	Stuhl	NaN	NaN	NaN	NaN	NaN	NaN	NaN	NaN	NaN	NaN	NaN	NaN
977.4499353	2.0016	sub-16	1	sequence	blank	blank	NaN	NaN	NaN	NaN	NaN	NaN	NaN	NaN	NaN	NaN	NaN	NaN
979.4515451999996	0.3002	sub-16	1	sequence	fixation	dot	NaN	NaN	NaN	NaN	NaN	NaN	NaN	NaN	NaN	NaN	NaN	NaN
979.7701094999992	0.1152	sub-16	1	sequence	stimulus	Katze	NaN	NaN	64.0	NaN	NaN	3.0	1.0	NaN	NaN	NaN	NaN	NaN
979.8853485999998	0.0667	sub-16	1	sequence	interval	dot	NaN	NaN	NaN	NaN	NaN	NaN	NaN	NaN	NaN	NaN	NaN	NaN
979.9520372999996	0.1	sub-16	1	sequence	stimulus	Schuh	NaN	NaN	64.0	NaN	NaN	4.0	2.0	NaN	NaN	NaN	NaN	NaN
980.0519942	0.0668	sub-16	1	sequence	interval	dot	NaN	NaN	NaN	NaN	NaN	NaN	NaN	NaN	NaN	NaN	NaN	NaN
980.1188429999992	0.1	sub-16	1	sequence	stimulus	Stuhl	NaN	NaN	64.0	NaN	NaN	5.0	3.0	NaN	NaN	NaN	NaN	NaN
980.2188326999994	0.0668	sub-16	1	sequence	interval	dot	NaN	NaN	NaN	NaN	NaN	NaN	NaN	NaN	NaN	NaN	NaN	NaN
980.2856456	0.0999	sub-16	1	sequence	stimulus	Haus	NaN	NaN	64.0	NaN	NaN	2.0	4.0	NaN	NaN	NaN	NaN	NaN
980.3855915999992	0.0669	sub-16	1	sequence	interval	dot	NaN	NaN	NaN	NaN	NaN	NaN	NaN	NaN	NaN	NaN	NaN	NaN
980.4524992999995	0.0999	sub-16	1	sequence	stimulus	Gesicht	NaN	NaN	64.0	NaN	NaN	1.0	5.0	NaN	NaN	NaN	NaN	NaN
980.5524129999994	0.0667	sub-16	1	sequence	interval	dot	NaN	NaN	NaN	NaN	NaN	NaN	NaN	NaN	NaN	NaN	NaN	NaN
980.6191479	8.3712	sub-16	1	sequence	delay	dot	NaN	NaN	NaN	NaN	NaN	NaN	NaN	NaN	NaN	NaN	NaN	NaN
988.9716806999996	0.8719	sub-16	1	sequence	choice	choice	left	NaN	NaN	0.8394810999998299	True	NaN	NaN	left	True	3.0	5.0	3.0
989.8438073999996	0.5	sub-16	1	sequence	feedback	NaN	NaN	NaN	NaN	NaN	NaN	NaN	NaN	NaN	NaN	NaN	NaN	NaN
990.3439512999994	1.0007	sub-16	1	sequence	cue	Stuhl	NaN	NaN	NaN	NaN	NaN	NaN	NaN	NaN	NaN	NaN	NaN	NaN
991.3446288999994	2.0019	sub-16	1	sequence	blank	blank	NaN	NaN	NaN	NaN	NaN	NaN	NaN	NaN	NaN	NaN	NaN	NaN
993.3464997	0.3001	sub-16	1	sequence	fixation	dot	NaN	NaN	NaN	NaN	NaN	NaN	NaN	NaN	NaN	NaN	NaN	NaN
993.6641413999996	0.0992	sub-16	1	sequence	stimulus	Haus	NaN	NaN	128.0	NaN	NaN	2.0	1.0	NaN	NaN	NaN	NaN	NaN
993.7633296999992	0.1335	sub-16	1	sequence	interval	dot	NaN	NaN	NaN	NaN	NaN	NaN	NaN	NaN	NaN	NaN	NaN	NaN
993.8968650999996	0.1	sub-16	1	sequence	stimulus	Katze	NaN	NaN	128.0	NaN	NaN	3.0	2.0	NaN	NaN	NaN	NaN	NaN
993.9968285999994	0.1335	sub-16	1	sequence	interval	dot	NaN	NaN	NaN	NaN	NaN	NaN	NaN	NaN	NaN	NaN	NaN	NaN
994.1303371999992	0.1	sub-16	1	sequence	stimulus	Stuhl	NaN	NaN	128.0	NaN	NaN	5.0	3.0	NaN	NaN	NaN	NaN	NaN
994.2303419999998	0.1336	sub-16	1	sequence	interval	dot	NaN	NaN	NaN	NaN	NaN	NaN	NaN	NaN	NaN	NaN	NaN	NaN
994.3639167	0.1	sub-16	1	sequence	stimulus	Gesicht	NaN	NaN	128.0	NaN	NaN	1.0	4.0	NaN	NaN	NaN	NaN	NaN
994.4638962	0.1335	sub-16	1	sequence	interval	dot	NaN	NaN	NaN	NaN	NaN	NaN	NaN	NaN	NaN	NaN	NaN	NaN
994.5974092999996	0.0999	sub-16	1	sequence	stimulus	Schuh	NaN	NaN	128.0	NaN	NaN	4.0	5.0	NaN	NaN	NaN	NaN	NaN
994.6973485999996	0.1334	sub-16	1	sequence	interval	dot	NaN	NaN	NaN	NaN	NaN	NaN	NaN	NaN	NaN	NaN	NaN	NaN
994.8307858999996	8.0709	sub-16	1	sequence	delay	dot	NaN	NaN	NaN	NaN	NaN	NaN	NaN	NaN	NaN	NaN	NaN	NaN
1002.8814265	0.6732	sub-16	1	sequence	choice	choice	left	NaN	NaN	0.6401519000000917	True	NaN	NaN	left	True	3.0	5.0	3.0
1003.5548688	0.5	sub-16	1	sequence	feedback	NaN	NaN	NaN	NaN	NaN	NaN	NaN	NaN	NaN	NaN	NaN	NaN	NaN
1004.0550875999998	1.0006	sub-16	1	sequence	cue	Katze	NaN	NaN	NaN	NaN	NaN	NaN	NaN	NaN	NaN	NaN	NaN	NaN
1005.0556693	2.0015	sub-16	1	sequence	blank	blank	NaN	NaN	NaN	NaN	NaN	NaN	NaN	NaN	NaN	NaN	NaN	NaN
1007.0571790999992	0.3002	sub-16	1	sequence	fixation	dot	NaN	NaN	NaN	NaN	NaN	NaN	NaN	NaN	NaN	NaN	NaN	NaN
1007.3758627999996	0.115	sub-16	1	sequence	stimulus	Haus	NaN	NaN	32.0	NaN	NaN	2.0	1.0	NaN	NaN	NaN	NaN	NaN
1007.4908127999996	0.0335	sub-16	1	sequence	interval	dot	NaN	NaN	NaN	NaN	NaN	NaN	NaN	NaN	NaN	NaN	NaN	NaN
1007.5243495999994	0.0999	sub-16	1	sequence	stimulus	Gesicht	NaN	NaN	32.0	NaN	NaN	1.0	2.0	NaN	NaN	NaN	NaN	NaN
1007.6242896999992	0.0336	sub-16	1	sequence	interval	dot	NaN	NaN	NaN	NaN	NaN	NaN	NaN	NaN	NaN	NaN	NaN	NaN
1007.6578624999992	0.0999	sub-16	1	sequence	stimulus	Stuhl	NaN	NaN	32.0	NaN	NaN	5.0	3.0	NaN	NaN	NaN	NaN	NaN
1007.7577334999996	0.0335	sub-16	1	sequence	interval	dot	NaN	NaN	NaN	NaN	NaN	NaN	NaN	NaN	NaN	NaN	NaN	NaN
1007.7911847999994	0.1	sub-16	1	sequence	stimulus	Katze	NaN	NaN	32.0	NaN	NaN	3.0	4.0	NaN	NaN	NaN	NaN	NaN
1007.8911424999995	0.0335	sub-16	1	sequence	interval	dot	NaN	NaN	NaN	NaN	NaN	NaN	NaN	NaN	NaN	NaN	NaN	NaN
1007.9246468	0.1	sub-16	1	sequence	stimulus	Schuh	NaN	NaN	32.0	NaN	NaN	4.0	5.0	NaN	NaN	NaN	NaN	NaN
1008.0246737999996	0.0333	sub-16	1	sequence	interval	dot	NaN	NaN	NaN	NaN	NaN	NaN	NaN	NaN	NaN	NaN	NaN	NaN
1008.0579577999996	8.5381	sub-16	1	sequence	delay	dot	NaN	NaN	NaN	NaN	NaN	NaN	NaN	NaN	NaN	NaN	NaN	NaN
1016.5831179999996	0.6992	sub-16	1	sequence	choice	choice	right	NaN	NaN	0.6817841000001863	True	NaN	NaN	right	True	5.0	4.0	4.0
1017.2825777999996	0.5	sub-16	1	sequence	feedback	NaN	NaN	NaN	NaN	NaN	NaN	NaN	NaN	NaN	NaN	NaN	NaN	NaN
1017.7828307	1.0006	sub-16	1	sequence	cue	Gesicht	NaN	NaN	NaN	NaN	NaN	NaN	NaN	NaN	NaN	NaN	NaN	NaN
1018.7834113	2.0016	sub-16	1	sequence	blank	blank	NaN	NaN	NaN	NaN	NaN	NaN	NaN	NaN	NaN	NaN	NaN	NaN
1020.7850525999992	0.3003	sub-16	1	sequence	fixation	dot	NaN	NaN	NaN	NaN	NaN	NaN	NaN	NaN	NaN	NaN	NaN	NaN
1021.1177640999996	0.1009	sub-16	1	sequence	stimulus	Stuhl	NaN	NaN	32.0	NaN	NaN	5.0	1.0	NaN	NaN	NaN	NaN	NaN
1021.2186339	0.0335	sub-16	1	sequence	interval	dot	NaN	NaN	NaN	NaN	NaN	NaN	NaN	NaN	NaN	NaN	NaN	NaN
1021.252128	0.1	sub-16	1	sequence	stimulus	Schuh	NaN	NaN	32.0	NaN	NaN	4.0	2.0	NaN	NaN	NaN	NaN	NaN
1021.3521111	0.0334	sub-16	1	sequence	interval	dot	NaN	NaN	NaN	NaN	NaN	NaN	NaN	NaN	NaN	NaN	NaN	NaN
1021.3855477999996	0.0999	sub-16	1	sequence	stimulus	Haus	NaN	NaN	32.0	NaN	NaN	2.0	3.0	NaN	NaN	NaN	NaN	NaN
1021.48549	0.0336	sub-16	1	sequence	interval	dot	NaN	NaN	NaN	NaN	NaN	NaN	NaN	NaN	NaN	NaN	NaN	NaN
1021.5191058	0.1	sub-16	1	sequence	stimulus	Gesicht	NaN	NaN	32.0	NaN	NaN	1.0	4.0	NaN	NaN	NaN	NaN	NaN
1021.6190584999996	0.0334	sub-16	1	sequence	interval	dot	NaN	NaN	NaN	NaN	NaN	NaN	NaN	NaN	NaN	NaN	NaN	NaN
1021.6524536999996	0.1	sub-16	1	sequence	stimulus	Katze	NaN	NaN	32.0	NaN	NaN	3.0	5.0	NaN	NaN	NaN	NaN	NaN
1021.7524306999994	0.0333	sub-16	1	sequence	interval	dot	NaN	NaN	NaN	NaN	NaN	NaN	NaN	NaN	NaN	NaN	NaN	NaN
1021.7857478999996	8.5547	sub-16	1	sequence	delay	dot	NaN	NaN	NaN	NaN	NaN	NaN	NaN	NaN	NaN	NaN	NaN	NaN
1030.311174099999	0.7323	sub-16	1	sequence	choice	choice	right	NaN	NaN	0.6972648000000845	True	NaN	NaN	right	True	5.0	4.0	4.0
1031.0437042999993	0.5	sub-16	1	sequence	feedback	NaN	NaN	NaN	NaN	NaN	NaN	NaN	NaN	NaN	NaN	NaN	NaN	NaN
1031.5438814	1.0009	sub-16	1	sequence	cue	Katze	NaN	NaN	NaN	NaN	NaN	NaN	NaN	NaN	NaN	NaN	NaN	NaN
1032.5447469	1.9989	sub-16	1	sequence	blank	blank	NaN	NaN	NaN	NaN	NaN	NaN	NaN	NaN	NaN	NaN	NaN	NaN
1034.5436776999995	0.3028	sub-16	1	sequence	fixation	dot	NaN	NaN	NaN	NaN	NaN	NaN	NaN	NaN	NaN	NaN	NaN	NaN
1034.8640488	0.0993	sub-16	1	sequence	stimulus	Gesicht	NaN	NaN	512.0	NaN	NaN	1.0	1.0	NaN	NaN	NaN	NaN	NaN
1034.9633887999998	0.5171	sub-16	1	sequence	interval	dot	NaN	NaN	NaN	NaN	NaN	NaN	NaN	NaN	NaN	NaN	NaN	NaN
1035.4805043999995	0.0999	sub-16	1	sequence	stimulus	Haus	NaN	NaN	512.0	NaN	NaN	2.0	2.0	NaN	NaN	NaN	NaN	NaN
1035.5804426999994	0.5172	sub-16	1	sequence	interval	dot	NaN	NaN	NaN	NaN	NaN	NaN	NaN	NaN	NaN	NaN	NaN	NaN
1036.0976207999993	0.1	sub-16	1	sequence	stimulus	Stuhl	NaN	NaN	512.0	NaN	NaN	5.0	3.0	NaN	NaN	NaN	NaN	NaN
1036.1975806	0.5171	sub-16	1	sequence	interval	dot	NaN	NaN	NaN	NaN	NaN	NaN	NaN	NaN	NaN	NaN	NaN	NaN
1036.7147163999998	0.1	sub-16	1	sequence	stimulus	Schuh	NaN	NaN	512.0	NaN	NaN	4.0	4.0	NaN	NaN	NaN	NaN	NaN
1036.814734799999	0.5172	sub-16	1	sequence	interval	dot	NaN	NaN	NaN	NaN	NaN	NaN	NaN	NaN	NaN	NaN	NaN	NaN
1037.3319428999994	0.0998	sub-16	1	sequence	stimulus	Katze	NaN	NaN	512.0	NaN	NaN	3.0	5.0	NaN	NaN	NaN	NaN	NaN
1037.4317175999995	0.5171	sub-16	1	sequence	interval	dot	NaN	NaN	NaN	NaN	NaN	NaN	NaN	NaN	NaN	NaN	NaN	NaN
1037.9488020999995	6.1528	sub-16	1	sequence	delay	dot	NaN	NaN	NaN	NaN	NaN	NaN	NaN	NaN	NaN	NaN	NaN	NaN
1044.0905838999995	0.5806	sub-16	1	sequence	choice	choice	right	NaN	NaN	0.5601564999997208	True	NaN	NaN	right	True	4.0	5.0	5.0
1044.6714385999994	0.5	sub-16	1	sequence	feedback	NaN	NaN	NaN	NaN	NaN	NaN	NaN	NaN	NaN	NaN	NaN	NaN	NaN
1045.171684	1.0005	sub-16	1	sequence	cue	Katze	NaN	NaN	NaN	NaN	NaN	NaN	NaN	NaN	NaN	NaN	NaN	NaN
1046.1721818999995	2.0016	sub-16	1	sequence	blank	blank	NaN	NaN	NaN	NaN	NaN	NaN	NaN	NaN	NaN	NaN	NaN	NaN
1048.1737631999997	0.3003	sub-16	1	sequence	fixation	dot	NaN	NaN	NaN	NaN	NaN	NaN	NaN	NaN	NaN	NaN	NaN	NaN
1048.4929205999997	0.1145	sub-16	1	sequence	stimulus	Haus	NaN	NaN	128.0	NaN	NaN	2.0	1.0	NaN	NaN	NaN	NaN	NaN
1048.6074651999998	0.1336	sub-16	1	sequence	interval	dot	NaN	NaN	NaN	NaN	NaN	NaN	NaN	NaN	NaN	NaN	NaN	NaN
1048.7410283999998	0.1	sub-16	1	sequence	stimulus	Stuhl	NaN	NaN	128.0	NaN	NaN	5.0	2.0	NaN	NaN	NaN	NaN	NaN
1048.8409994999993	0.1335	sub-16	1	sequence	interval	dot	NaN	NaN	NaN	NaN	NaN	NaN	NaN	NaN	NaN	NaN	NaN	NaN
1048.9745017999994	0.1	sub-16	1	sequence	stimulus	Schuh	NaN	NaN	128.0	NaN	NaN	4.0	3.0	NaN	NaN	NaN	NaN	NaN
1049.074482	0.1336	sub-16	1	sequence	interval	dot	NaN	NaN	NaN	NaN	NaN	NaN	NaN	NaN	NaN	NaN	NaN	NaN
1049.2080659999992	0.0999	sub-16	1	sequence	stimulus	Katze	NaN	NaN	128.0	NaN	NaN	3.0	4.0	NaN	NaN	NaN	NaN	NaN
1049.3080081999997	0.1336	sub-16	1	sequence	interval	dot	NaN	NaN	NaN	NaN	NaN	NaN	NaN	NaN	NaN	NaN	NaN	NaN
1049.4416076999996	0.0999	sub-16	1	sequence	stimulus	Gesicht	NaN	NaN	128.0	NaN	NaN	1.0	5.0	NaN	NaN	NaN	NaN	NaN
1049.5415284	0.1334	sub-16	1	sequence	interval	dot	NaN	NaN	NaN	NaN	NaN	NaN	NaN	NaN	NaN	NaN	NaN	NaN
1049.6749503	8.0545	sub-16	1	sequence	delay	dot	NaN	NaN	NaN	NaN	NaN	NaN	NaN	NaN	NaN	NaN	NaN	NaN
1057.7141803999991	0.5179	sub-16	1	sequence	choice	choice	left	NaN	NaN	0.492349600000125	True	NaN	NaN	left	True	4.0	5.0	4.0
1058.2323227999996	0.5	sub-16	1	sequence	feedback	NaN	NaN	NaN	NaN	NaN	NaN	NaN	NaN	NaN	NaN	NaN	NaN	NaN
1062.5528655999997	0.4996	sub-16	1	localizer	stimulus	Schuh	NaN	0	2.7021063999998205	NaN	True	NaN	NaN	NaN	NaN	NaN	NaN	NaN
1063.0358928999997	2.7021	sub-16	1	localizer	blank	interval	NaN	NaN	NaN	NaN	NaN	NaN	NaN	NaN	NaN	NaN	NaN	NaN
1066.0390365999992	0.4996	sub-16	1	localizer	stimulus	Katze	NaN	0	2.18494389999978	NaN	True	NaN	NaN	NaN	NaN	NaN	NaN	NaN
1066.5220524999995	2.1849	sub-16	1	localizer	blank	interval	NaN	NaN	NaN	NaN	NaN	NaN	NaN	NaN	NaN	NaN	NaN	NaN
1069.0080837999994	0.4996	sub-16	1	localizer	stimulus	Katze	NaN	180	2.351790200000096	0.4055768999996871	True	NaN	NaN	NaN	NaN	NaN	NaN	NaN
1069.4910949999994	2.3518	sub-16	1	localizer	blank	interval	NaN	NaN	NaN	NaN	NaN	NaN	NaN	NaN	NaN	NaN	NaN	NaN
1072.144005	0.4995	sub-16	1	localizer	stimulus	Haus	NaN	0	3.469379800000752	NaN	True	NaN	NaN	NaN	NaN	NaN	NaN	NaN
1072.6270645999994	3.4694	sub-16	1	localizer	blank	interval	NaN	NaN	NaN	NaN	NaN	NaN	NaN	NaN	NaN	NaN	NaN	NaN
1076.3975480999998	0.4996	sub-16	1	localizer	stimulus	Gesicht	NaN	180	2.2181463000003987	0.5600639999993291	True	NaN	NaN	NaN	NaN	NaN	NaN	NaN
1076.8806128999995	2.2181	sub-16	1	localizer	blank	interval	NaN	NaN	NaN	NaN	NaN	NaN	NaN	NaN	NaN	NaN	NaN	NaN
1079.399848	0.4996	sub-16	1	localizer	stimulus	Katze	NaN	0	2.6020028000004913	NaN	True	NaN	NaN	NaN	NaN	NaN	NaN	NaN
1079.8828390999995	2.602	sub-16	1	localizer	blank	interval	NaN	NaN	NaN	NaN	NaN	NaN	NaN	NaN	NaN	NaN	NaN	NaN
1082.7859040999992	0.4996	sub-16	1	localizer	stimulus	Stuhl	NaN	0	2.3518009999995684	NaN	True	NaN	NaN	NaN	NaN	NaN	NaN	NaN
1083.2689087	2.3518	sub-16	1	localizer	blank	interval	NaN	NaN	NaN	NaN	NaN	NaN	NaN	NaN	NaN	NaN	NaN	NaN
1085.9217804999998	0.4996	sub-16	1	localizer	stimulus	Schuh	NaN	0	2.8688488000007055	NaN	True	NaN	NaN	NaN	NaN	NaN	NaN	NaN
1086.4048196999993	2.8688	sub-16	1	localizer	blank	interval	NaN	NaN	NaN	NaN	NaN	NaN	NaN	NaN	NaN	NaN	NaN	NaN
1089.5747692999994	0.4995	sub-16	1	localizer	stimulus	Gesicht	NaN	0	2.918916500000705	NaN	True	NaN	NaN	NaN	NaN	NaN	NaN	NaN
1090.0577558999994	2.9189	sub-16	1	localizer	blank	interval	NaN	NaN	NaN	NaN	NaN	NaN	NaN	NaN	NaN	NaN	NaN	NaN
1093.2777066999995	0.4996	sub-16	1	localizer	stimulus	Gesicht	NaN	0	2.4186038000009376	NaN	True	NaN	NaN	NaN	NaN	NaN	NaN	NaN
1093.760772199999	2.4186	sub-16	1	localizer	blank	interval	NaN	NaN	NaN	NaN	NaN	NaN	NaN	NaN	NaN	NaN	NaN	NaN
1096.4803016999997	0.4972	sub-16	1	localizer	stimulus	Schuh	NaN	0	1.6680117999994764	NaN	True	NaN	NaN	NaN	NaN	NaN	NaN	NaN
1096.9634551999998	1.668	sub-16	1	localizer	blank	interval	NaN	NaN	NaN	NaN	NaN	NaN	NaN	NaN	NaN	NaN	NaN	NaN
1098.9325222999996	0.4995	sub-16	1	localizer	stimulus	Stuhl	NaN	180	1.4508676000004925	0.4973132000004625	True	NaN	NaN	NaN	NaN	NaN	NaN	NaN
1099.4155033999996	1.4509	sub-16	1	localizer	blank	interval	NaN	NaN	NaN	NaN	NaN	NaN	NaN	NaN	NaN	NaN	NaN	NaN
1101.1674382	0.4996	sub-16	1	localizer	stimulus	Gesicht	NaN	0	2.6187174000008326	NaN	True	NaN	NaN	NaN	NaN	NaN	NaN	NaN
1101.6504308999993	2.6187	sub-16	1	localizer	blank	interval	NaN	NaN	NaN	NaN	NaN	NaN	NaN	NaN	NaN	NaN	NaN	NaN
1104.570264	0.4995	sub-16	1	localizer	stimulus	Haus	NaN	0	2.268363600000157	NaN	True	NaN	NaN	NaN	NaN	NaN	NaN	NaN
1105.0532201999995	2.2684	sub-16	1	localizer	blank	interval	NaN	NaN	NaN	NaN	NaN	NaN	NaN	NaN	NaN	NaN	NaN	NaN
1107.6226299999998	0.4996	sub-16	1	localizer	stimulus	Stuhl	NaN	0	2.6852896999998848	NaN	True	NaN	NaN	NaN	NaN	NaN	NaN	NaN
1108.1057633	2.6853	sub-16	1	localizer	blank	interval	NaN	NaN	NaN	NaN	NaN	NaN	NaN	NaN	NaN	NaN	NaN	NaN
