onset	duration	subject	session	condition	trial_type	stim_label	key_down	orientation	interval_time	response_time	accuracy	stim_index	serial_position	key_expected	key_pressed	choice_left	choice_right	choice_correct
1.3178129000007175	0.8919	sub-18	1	instruction	instruction	language_selection	german	NaN	NaN	NaN	NaN	NaN	NaN	NaN	NaN	NaN	NaN	NaN
32.81832300000042	0.4996	sub-18	1	localizer	stimulus	Katze	NaN	0	2.118192399999309	NaN	1.0	NaN	NaN	NaN	NaN	NaN	NaN	NaN
33.30128360000072	2.1182	sub-18	1	localizer	blank	interval	NaN	NaN	NaN	NaN	NaN	NaN	NaN	NaN	NaN	NaN	NaN	NaN
35.720560300000216	0.4996	sub-18	1	localizer	stimulus	Katze	NaN	0	2.8020643999998356	NaN	True	NaN	NaN	NaN	NaN	NaN	NaN	NaN
36.20367250000072	2.8021	sub-18	1	localizer	blank	interval	NaN	NaN	NaN	NaN	NaN	NaN	NaN	NaN	NaN	NaN	NaN	NaN
39.30684790000032	0.4995	sub-18	1	localizer	stimulus	Haus	NaN	0	2.01813570000013	NaN	True	NaN	NaN	NaN	NaN	NaN	NaN	NaN
39.78984870000022	2.0181	sub-18	1	localizer	blank	interval	NaN	NaN	NaN	NaN	NaN	NaN	NaN	NaN	NaN	NaN	NaN	NaN
42.10911700000088	0.4996	sub-18	1	localizer	stimulus	Katze	NaN	0	1.5679949999994278	NaN	True	NaN	NaN	NaN	NaN	NaN	NaN	NaN
42.59207050000077	1.568	sub-18	1	localizer	blank	interval	NaN	NaN	NaN	NaN	NaN	NaN	NaN	NaN	NaN	NaN	NaN	NaN
44.46095700000024	0.4998	sub-18	1	localizer	stimulus	Stuhl	NaN	0	2.7188992000001306	NaN	True	NaN	NaN	NaN	NaN	NaN	NaN	NaN
44.94407890000002	2.7189	sub-18	1	localizer	blank	interval	NaN	NaN	NaN	NaN	NaN	NaN	NaN	NaN	NaN	NaN	NaN	NaN
47.96393220000027	0.4995	sub-18	1	localizer	stimulus	Stuhl	NaN	180	3.285779200000441	0.6853886999997485	True	NaN	NaN	NaN	NaN	NaN	NaN	NaN
48.44692980000036	3.2858	sub-18	1	localizer	blank	interval	NaN	NaN	NaN	NaN	NaN	NaN	NaN	NaN	NaN	NaN	NaN	NaN
52.0339014000001	0.4995	sub-18	1	localizer	stimulus	Haus	NaN	0	1.9514497999998568	NaN	True	NaN	NaN	NaN	NaN	NaN	NaN	NaN
52.51685370000087	1.9514	sub-18	1	localizer	blank	interval	NaN	NaN	NaN	NaN	NaN	NaN	NaN	NaN	NaN	NaN	NaN	NaN
54.769267100000434	0.4996	sub-18	1	localizer	stimulus	Stuhl	NaN	0	2.3184127999993507	NaN	True	NaN	NaN	NaN	NaN	NaN	NaN	NaN
55.252323500000784	2.3184	sub-18	1	localizer	blank	interval	NaN	NaN	NaN	NaN	NaN	NaN	NaN	NaN	NaN	NaN	NaN	NaN
57.87180470000021	0.4996	sub-18	1	localizer	stimulus	Katze	NaN	0	3.152444800000005	NaN	True	NaN	NaN	NaN	NaN	NaN	NaN	NaN
58.35493980000047	3.1524	sub-18	1	localizer	blank	interval	NaN	NaN	NaN	NaN	NaN	NaN	NaN	NaN	NaN	NaN	NaN	NaN
61.80836790000012	0.4996	sub-18	1	localizer	stimulus	Gesicht	NaN	180	2.835653199999797	0.5929926999997406	True	NaN	NaN	NaN	NaN	NaN	NaN	NaN
62.29135260000021	2.8357	sub-18	1	localizer	blank	interval	NaN	NaN	NaN	NaN	NaN	NaN	NaN	NaN	NaN	NaN	NaN	NaN
65.42798900000071	0.4996	sub-18	1	localizer	stimulus	Gesicht	NaN	0	2.1328638000004503	NaN	True	NaN	NaN	NaN	NaN	NaN	NaN	NaN
65.91314760000023	2.1329	sub-18	1	localizer	blank	interval	NaN	NaN	NaN	NaN	NaN	NaN	NaN	NaN	NaN	NaN	NaN	NaN
68.34710440000072	0.4995	sub-18	1	localizer	stimulus	Haus	NaN	180	2.4018222000004243	0.4941660999993473	True	NaN	NaN	NaN	NaN	NaN	NaN	NaN
68.83009270000002	2.4018	sub-18	1	localizer	blank	interval	NaN	NaN	NaN	NaN	NaN	NaN	NaN	NaN	NaN	NaN	NaN	NaN
71.53291640000043	0.4995	sub-18	1	localizer	stimulus	Schuh	NaN	0	1.5178440000008777	NaN	True	NaN	NaN	NaN	NaN	NaN	NaN	NaN
72.01589530000001	1.5178	sub-18	1	localizer	blank	interval	NaN	NaN	NaN	NaN	NaN	NaN	NaN	NaN	NaN	NaN	NaN	NaN
73.8347362000004	0.4996	sub-18	1	localizer	stimulus	Haus	NaN	0	2.6187073000000964	NaN	True	NaN	NaN	NaN	NaN	NaN	NaN	NaN
74.31777730000067	2.6187	sub-18	1	localizer	blank	interval	NaN	NaN	NaN	NaN	NaN	NaN	NaN	NaN	NaN	NaN	NaN	NaN
77.23750500000006	0.4996	sub-18	1	localizer	stimulus	Haus	NaN	0	2.9355729999997493	NaN	True	NaN	NaN	NaN	NaN	NaN	NaN	NaN
77.72050840000065	2.9356	sub-18	1	localizer	blank	interval	NaN	NaN	NaN	NaN	NaN	NaN	NaN	NaN	NaN	NaN	NaN	NaN
80.95712860000003	0.4996	sub-18	1	localizer	stimulus	Gesicht	NaN	0	3.202350800000204	NaN	True	NaN	NaN	NaN	NaN	NaN	NaN	NaN
81.44026230000054	3.2024	sub-18	1	localizer	blank	interval	NaN	NaN	NaN	NaN	NaN	NaN	NaN	NaN	NaN	NaN	NaN	NaN
84.94383700000071	0.4995	sub-18	1	localizer	stimulus	Schuh	NaN	0	2.118390900000122	NaN	True	NaN	NaN	NaN	NaN	NaN	NaN	NaN
85.42691880000075	2.1184	sub-18	1	localizer	blank	interval	NaN	NaN	NaN	NaN	NaN	NaN	NaN	NaN	NaN	NaN	NaN	NaN
87.84629080000013	0.4997	sub-18	1	localizer	stimulus	Gesicht	NaN	0	2.8853488999993715	NaN	True	NaN	NaN	NaN	NaN	NaN	NaN	NaN
88.32938820000072	2.8853	sub-18	1	localizer	blank	interval	NaN	NaN	NaN	NaN	NaN	NaN	NaN	NaN	NaN	NaN	NaN	NaN
91.51568470000076	0.4996	sub-18	1	localizer	stimulus	Stuhl	NaN	0	2.60183040000085	NaN	True	NaN	NaN	NaN	NaN	NaN	NaN	NaN
91.9988856	2.6018	sub-18	1	localizer	blank	interval	NaN	NaN	NaN	NaN	NaN	NaN	NaN	NaN	NaN	NaN	NaN	NaN
94.90182620000088	0.4995	sub-18	1	localizer	stimulus	Schuh	NaN	0	2.2183092000004763	NaN	True	NaN	NaN	NaN	NaN	NaN	NaN	NaN
95.38479040000038	2.2183	sub-18	1	localizer	blank	interval	NaN	NaN	NaN	NaN	NaN	NaN	NaN	NaN	NaN	NaN	NaN	NaN
97.90414930000044	0.4997	sub-18	1	localizer	stimulus	Stuhl	NaN	0	2.068116100000225	NaN	True	NaN	NaN	NaN	NaN	NaN	NaN	NaN
98.38728570000058	2.0681	sub-18	1	localizer	blank	interval	NaN	NaN	NaN	NaN	NaN	NaN	NaN	NaN	NaN	NaN	NaN	NaN
100.7564852000005	0.4996	sub-18	1	localizer	stimulus	Gesicht	NaN	0	3.6527772999997836	NaN	True	NaN	NaN	NaN	NaN	NaN	NaN	NaN
101.23955540000044	3.6528	sub-18	1	localizer	blank	interval	NaN	NaN	NaN	NaN	NaN	NaN	NaN	NaN	NaN	NaN	NaN	NaN
105.19356220000007	0.5	sub-18	1	localizer	stimulus	Katze	NaN	180	2.118403200000074	0.5438871000005747	True	NaN	NaN	NaN	NaN	NaN	NaN	NaN
105.67653960000008	2.1184	sub-18	1	localizer	blank	interval	NaN	NaN	NaN	NaN	NaN	NaN	NaN	NaN	NaN	NaN	NaN	NaN
108.09580490000008	0.5001	sub-18	1	localizer	stimulus	Schuh	NaN	0	3.68587290000049	NaN	True	NaN	NaN	NaN	NaN	NaN	NaN	NaN
108.57903780000017	3.6859	sub-18	1	localizer	blank	interval	NaN	NaN	NaN	NaN	NaN	NaN	NaN	NaN	NaN	NaN	NaN	NaN
112.56602810000004	0.4996	sub-18	1	localizer	stimulus	Schuh	NaN	180	1.767884999999282	0.5153002000006381	True	NaN	NaN	NaN	NaN	NaN	NaN	NaN
113.04915490000076	1.7679	sub-18	1	localizer	blank	interval	NaN	NaN	NaN	NaN	NaN	NaN	NaN	NaN	NaN	NaN	NaN	NaN
118.30360360000032	1.0005	sub-18	1	sequence	cue	Schuh	NaN	NaN	NaN	NaN	NaN	NaN	NaN	NaN	NaN	NaN	NaN	NaN
119.3040933000002	2.0016	sub-18	1	sequence	blank	blank	NaN	NaN	NaN	NaN	NaN	NaN	NaN	NaN	NaN	NaN	NaN	NaN
121.30569650000052	0.3003	sub-18	1	sequence	fixation	dot	NaN	NaN	NaN	NaN	NaN	NaN	NaN	NaN	NaN	NaN	NaN	NaN
121.6711047000008	0.1016	sub-18	1	sequence	stimulus	Gesicht	NaN	NaN	64.0	NaN	NaN	1.0	1.0	NaN	NaN	NaN	NaN	NaN
121.77268200000071	0.0669	sub-18	1	sequence	interval	dot	NaN	NaN	NaN	NaN	NaN	NaN	NaN	NaN	NaN	NaN	NaN	NaN
121.8395560000008	0.0999	sub-18	1	sequence	stimulus	Schuh	NaN	NaN	64.0	NaN	NaN	4.0	2.0	NaN	NaN	NaN	NaN	NaN
121.9394553000002	0.0669	sub-18	1	sequence	interval	dot	NaN	NaN	NaN	NaN	NaN	NaN	NaN	NaN	NaN	NaN	NaN	NaN
122.00632030000088	0.0999	sub-18	1	sequence	stimulus	Stuhl	NaN	NaN	64.0	NaN	NaN	5.0	3.0	NaN	NaN	NaN	NaN	NaN
122.1062683	0.0669	sub-18	1	sequence	interval	dot	NaN	NaN	NaN	NaN	NaN	NaN	NaN	NaN	NaN	NaN	NaN	NaN
122.17312940000012	0.1	sub-18	1	sequence	stimulus	Haus	NaN	NaN	64.0	NaN	NaN	2.0	4.0	NaN	NaN	NaN	NaN	NaN
122.27315	0.0668	sub-18	1	sequence	interval	dot	NaN	NaN	NaN	NaN	NaN	NaN	NaN	NaN	NaN	NaN	NaN	NaN
122.33995810000032	0.1001	sub-18	1	sequence	stimulus	Katze	NaN	NaN	64.0	NaN	NaN	3.0	5.0	NaN	NaN	NaN	NaN	NaN
122.44005470000047	0.0667	sub-18	1	sequence	interval	dot	NaN	NaN	NaN	NaN	NaN	NaN	NaN	NaN	NaN	NaN	NaN	NaN
122.50679240000044	8.3883	sub-18	1	sequence	delay	dot	NaN	NaN	NaN	NaN	NaN	NaN	NaN	NaN	NaN	NaN	NaN	NaN
130.87194240000008	0.7923	sub-18	1	sequence	choice	choice	right	NaN	NaN	0.7623352999999042	True	NaN	NaN	right	1.0	4.0	2.0	2.0
131.66463270000077	0.4999	sub-18	1	sequence	feedback	NaN	NaN	NaN	NaN	NaN	NaN	NaN	NaN	NaN	NaN	NaN	NaN	NaN
132.1647296000001	1.0006	sub-18	1	sequence	cue	Katze	NaN	NaN	NaN	NaN	NaN	NaN	NaN	NaN	NaN	NaN	NaN	NaN
133.16530440000042	2.0015	sub-18	1	sequence	blank	blank	NaN	NaN	NaN	NaN	NaN	NaN	NaN	NaN	NaN	NaN	NaN	NaN
135.16681640000024	0.3004	sub-18	1	sequence	fixation	dot	NaN	NaN	NaN	NaN	NaN	NaN	NaN	NaN	NaN	NaN	NaN	NaN
135.4847574000005	0.0991	sub-18	1	sequence	stimulus	Gesicht	NaN	NaN	32.0	NaN	NaN	1.0	1.0	NaN	NaN	NaN	NaN	NaN
135.58382800000072	0.0335	sub-18	1	sequence	interval	dot	NaN	NaN	NaN	NaN	NaN	NaN	NaN	NaN	NaN	NaN	NaN	NaN
135.61732760000086	0.0999	sub-18	1	sequence	stimulus	Schuh	NaN	NaN	32.0	NaN	NaN	4.0	2.0	NaN	NaN	NaN	NaN	NaN
135.71727230000033	0.0335	sub-18	1	sequence	interval	dot	NaN	NaN	NaN	NaN	NaN	NaN	NaN	NaN	NaN	NaN	NaN	NaN
135.7507510000005	0.1	sub-18	1	sequence	stimulus	Stuhl	NaN	NaN	32.0	NaN	NaN	5.0	3.0	NaN	NaN	NaN	NaN	NaN
135.85078010000052	0.0333	sub-18	1	sequence	interval	dot	NaN	NaN	NaN	NaN	NaN	NaN	NaN	NaN	NaN	NaN	NaN	NaN
135.88410880000083	0.1	sub-18	1	sequence	stimulus	Katze	NaN	NaN	32.0	NaN	NaN	3.0	4.0	NaN	NaN	NaN	NaN	NaN
135.98415470000054	0.0336	sub-18	1	sequence	interval	dot	NaN	NaN	NaN	NaN	NaN	NaN	NaN	NaN	NaN	NaN	NaN	NaN
136.01770810000016	0.0999	sub-18	1	sequence	stimulus	Haus	NaN	NaN	32.0	NaN	NaN	2.0	5.0	NaN	NaN	NaN	NaN	NaN
136.1176557000008	0.0333	sub-18	1	sequence	interval	dot	NaN	NaN	NaN	NaN	NaN	NaN	NaN	NaN	NaN	NaN	NaN	NaN
136.1509912000001	8.5384	sub-18	1	sequence	delay	dot	NaN	NaN	NaN	NaN	NaN	NaN	NaN	NaN	NaN	NaN	NaN	NaN
144.6773516000003	1.2985	sub-18	1	sequence	choice	choice	right	NaN	NaN	1.2720761000000491	True	NaN	NaN	right	True	3.0	4.0	4.0
145.97608670000045	0.5166	sub-18	1	sequence	feedback	NaN	NaN	NaN	NaN	NaN	NaN	NaN	NaN	NaN	NaN	NaN	NaN	NaN
146.49290700000074	0.9841	sub-18	1	sequence	cue	Gesicht	NaN	NaN	NaN	NaN	NaN	NaN	NaN	NaN	NaN	NaN	NaN	NaN
147.47703300000012	2.0017	sub-18	1	sequence	blank	blank	NaN	NaN	NaN	NaN	NaN	NaN	NaN	NaN	NaN	NaN	NaN	NaN
149.47872720000032	0.3002	sub-18	1	sequence	fixation	dot	NaN	NaN	NaN	NaN	NaN	NaN	NaN	NaN	NaN	NaN	NaN	NaN
149.79731110000012	0.115	sub-18	1	sequence	stimulus	Stuhl	NaN	NaN	512.0	NaN	NaN	5.0	1.0	NaN	NaN	NaN	NaN	NaN
149.91236010000011	0.5173	sub-18	1	sequence	interval	dot	NaN	NaN	NaN	NaN	NaN	NaN	NaN	NaN	NaN	NaN	NaN	NaN
150.4296789	0.0999	sub-18	1	sequence	stimulus	Haus	NaN	NaN	512.0	NaN	NaN	2.0	2.0	NaN	NaN	NaN	NaN	NaN
150.52957870000046	0.517	sub-18	1	sequence	interval	dot	NaN	NaN	NaN	NaN	NaN	NaN	NaN	NaN	NaN	NaN	NaN	NaN
151.04660520000016	0.0999	sub-18	1	sequence	stimulus	Schuh	NaN	NaN	512.0	NaN	NaN	4.0	3.0	NaN	NaN	NaN	NaN	NaN
151.14654800000062	0.5171	sub-18	1	sequence	interval	dot	NaN	NaN	NaN	NaN	NaN	NaN	NaN	NaN	NaN	NaN	NaN	NaN
151.66361150000012	0.1	sub-18	1	sequence	stimulus	Gesicht	NaN	NaN	512.0	NaN	NaN	1.0	4.0	NaN	NaN	NaN	NaN	NaN
151.76358340000024	0.5173	sub-18	1	sequence	interval	dot	NaN	NaN	NaN	NaN	NaN	NaN	NaN	NaN	NaN	NaN	NaN	NaN
152.28085610000016	0.1	sub-18	1	sequence	stimulus	Katze	NaN	NaN	512.0	NaN	NaN	3.0	5.0	NaN	NaN	NaN	NaN	NaN
152.38083720000031	0.5171	sub-18	1	sequence	interval	dot	NaN	NaN	NaN	NaN	NaN	NaN	NaN	NaN	NaN	NaN	NaN	NaN
152.89791010000044	6.1531	sub-18	1	sequence	delay	dot	NaN	NaN	NaN	NaN	NaN	NaN	NaN	NaN	NaN	NaN	NaN	NaN
159.02895490000083	0.8414	sub-18	1	sequence	choice	choice	right	NaN	NaN	0.8143135999998776	True	NaN	NaN	right	True	5.0	4.0	4.0
159.87065900000016	0.5	sub-18	1	sequence	feedback	NaN	NaN	NaN	NaN	NaN	NaN	NaN	NaN	NaN	NaN	NaN	NaN	NaN
160.37094310000066	1.0005	sub-18	1	sequence	cue	Schuh	NaN	NaN	NaN	NaN	NaN	NaN	NaN	NaN	NaN	NaN	NaN	NaN
161.37144070000068	2.0016	sub-18	1	sequence	blank	blank	NaN	NaN	NaN	NaN	NaN	NaN	NaN	NaN	NaN	NaN	NaN	NaN
163.37303370000063	0.3002	sub-18	1	sequence	fixation	dot	NaN	NaN	NaN	NaN	NaN	NaN	NaN	NaN	NaN	NaN	NaN	NaN
163.69153220000044	0.1151	sub-18	1	sequence	stimulus	Haus	NaN	NaN	64.0	NaN	NaN	2.0	1.0	NaN	NaN	NaN	NaN	NaN
163.80666370000017	0.0669	sub-18	1	sequence	interval	dot	NaN	NaN	NaN	NaN	NaN	NaN	NaN	NaN	NaN	NaN	NaN	NaN
163.87352270000065	0.1	sub-18	1	sequence	stimulus	Gesicht	NaN	NaN	64.0	NaN	NaN	1.0	2.0	NaN	NaN	NaN	NaN	NaN
163.9735556000005	0.0668	sub-18	1	sequence	interval	dot	NaN	NaN	NaN	NaN	NaN	NaN	NaN	NaN	NaN	NaN	NaN	NaN
164.0403285000002	0.0999	sub-18	1	sequence	stimulus	Schuh	NaN	NaN	64.0	NaN	NaN	4.0	3.0	NaN	NaN	NaN	NaN	NaN
164.14023390000057	0.0669	sub-18	1	sequence	interval	dot	NaN	NaN	NaN	NaN	NaN	NaN	NaN	NaN	NaN	NaN	NaN	NaN
164.2071016	0.1	sub-18	1	sequence	stimulus	Stuhl	NaN	NaN	64.0	NaN	NaN	5.0	4.0	NaN	NaN	NaN	NaN	NaN
164.3071157000004	0.0668	sub-18	1	sequence	interval	dot	NaN	NaN	NaN	NaN	NaN	NaN	NaN	NaN	NaN	NaN	NaN	NaN
164.37390010000036	0.1001	sub-18	1	sequence	stimulus	Katze	NaN	NaN	64.0	NaN	NaN	3.0	5.0	NaN	NaN	NaN	NaN	NaN
164.4739986000004	0.0665	sub-18	1	sequence	interval	dot	NaN	NaN	NaN	NaN	NaN	NaN	NaN	NaN	NaN	NaN	NaN	NaN
164.54052730000058	8.3886	sub-18	1	sequence	delay	dot	NaN	NaN	NaN	NaN	NaN	NaN	NaN	NaN	NaN	NaN	NaN	NaN
172.9126741	1.1025	sub-18	1	sequence	choice	choice	left	NaN	NaN	1.0802422999995542	True	NaN	NaN	left	True	3.0	4.0	3.0
174.01546570000028	0.5	sub-18	1	sequence	feedback	NaN	NaN	NaN	NaN	NaN	NaN	NaN	NaN	NaN	NaN	NaN	NaN	NaN
174.5157362	1.0004	sub-18	1	sequence	cue	Haus	NaN	NaN	NaN	NaN	NaN	NaN	NaN	NaN	NaN	NaN	NaN	NaN
175.51613010000074	2.0017	sub-18	1	sequence	blank	blank	NaN	NaN	NaN	NaN	NaN	NaN	NaN	NaN	NaN	NaN	NaN	NaN
177.51788260000012	0.3002	sub-18	1	sequence	fixation	dot	NaN	NaN	NaN	NaN	NaN	NaN	NaN	NaN	NaN	NaN	NaN	NaN
177.83557980000023	0.0992	sub-18	1	sequence	stimulus	Katze	NaN	NaN	128.0	NaN	NaN	3.0	1.0	NaN	NaN	NaN	NaN	NaN
177.93480480000017	0.1335	sub-18	1	sequence	interval	dot	NaN	NaN	NaN	NaN	NaN	NaN	NaN	NaN	NaN	NaN	NaN	NaN
178.06831710000006	0.1	sub-18	1	sequence	stimulus	Schuh	NaN	NaN	128.0	NaN	NaN	4.0	2.0	NaN	NaN	NaN	NaN	NaN
178.16830010000012	0.1337	sub-18	1	sequence	interval	dot	NaN	NaN	NaN	NaN	NaN	NaN	NaN	NaN	NaN	NaN	NaN	NaN
178.30199980000089	0.0998	sub-18	1	sequence	stimulus	Gesicht	NaN	NaN	128.0	NaN	NaN	1.0	3.0	NaN	NaN	NaN	NaN	NaN
178.4018143000003	0.1336	sub-18	1	sequence	interval	dot	NaN	NaN	NaN	NaN	NaN	NaN	NaN	NaN	NaN	NaN	NaN	NaN
178.5353855000003	0.1	sub-18	1	sequence	stimulus	Haus	NaN	NaN	128.0	NaN	NaN	2.0	4.0	NaN	NaN	NaN	NaN	NaN
178.63534130000062	0.1336	sub-18	1	sequence	interval	dot	NaN	NaN	NaN	NaN	NaN	NaN	NaN	NaN	NaN	NaN	NaN	NaN
178.7689807000006	0.0999	sub-18	1	sequence	stimulus	Stuhl	NaN	NaN	128.0	NaN	NaN	5.0	5.0	NaN	NaN	NaN	NaN	NaN
178.86890200000016	0.1335	sub-18	1	sequence	interval	dot	NaN	NaN	NaN	NaN	NaN	NaN	NaN	NaN	NaN	NaN	NaN	NaN
179.00240700000086	8.0715	sub-18	1	sequence	delay	dot	NaN	NaN	NaN	NaN	NaN	NaN	NaN	NaN	NaN	NaN	NaN	NaN
187.0564286000008	1.1537	sub-18	1	sequence	choice	choice	left	NaN	NaN	1.1273953999998412	True	NaN	NaN	left	True	4.0	3.0	4.0
188.21040300000004	0.5	sub-18	1	sequence	feedback	NaN	NaN	NaN	NaN	NaN	NaN	NaN	NaN	NaN	NaN	NaN	NaN	NaN
188.71068900000049	1.0005	sub-18	1	sequence	cue	Gesicht	NaN	NaN	NaN	NaN	NaN	NaN	NaN	NaN	NaN	NaN	NaN	NaN
189.71118470000056	2.0016	sub-18	1	sequence	blank	blank	NaN	NaN	NaN	NaN	NaN	NaN	NaN	NaN	NaN	NaN	NaN	NaN
191.7128270000003	0.3001	sub-18	1	sequence	fixation	dot	NaN	NaN	NaN	NaN	NaN	NaN	NaN	NaN	NaN	NaN	NaN	NaN
192.0305025000007	0.0993	sub-18	1	sequence	stimulus	Stuhl	NaN	NaN	512.0	NaN	NaN	5.0	1.0	NaN	NaN	NaN	NaN	NaN
192.1297756000004	0.5171	sub-18	1	sequence	interval	dot	NaN	NaN	NaN	NaN	NaN	NaN	NaN	NaN	NaN	NaN	NaN	NaN
192.6469173000005	0.1	sub-18	1	sequence	stimulus	Schuh	NaN	NaN	512.0	NaN	NaN	4.0	2.0	NaN	NaN	NaN	NaN	NaN
192.74695930000053	0.5171	sub-18	1	sequence	interval	dot	NaN	NaN	NaN	NaN	NaN	NaN	NaN	NaN	NaN	NaN	NaN	NaN
193.26404790000012	0.0999	sub-18	1	sequence	stimulus	Katze	NaN	NaN	512.0	NaN	NaN	3.0	3.0	NaN	NaN	NaN	NaN	NaN
193.3639075000001	0.5172	sub-18	1	sequence	interval	dot	NaN	NaN	NaN	NaN	NaN	NaN	NaN	NaN	NaN	NaN	NaN	NaN
193.8811340000002	0.1	sub-18	1	sequence	stimulus	Gesicht	NaN	NaN	512.0	NaN	NaN	1.0	4.0	NaN	NaN	NaN	NaN	NaN
193.9811697000005	0.5173	sub-18	1	sequence	interval	dot	NaN	NaN	NaN	NaN	NaN	NaN	NaN	NaN	NaN	NaN	NaN	NaN
194.49844060000032	0.0999	sub-18	1	sequence	stimulus	Haus	NaN	NaN	512.0	NaN	NaN	2.0	5.0	NaN	NaN	NaN	NaN	NaN
194.5983565000006	0.517	sub-18	1	sequence	interval	dot	NaN	NaN	NaN	NaN	NaN	NaN	NaN	NaN	NaN	NaN	NaN	NaN
195.1153881	6.1534	sub-18	1	sequence	delay	dot	NaN	NaN	NaN	NaN	NaN	NaN	NaN	NaN	NaN	NaN	NaN	NaN
201.2521910000005	0.7188	sub-18	1	sequence	choice	choice	left	NaN	NaN	0.6924336000001858	True	NaN	NaN	left	True	4.0	2.0	4.0
201.9711126000002	0.5002	sub-18	1	sequence	feedback	NaN	NaN	NaN	NaN	NaN	NaN	NaN	NaN	NaN	NaN	NaN	NaN	NaN
202.47147180000047	1.0006	sub-18	1	sequence	cue	Stuhl	NaN	NaN	NaN	NaN	NaN	NaN	NaN	NaN	NaN	NaN	NaN	NaN
203.47205420000049	2.0018	sub-18	1	sequence	blank	blank	NaN	NaN	NaN	NaN	NaN	NaN	NaN	NaN	NaN	NaN	NaN	NaN
205.47382430000016	0.3002	sub-18	1	sequence	fixation	dot	NaN	NaN	NaN	NaN	NaN	NaN	NaN	NaN	NaN	NaN	NaN	NaN
205.7922121000001	0.1151	sub-18	1	sequence	stimulus	Schuh	NaN	NaN	32.0	NaN	NaN	4.0	1.0	NaN	NaN	NaN	NaN	NaN
205.9073229000005	0.0335	sub-18	1	sequence	interval	dot	NaN	NaN	NaN	NaN	NaN	NaN	NaN	NaN	NaN	NaN	NaN	NaN
205.9408190000004	0.0999	sub-18	1	sequence	stimulus	Katze	NaN	NaN	32.0	NaN	NaN	3.0	2.0	NaN	NaN	NaN	NaN	NaN
206.0407513	0.0337	sub-18	1	sequence	interval	dot	NaN	NaN	NaN	NaN	NaN	NaN	NaN	NaN	NaN	NaN	NaN	NaN
206.07447220000088	0.0997	sub-18	1	sequence	stimulus	Stuhl	NaN	NaN	32.0	NaN	NaN	5.0	3.0	NaN	NaN	NaN	NaN	NaN
206.17420410000068	0.0336	sub-18	1	sequence	interval	dot	NaN	NaN	NaN	NaN	NaN	NaN	NaN	NaN	NaN	NaN	NaN	NaN
206.2077878	0.1	sub-18	1	sequence	stimulus	Haus	NaN	NaN	32.0	NaN	NaN	2.0	4.0	NaN	NaN	NaN	NaN	NaN
206.30780510000025	0.0334	sub-18	1	sequence	interval	dot	NaN	NaN	NaN	NaN	NaN	NaN	NaN	NaN	NaN	NaN	NaN	NaN
206.34119250000003	0.1	sub-18	1	sequence	stimulus	Gesicht	NaN	NaN	32.0	NaN	NaN	1.0	5.0	NaN	NaN	NaN	NaN	NaN
206.4411771000005	0.0333	sub-18	1	sequence	interval	dot	NaN	NaN	NaN	NaN	NaN	NaN	NaN	NaN	NaN	NaN	NaN	NaN
206.4745126000007	8.522	sub-18	1	sequence	delay	dot	NaN	NaN	NaN	NaN	NaN	NaN	NaN	NaN	NaN	NaN	NaN	NaN
214.97976280000057	1.1363	sub-18	1	sequence	choice	choice	left	NaN	NaN	1.116800200000398	True	NaN	NaN	left	True	3.0	4.0	3.0
216.1162843000002	0.4999	sub-18	1	sequence	feedback	NaN	NaN	NaN	NaN	NaN	NaN	NaN	NaN	NaN	NaN	NaN	NaN	NaN
216.61641940000027	1.0006	sub-18	1	sequence	cue	Haus	NaN	NaN	NaN	NaN	NaN	NaN	NaN	NaN	NaN	NaN	NaN	NaN
217.617029	2.0015	sub-18	1	sequence	blank	blank	NaN	NaN	NaN	NaN	NaN	NaN	NaN	NaN	NaN	NaN	NaN	NaN
219.61854520000088	0.3003	sub-18	1	sequence	fixation	dot	NaN	NaN	NaN	NaN	NaN	NaN	NaN	NaN	NaN	NaN	NaN	NaN
219.9513678000003	0.1008	sub-18	1	sequence	stimulus	Stuhl	NaN	NaN	128.0	NaN	NaN	5.0	1.0	NaN	NaN	NaN	NaN	NaN
220.05220030000052	0.1337	sub-18	1	sequence	interval	dot	NaN	NaN	NaN	NaN	NaN	NaN	NaN	NaN	NaN	NaN	NaN	NaN
220.1858572000001	0.0999	sub-18	1	sequence	stimulus	Schuh	NaN	NaN	128.0	NaN	NaN	4.0	2.0	NaN	NaN	NaN	NaN	NaN
220.2857281000006	0.1336	sub-18	1	sequence	interval	dot	NaN	NaN	NaN	NaN	NaN	NaN	NaN	NaN	NaN	NaN	NaN	NaN
220.41928600000028	0.1	sub-18	1	sequence	stimulus	Katze	NaN	NaN	128.0	NaN	NaN	3.0	3.0	NaN	NaN	NaN	NaN	NaN
220.51926260000076	0.1336	sub-18	1	sequence	interval	dot	NaN	NaN	NaN	NaN	NaN	NaN	NaN	NaN	NaN	NaN	NaN	NaN
220.6528646000006	0.0999	sub-18	1	sequence	stimulus	Haus	NaN	NaN	128.0	NaN	NaN	2.0	4.0	NaN	NaN	NaN	NaN	NaN
220.7527628000007	0.1336	sub-18	1	sequence	interval	dot	NaN	NaN	NaN	NaN	NaN	NaN	NaN	NaN	NaN	NaN	NaN	NaN
220.8863448000002	0.1	sub-18	1	sequence	stimulus	Gesicht	NaN	NaN	128.0	NaN	NaN	1.0	5.0	NaN	NaN	NaN	NaN	NaN
220.98631490000025	0.1334	sub-18	1	sequence	interval	dot	NaN	NaN	NaN	NaN	NaN	NaN	NaN	NaN	NaN	NaN	NaN	NaN
221.11970720000045	8.0716	sub-18	1	sequence	delay	dot	NaN	NaN	NaN	NaN	NaN	NaN	NaN	NaN	NaN	NaN	NaN	NaN
229.1754630000005	0.8686	sub-18	1	sequence	choice	choice	right	NaN	NaN	0.8421256999999969	True	NaN	NaN	right	True	3.0	4.0	4.0
230.0443066000007	0.4999	sub-18	1	sequence	feedback	NaN	NaN	NaN	NaN	NaN	NaN	NaN	NaN	NaN	NaN	NaN	NaN	NaN
234.3648970000004	0.4993	sub-18	1	localizer	stimulus	Gesicht	NaN	0	2.01797540000004	NaN	True	NaN	NaN	NaN	NaN	NaN	NaN	NaN
234.84774030000065	2.018	sub-18	1	localizer	blank	interval	NaN	NaN	NaN	NaN	NaN	NaN	NaN	NaN	NaN	NaN	NaN	NaN
237.16679720000047	0.4995	sub-18	1	localizer	stimulus	Stuhl	NaN	180	1.851541600000047	0.5865321999999651	True	NaN	NaN	NaN	NaN	NaN	NaN	NaN
237.6497917000006	1.8515	sub-18	1	localizer	blank	interval	NaN	NaN	NaN	NaN	NaN	NaN	NaN	NaN	NaN	NaN	NaN	NaN
239.80232260000048	0.4996	sub-18	1	localizer	stimulus	Katze	NaN	0	3.3358928000006927	NaN	True	NaN	NaN	NaN	NaN	NaN	NaN	NaN
240.28526580000016	3.3359	sub-18	1	localizer	blank	interval	NaN	NaN	NaN	NaN	NaN	NaN	NaN	NaN	NaN	NaN	NaN	NaN
243.9222142000008	0.4996	sub-18	1	localizer	stimulus	Schuh	NaN	0	2.7186596999999324	NaN	True	NaN	NaN	NaN	NaN	NaN	NaN	NaN
244.4053445000009	2.7187	sub-18	1	localizer	blank	interval	NaN	NaN	NaN	NaN	NaN	NaN	NaN	NaN	NaN	NaN	NaN	NaN
247.42511920000013	0.4996	sub-18	1	localizer	stimulus	Schuh	NaN	0	1.851655299999976	NaN	True	NaN	NaN	NaN	NaN	NaN	NaN	NaN
247.9080687000005	1.8517	sub-18	1	localizer	blank	interval	NaN	NaN	NaN	NaN	NaN	NaN	NaN	NaN	NaN	NaN	NaN	NaN
250.06071220000013	0.4995	sub-18	1	localizer	stimulus	Gesicht	NaN	0	3.069137899999987	NaN	True	NaN	NaN	NaN	NaN	NaN	NaN	NaN
250.5437504000001	3.0691	sub-18	1	localizer	blank	interval	NaN	NaN	NaN	NaN	NaN	NaN	NaN	NaN	NaN	NaN	NaN	NaN
253.9137335000005	0.4996	sub-18	1	localizer	stimulus	Gesicht	NaN	0	2.385079100000411	NaN	True	NaN	NaN	NaN	NaN	NaN	NaN	NaN
254.39688370000025	2.3851	sub-18	1	localizer	blank	interval	NaN	NaN	NaN	NaN	NaN	NaN	NaN	NaN	NaN	NaN	NaN	NaN
257.08293200000026	0.4997	sub-18	1	localizer	stimulus	Haus	NaN	0	2.368413999999575	NaN	True	NaN	NaN	NaN	NaN	NaN	NaN	NaN
257.5660086000007	2.3684	sub-18	1	localizer	blank	interval	NaN	NaN	NaN	NaN	NaN	NaN	NaN	NaN	NaN	NaN	NaN	NaN
260.23540850000063	0.4996	sub-18	1	localizer	stimulus	Stuhl	NaN	0	2.768775100000312	NaN	True	NaN	NaN	NaN	NaN	NaN	NaN	NaN
260.7184616000004	2.7688	sub-18	1	localizer	blank	interval	NaN	NaN	NaN	NaN	NaN	NaN	NaN	NaN	NaN	NaN	NaN	NaN
263.78837790000034	0.4996	sub-18	1	localizer	stimulus	Schuh	NaN	180	3.46929850000015	0.5329206999995222	True	NaN	NaN	NaN	NaN	NaN	NaN	NaN
264.27141630000006	3.4693	sub-18	1	localizer	blank	interval	NaN	NaN	NaN	NaN	NaN	NaN	NaN	NaN	NaN	NaN	NaN	NaN
268.0417804000008	0.4997	sub-18	1	localizer	stimulus	Katze	NaN	0	1.9683106000002226	NaN	True	NaN	NaN	NaN	NaN	NaN	NaN	NaN
268.5248289000001	1.9683	sub-18	1	localizer	blank	interval	NaN	NaN	NaN	NaN	NaN	NaN	NaN	NaN	NaN	NaN	NaN	NaN
270.7941561000007	0.4995	sub-18	1	localizer	stimulus	Haus	NaN	180	2.6186369999995804	0.5594806999997672	True	NaN	NaN	NaN	NaN	NaN	NaN	NaN
271.27720170000066	2.6186	sub-18	1	localizer	blank	interval	NaN	NaN	NaN	NaN	NaN	NaN	NaN	NaN	NaN	NaN	NaN	NaN
274.19682700000067	0.4997	sub-18	1	localizer	stimulus	Schuh	NaN	0	2.351652600000307	NaN	True	NaN	NaN	NaN	NaN	NaN	NaN	NaN
274.6799522000001	2.3517	sub-18	1	localizer	blank	interval	NaN	NaN	NaN	NaN	NaN	NaN	NaN	NaN	NaN	NaN	NaN	NaN
277.3326040000002	0.4996	sub-18	1	localizer	stimulus	Haus	NaN	0	3.169193499999892	NaN	True	NaN	NaN	NaN	NaN	NaN	NaN	NaN
277.8156794000006	3.1692	sub-18	1	localizer	blank	interval	NaN	NaN	NaN	NaN	NaN	NaN	NaN	NaN	NaN	NaN	NaN	NaN
281.2858062000005	0.4995	sub-18	1	localizer	stimulus	Katze	NaN	0	3.2692200000000753	NaN	True	NaN	NaN	NaN	NaN	NaN	NaN	NaN
281.7688365000004	3.2692	sub-18	1	localizer	blank	interval	NaN	NaN	NaN	NaN	NaN	NaN	NaN	NaN	NaN	NaN	NaN	NaN
285.3391166000001	0.4995	sub-18	1	localizer	stimulus	Katze	NaN	180	2.985671400000683	0.5181349000004047	True	NaN	NaN	NaN	NaN	NaN	NaN	NaN
285.82220210000014	2.9857	sub-18	1	localizer	blank	interval	NaN	NaN	NaN	NaN	NaN	NaN	NaN	NaN	NaN	NaN	NaN	NaN
289.10887320000074	0.4997	sub-18	1	localizer	stimulus	Stuhl	NaN	0	2.7853666999998836	NaN	True	NaN	NaN	NaN	NaN	NaN	NaN	NaN
289.5919372000008	2.7854	sub-18	1	localizer	blank	interval	NaN	NaN	NaN	NaN	NaN	NaN	NaN	NaN	NaN	NaN	NaN	NaN
292.6783542000003	0.4996	sub-18	1	localizer	stimulus	Stuhl	NaN	0	3.7197970000006535	NaN	True	NaN	NaN	NaN	NaN	NaN	NaN	NaN
293.1613986000002	3.7198	sub-18	1	localizer	blank	interval	NaN	NaN	NaN	NaN	NaN	NaN	NaN	NaN	NaN	NaN	NaN	NaN
297.18218960000013	0.4996	sub-18	1	localizer	stimulus	Gesicht	NaN	0	1.2506528000003527	NaN	True	NaN	NaN	NaN	NaN	NaN	NaN	NaN
297.6652859000005	1.2507	sub-18	1	localizer	blank	interval	NaN	NaN	NaN	NaN	NaN	NaN	NaN	NaN	NaN	NaN	NaN	NaN
299.2169760000006	0.4996	sub-18	1	localizer	stimulus	Schuh	NaN	0	1.9015079999999216	NaN	True	NaN	NaN	NaN	NaN	NaN	NaN	NaN
299.7000276000008	1.9015	sub-18	1	localizer	blank	interval	NaN	NaN	NaN	NaN	NaN	NaN	NaN	NaN	NaN	NaN	NaN	NaN
301.9024730000001	0.4997	sub-18	1	localizer	stimulus	Stuhl	NaN	0	2.7855313999998543	NaN	True	NaN	NaN	NaN	NaN	NaN	NaN	NaN
302.3854611000006	2.7855	sub-18	1	localizer	blank	interval	NaN	NaN	NaN	NaN	NaN	NaN	NaN	NaN	NaN	NaN	NaN	NaN
305.47207030000027	0.4995	sub-18	1	localizer	stimulus	Haus	NaN	0	2.2516077999998743	NaN	True	NaN	NaN	NaN	NaN	NaN	NaN	NaN
305.9551700000002	2.2516	sub-18	1	localizer	blank	interval	NaN	NaN	NaN	NaN	NaN	NaN	NaN	NaN	NaN	NaN	NaN	NaN
308.5080070000004	0.4995	sub-18	1	localizer	stimulus	Haus	NaN	0	1.5677040999999008	NaN	True	NaN	NaN	NaN	NaN	NaN	NaN	NaN
308.9911090000005	1.5677	sub-18	1	localizer	blank	interval	NaN	NaN	NaN	NaN	NaN	NaN	NaN	NaN	NaN	NaN	NaN	NaN
310.8598614000002	0.4996	sub-18	1	localizer	stimulus	Gesicht	NaN	180	2.1515675999999075	0.557281100000182	True	NaN	NaN	NaN	NaN	NaN	NaN	NaN
311.3428380000005	2.1516	sub-18	1	localizer	blank	interval	NaN	NaN	NaN	NaN	NaN	NaN	NaN	NaN	NaN	NaN	NaN	NaN
313.7954728000004	0.4995	sub-18	1	localizer	stimulus	Katze	NaN	0	2.385249799999656	NaN	True	NaN	NaN	NaN	NaN	NaN	NaN	NaN
314.2785319000004	2.3852	sub-18	1	localizer	blank	interval	NaN	NaN	NaN	NaN	NaN	NaN	NaN	NaN	NaN	NaN	NaN	NaN
320.1500579000003	1.0005	sub-18	1	sequence	cue	Gesicht	NaN	NaN	NaN	NaN	NaN	NaN	NaN	NaN	NaN	NaN	NaN	NaN
321.15061140000034	2.0016	sub-18	1	sequence	blank	blank	NaN	NaN	NaN	NaN	NaN	NaN	NaN	NaN	NaN	NaN	NaN	NaN
323.15221610000026	0.3003	sub-18	1	sequence	fixation	dot	NaN	NaN	NaN	NaN	NaN	NaN	NaN	NaN	NaN	NaN	NaN	NaN
323.4699106000008	0.0993	sub-18	1	sequence	stimulus	Stuhl	NaN	NaN	512.0	NaN	NaN	5.0	1.0	NaN	NaN	NaN	NaN	NaN
323.5691770000003	0.5172	sub-18	1	sequence	interval	dot	NaN	NaN	NaN	NaN	NaN	NaN	NaN	NaN	NaN	NaN	NaN	NaN
324.08641610000086	0.1001	sub-18	1	sequence	stimulus	Haus	NaN	NaN	512.0	NaN	NaN	2.0	2.0	NaN	NaN	NaN	NaN	NaN
324.18656160000046	0.517	sub-18	1	sequence	interval	dot	NaN	NaN	NaN	NaN	NaN	NaN	NaN	NaN	NaN	NaN	NaN	NaN
324.7035616000003	0.0999	sub-18	1	sequence	stimulus	Schuh	NaN	NaN	512.0	NaN	NaN	4.0	3.0	NaN	NaN	NaN	NaN	NaN
324.8034841000008	0.5172	sub-18	1	sequence	interval	dot	NaN	NaN	NaN	NaN	NaN	NaN	NaN	NaN	NaN	NaN	NaN	NaN
325.3207068000001	0.1001	sub-18	1	sequence	stimulus	Gesicht	NaN	NaN	512.0	NaN	NaN	1.0	4.0	NaN	NaN	NaN	NaN	NaN
325.42075960000057	0.5171	sub-18	1	sequence	interval	dot	NaN	NaN	NaN	NaN	NaN	NaN	NaN	NaN	NaN	NaN	NaN	NaN
325.9378568000002	0.1	sub-18	1	sequence	stimulus	Katze	NaN	NaN	512.0	NaN	NaN	3.0	5.0	NaN	NaN	NaN	NaN	NaN
326.0378505000008	0.5171	sub-18	1	sequence	interval	dot	NaN	NaN	NaN	NaN	NaN	NaN	NaN	NaN	NaN	NaN	NaN	NaN
326.55499970000074	6.1535	sub-18	1	sequence	delay	dot	NaN	NaN	NaN	NaN	NaN	NaN	NaN	NaN	NaN	NaN	NaN	NaN
332.6792331000006	0.8316	sub-18	1	sequence	choice	choice	left	NaN	NaN	0.7887133999993239	True	NaN	NaN	left	True	4.0	5.0	4.0
333.5112037000008	0.4998	sub-18	1	sequence	feedback	NaN	NaN	NaN	NaN	NaN	NaN	NaN	NaN	NaN	NaN	NaN	NaN	NaN
334.01112040000044	1.0008	sub-18	1	sequence	cue	Gesicht	NaN	NaN	NaN	NaN	NaN	NaN	NaN	NaN	NaN	NaN	NaN	NaN
335.0119388000003	2.0017	sub-18	1	sequence	blank	blank	NaN	NaN	NaN	NaN	NaN	NaN	NaN	NaN	NaN	NaN	NaN	NaN
337.01363590000074	0.3003	sub-18	1	sequence	fixation	dot	NaN	NaN	NaN	NaN	NaN	NaN	NaN	NaN	NaN	NaN	NaN	NaN
337.3320306000005	0.1152	sub-18	1	sequence	stimulus	Stuhl	NaN	NaN	128.0	NaN	NaN	5.0	1.0	NaN	NaN	NaN	NaN	NaN
337.4472565000005	0.1335	sub-18	1	sequence	interval	dot	NaN	NaN	NaN	NaN	NaN	NaN	NaN	NaN	NaN	NaN	NaN	NaN
337.5807913000008	0.1001	sub-18	1	sequence	stimulus	Schuh	NaN	NaN	128.0	NaN	NaN	4.0	2.0	NaN	NaN	NaN	NaN	NaN
337.68085620000056	0.1334	sub-18	1	sequence	interval	dot	NaN	NaN	NaN	NaN	NaN	NaN	NaN	NaN	NaN	NaN	NaN	NaN
337.8142629000004	0.1	sub-18	1	sequence	stimulus	Katze	NaN	NaN	128.0	NaN	NaN	3.0	3.0	NaN	NaN	NaN	NaN	NaN
337.9142855	0.1335	sub-18	1	sequence	interval	dot	NaN	NaN	NaN	NaN	NaN	NaN	NaN	NaN	NaN	NaN	NaN	NaN
338.0478210000001	0.0999	sub-18	1	sequence	stimulus	Haus	NaN	NaN	128.0	NaN	NaN	2.0	4.0	NaN	NaN	NaN	NaN	NaN
338.1477420000001	0.1336	sub-18	1	sequence	interval	dot	NaN	NaN	NaN	NaN	NaN	NaN	NaN	NaN	NaN	NaN	NaN	NaN
338.2813235000003	0.1001	sub-18	1	sequence	stimulus	Gesicht	NaN	NaN	128.0	NaN	NaN	1.0	5.0	NaN	NaN	NaN	NaN	NaN
338.3813974000004	0.1333	sub-18	1	sequence	interval	dot	NaN	NaN	NaN	NaN	NaN	NaN	NaN	NaN	NaN	NaN	NaN	NaN
338.5147229000004	8.0713	sub-18	1	sequence	delay	dot	NaN	NaN	NaN	NaN	NaN	NaN	NaN	NaN	NaN	NaN	NaN	NaN
346.5632998000001	1.0091	sub-18	1	sequence	choice	choice	left	NaN	NaN	0.9752708999994866	True	NaN	NaN	left	True	5.0	1.0	5.0
347.5726635000001	0.4998	sub-18	1	sequence	feedback	NaN	NaN	NaN	NaN	NaN	NaN	NaN	NaN	NaN	NaN	NaN	NaN	NaN
348.0726357000003	1.0005	sub-18	1	sequence	cue	Haus	NaN	NaN	NaN	NaN	NaN	NaN	NaN	NaN	NaN	NaN	NaN	NaN
349.0731166000005	2.0018	sub-18	1	sequence	blank	blank	NaN	NaN	NaN	NaN	NaN	NaN	NaN	NaN	NaN	NaN	NaN	NaN
351.0749608000005	0.3002	sub-18	1	sequence	fixation	dot	NaN	NaN	NaN	NaN	NaN	NaN	NaN	NaN	NaN	NaN	NaN	NaN
351.3935020000008	0.1151	sub-18	1	sequence	stimulus	Gesicht	NaN	NaN	32.0	NaN	NaN	1.0	1.0	NaN	NaN	NaN	NaN	NaN
351.50856810000005	0.0335	sub-18	1	sequence	interval	dot	NaN	NaN	NaN	NaN	NaN	NaN	NaN	NaN	NaN	NaN	NaN	NaN
351.5420681000005	0.1	sub-18	1	sequence	stimulus	Schuh	NaN	NaN	32.0	NaN	NaN	4.0	2.0	NaN	NaN	NaN	NaN	NaN
351.6420193000004	0.0335	sub-18	1	sequence	interval	dot	NaN	NaN	NaN	NaN	NaN	NaN	NaN	NaN	NaN	NaN	NaN	NaN
351.6754722000005	0.1	sub-18	1	sequence	stimulus	Stuhl	NaN	NaN	32.0	NaN	NaN	5.0	3.0	NaN	NaN	NaN	NaN	NaN
351.77545370000007	0.0335	sub-18	1	sequence	interval	dot	NaN	NaN	NaN	NaN	NaN	NaN	NaN	NaN	NaN	NaN	NaN	NaN
351.8089213000003	0.1	sub-18	1	sequence	stimulus	Katze	NaN	NaN	32.0	NaN	NaN	3.0	4.0	NaN	NaN	NaN	NaN	NaN
351.90891700000066	0.0336	sub-18	1	sequence	interval	dot	NaN	NaN	NaN	NaN	NaN	NaN	NaN	NaN	NaN	NaN	NaN	NaN
351.94248270000026	0.0999	sub-18	1	sequence	stimulus	Haus	NaN	NaN	32.0	NaN	NaN	2.0	5.0	NaN	NaN	NaN	NaN	NaN
352.0423870000004	0.0334	sub-18	1	sequence	interval	dot	NaN	NaN	NaN	NaN	NaN	NaN	NaN	NaN	NaN	NaN	NaN	NaN
352.0757538000007	8.5221	sub-18	1	sequence	delay	dot	NaN	NaN	NaN	NaN	NaN	NaN	NaN	NaN	NaN	NaN	NaN	NaN
360.5765495000005	0.9236	sub-18	1	sequence	choice	choice	left	NaN	NaN	0.89149019999968	True	NaN	NaN	left	True	5.0	4.0	5.0
361.50042440000016	0.5	sub-18	1	sequence	feedback	NaN	NaN	NaN	NaN	NaN	NaN	NaN	NaN	NaN	NaN	NaN	NaN	NaN
362.0005157000005	1.0007	sub-18	1	sequence	cue	Haus	NaN	NaN	NaN	NaN	NaN	NaN	NaN	NaN	NaN	NaN	NaN	NaN
363.0011846000007	2.0015	sub-18	1	sequence	blank	blank	NaN	NaN	NaN	NaN	NaN	NaN	NaN	NaN	NaN	NaN	NaN	NaN
365.00270510000064	0.3003	sub-18	1	sequence	fixation	dot	NaN	NaN	NaN	NaN	NaN	NaN	NaN	NaN	NaN	NaN	NaN	NaN
365.3204865000007	0.0992	sub-18	1	sequence	stimulus	Stuhl	NaN	NaN	512.0	NaN	NaN	5.0	1.0	NaN	NaN	NaN	NaN	NaN
365.4196972000009	0.5173	sub-18	1	sequence	interval	dot	NaN	NaN	NaN	NaN	NaN	NaN	NaN	NaN	NaN	NaN	NaN	NaN
365.9369571000007	0.0999	sub-18	1	sequence	stimulus	Schuh	NaN	NaN	512.0	NaN	NaN	4.0	2.0	NaN	NaN	NaN	NaN	NaN
366.03687720000016	0.5172	sub-18	1	sequence	interval	dot	NaN	NaN	NaN	NaN	NaN	NaN	NaN	NaN	NaN	NaN	NaN	NaN
366.55412700000034	0.0999	sub-18	1	sequence	stimulus	Katze	NaN	NaN	512.0	NaN	NaN	3.0	3.0	NaN	NaN	NaN	NaN	NaN
366.6539983000002	0.5172	sub-18	1	sequence	interval	dot	NaN	NaN	NaN	NaN	NaN	NaN	NaN	NaN	NaN	NaN	NaN	NaN
367.1711969000007	0.1	sub-18	1	sequence	stimulus	Gesicht	NaN	NaN	512.0	NaN	NaN	1.0	4.0	NaN	NaN	NaN	NaN	NaN
367.2711527000001	0.5173	sub-18	1	sequence	interval	dot	NaN	NaN	NaN	NaN	NaN	NaN	NaN	NaN	NaN	NaN	NaN	NaN
367.7884129000004	0.1	sub-18	1	sequence	stimulus	Haus	NaN	NaN	512.0	NaN	NaN	2.0	5.0	NaN	NaN	NaN	NaN	NaN
367.8884224000003	0.5172	sub-18	1	sequence	interval	dot	NaN	NaN	NaN	NaN	NaN	NaN	NaN	NaN	NaN	NaN	NaN	NaN
368.40557400000034	6.1533	sub-18	1	sequence	delay	dot	NaN	NaN	NaN	NaN	NaN	NaN	NaN	NaN	NaN	NaN	NaN	NaN
374.5383616000008	2.5075	sub-18	1	sequence	choice	choice	NaN	NaN	NaN	NaN	False	NaN	NaN	right	False	4.0	5.0	5.0
377.0460483000006	0.5004	sub-18	1	sequence	feedback	NaN	NaN	NaN	NaN	NaN	NaN	NaN	NaN	NaN	NaN	NaN	NaN	NaN
377.5466816000008	1.0005	sub-18	1	sequence	cue	Haus	NaN	NaN	NaN	NaN	NaN	NaN	NaN	NaN	NaN	NaN	NaN	NaN
378.5471541000006	2.0017	sub-18	1	sequence	blank	blank	NaN	NaN	NaN	NaN	NaN	NaN	NaN	NaN	NaN	NaN	NaN	NaN
380.5488158000008	0.3003	sub-18	1	sequence	fixation	dot	NaN	NaN	NaN	NaN	NaN	NaN	NaN	NaN	NaN	NaN	NaN	NaN
380.8665469000007	0.0992	sub-18	1	sequence	stimulus	Gesicht	NaN	NaN	64.0	NaN	NaN	1.0	1.0	NaN	NaN	NaN	NaN	NaN
380.9656999000008	0.0669	sub-18	1	sequence	interval	dot	NaN	NaN	NaN	NaN	NaN	NaN	NaN	NaN	NaN	NaN	NaN	NaN
381.0325721000008	0.1	sub-18	1	sequence	stimulus	Schuh	NaN	NaN	64.0	NaN	NaN	4.0	2.0	NaN	NaN	NaN	NaN	NaN
381.1325254000003	0.0669	sub-18	1	sequence	interval	dot	NaN	NaN	NaN	NaN	NaN	NaN	NaN	NaN	NaN	NaN	NaN	NaN
381.1994102000008	0.0999	sub-18	1	sequence	stimulus	Stuhl	NaN	NaN	64.0	NaN	NaN	5.0	3.0	NaN	NaN	NaN	NaN	NaN
381.2993511000004	0.0669	sub-18	1	sequence	interval	dot	NaN	NaN	NaN	NaN	NaN	NaN	NaN	NaN	NaN	NaN	NaN	NaN
381.3662208000005	0.0999	sub-18	1	sequence	stimulus	Haus	NaN	NaN	64.0	NaN	NaN	2.0	4.0	NaN	NaN	NaN	NaN	NaN
381.4661167000004	0.0669	sub-18	1	sequence	interval	dot	NaN	NaN	NaN	NaN	NaN	NaN	NaN	NaN	NaN	NaN	NaN	NaN
381.53301400000055	0.0999	sub-18	1	sequence	stimulus	Katze	NaN	NaN	64.0	NaN	NaN	3.0	5.0	NaN	NaN	NaN	NaN	NaN
381.6329135000005	0.0667	sub-18	1	sequence	interval	dot	NaN	NaN	NaN	NaN	NaN	NaN	NaN	NaN	NaN	NaN	NaN	NaN
381.6996142000007	8.3718	sub-18	1	sequence	delay	dot	NaN	NaN	NaN	NaN	NaN	NaN	NaN	NaN	NaN	NaN	NaN	NaN
390.0598647000006	0.714	sub-18	1	sequence	choice	choice	left	NaN	NaN	0.6979535000000396	True	NaN	NaN	left	True	4.0	3.0	4.0
390.7741584000005	0.5001	sub-18	1	sequence	feedback	NaN	NaN	NaN	NaN	NaN	NaN	NaN	NaN	NaN	NaN	NaN	NaN	NaN
391.2744769000001	1.0005	sub-18	1	sequence	cue	Katze	NaN	NaN	NaN	NaN	NaN	NaN	NaN	NaN	NaN	NaN	NaN	NaN
392.2750194	2.0015	sub-18	1	sequence	blank	blank	NaN	NaN	NaN	NaN	NaN	NaN	NaN	NaN	NaN	NaN	NaN	NaN
394.2765310000004	0.3001	sub-18	1	sequence	fixation	dot	NaN	NaN	NaN	NaN	NaN	NaN	NaN	NaN	NaN	NaN	NaN	NaN
394.5949176000004	0.1152	sub-18	1	sequence	stimulus	Haus	NaN	NaN	64.0	NaN	NaN	2.0	1.0	NaN	NaN	NaN	NaN	NaN
394.7100781000008	0.0668	sub-18	1	sequence	interval	dot	NaN	NaN	NaN	NaN	NaN	NaN	NaN	NaN	NaN	NaN	NaN	NaN
394.7769147000008	0.0999	sub-18	1	sequence	stimulus	Gesicht	NaN	NaN	64.0	NaN	NaN	1.0	2.0	NaN	NaN	NaN	NaN	NaN
394.8768235000007	0.0669	sub-18	1	sequence	interval	dot	NaN	NaN	NaN	NaN	NaN	NaN	NaN	NaN	NaN	NaN	NaN	NaN
394.9437113000004	0.0999	sub-18	1	sequence	stimulus	Schuh	NaN	NaN	64.0	NaN	NaN	4.0	3.0	NaN	NaN	NaN	NaN	NaN
395.04364780000014	0.0668	sub-18	1	sequence	interval	dot	NaN	NaN	NaN	NaN	NaN	NaN	NaN	NaN	NaN	NaN	NaN	NaN
395.11044950000087	0.1001	sub-18	1	sequence	stimulus	Stuhl	NaN	NaN	64.0	NaN	NaN	5.0	4.0	NaN	NaN	NaN	NaN	NaN
395.2105386000003	0.0667	sub-18	1	sequence	interval	dot	NaN	NaN	NaN	NaN	NaN	NaN	NaN	NaN	NaN	NaN	NaN	NaN
395.2772678000001	0.1	sub-18	1	sequence	stimulus	Katze	NaN	NaN	64.0	NaN	NaN	3.0	5.0	NaN	NaN	NaN	NaN	NaN
395.3773106000008	0.0668	sub-18	1	sequence	interval	dot	NaN	NaN	NaN	NaN	NaN	NaN	NaN	NaN	NaN	NaN	NaN	NaN
395.4440607000006	8.3885	sub-18	1	sequence	delay	dot	NaN	NaN	NaN	NaN	NaN	NaN	NaN	NaN	NaN	NaN	NaN	NaN
403.8135726	0.738	sub-18	1	sequence	choice	choice	right	NaN	NaN	0.7048635000001013	True	NaN	NaN	right	True	4.0	5.0	5.0
404.5518282000003	0.4999	sub-18	1	sequence	feedback	NaN	NaN	NaN	NaN	NaN	NaN	NaN	NaN	NaN	NaN	NaN	NaN	NaN
405.0518811000002	1.0007	sub-18	1	sequence	cue	Schuh	NaN	NaN	NaN	NaN	NaN	NaN	NaN	NaN	NaN	NaN	NaN	NaN
406.0525806000005	2.0015	sub-18	1	sequence	blank	blank	NaN	NaN	NaN	NaN	NaN	NaN	NaN	NaN	NaN	NaN	NaN	NaN
408.0541238000005	0.3003	sub-18	1	sequence	fixation	dot	NaN	NaN	NaN	NaN	NaN	NaN	NaN	NaN	NaN	NaN	NaN	NaN
408.37198830000034	0.0992	sub-18	1	sequence	stimulus	Schuh	NaN	NaN	32.0	NaN	NaN	4.0	1.0	NaN	NaN	NaN	NaN	NaN
408.471184	0.0334	sub-18	1	sequence	interval	dot	NaN	NaN	NaN	NaN	NaN	NaN	NaN	NaN	NaN	NaN	NaN	NaN
408.5046324000005	0.1002	sub-18	1	sequence	stimulus	Katze	NaN	NaN	32.0	NaN	NaN	3.0	2.0	NaN	NaN	NaN	NaN	NaN
408.6048461	0.0332	sub-18	1	sequence	interval	dot	NaN	NaN	NaN	NaN	NaN	NaN	NaN	NaN	NaN	NaN	NaN	NaN
408.63806230000046	0.1	sub-18	1	sequence	stimulus	Stuhl	NaN	NaN	32.0	NaN	NaN	5.0	3.0	NaN	NaN	NaN	NaN	NaN
408.7380428000006	0.0335	sub-18	1	sequence	interval	dot	NaN	NaN	NaN	NaN	NaN	NaN	NaN	NaN	NaN	NaN	NaN	NaN
408.7715579000005	0.1001	sub-18	1	sequence	stimulus	Haus	NaN	NaN	32.0	NaN	NaN	2.0	4.0	NaN	NaN	NaN	NaN	NaN
408.8716514000007	0.0333	sub-18	1	sequence	interval	dot	NaN	NaN	NaN	NaN	NaN	NaN	NaN	NaN	NaN	NaN	NaN	NaN
408.90494690000014	0.1	sub-18	1	sequence	stimulus	Gesicht	NaN	NaN	32.0	NaN	NaN	1.0	5.0	NaN	NaN	NaN	NaN	NaN
409.0049193000005	0.0333	sub-18	1	sequence	interval	dot	NaN	NaN	NaN	NaN	NaN	NaN	NaN	NaN	NaN	NaN	NaN	NaN
409.0382681000001	8.5555	sub-18	1	sequence	delay	dot	NaN	NaN	NaN	NaN	NaN	NaN	NaN	NaN	NaN	NaN	NaN	NaN
417.5673114000001	0.6621	sub-18	1	sequence	choice	choice	right	NaN	NaN	0.6314553000001979	True	NaN	NaN	right	True	5.0	1.0	1.0
418.2296866000006	0.4999	sub-18	1	sequence	feedback	NaN	NaN	NaN	NaN	NaN	NaN	NaN	NaN	NaN	NaN	NaN	NaN	NaN
418.7297872000008	1.0006	sub-18	1	sequence	cue	Haus	NaN	NaN	NaN	NaN	NaN	NaN	NaN	NaN	NaN	NaN	NaN	NaN
419.73035380000056	2.0017	sub-18	1	sequence	blank	blank	NaN	NaN	NaN	NaN	NaN	NaN	NaN	NaN	NaN	NaN	NaN	NaN
421.7321082000008	0.3003	sub-18	1	sequence	fixation	dot	NaN	NaN	NaN	NaN	NaN	NaN	NaN	NaN	NaN	NaN	NaN	NaN
422.0499065000004	0.099	sub-18	1	sequence	stimulus	Katze	NaN	NaN	128.0	NaN	NaN	3.0	1.0	NaN	NaN	NaN	NaN	NaN
422.1489513000006	0.1336	sub-18	1	sequence	interval	dot	NaN	NaN	NaN	NaN	NaN	NaN	NaN	NaN	NaN	NaN	NaN	NaN
422.2825040000007	0.1	sub-18	1	sequence	stimulus	Schuh	NaN	NaN	128.0	NaN	NaN	4.0	2.0	NaN	NaN	NaN	NaN	NaN
422.3824923000002	0.1336	sub-18	1	sequence	interval	dot	NaN	NaN	NaN	NaN	NaN	NaN	NaN	NaN	NaN	NaN	NaN	NaN
422.5160616000003	0.1001	sub-18	1	sequence	stimulus	Gesicht	NaN	NaN	128.0	NaN	NaN	1.0	3.0	NaN	NaN	NaN	NaN	NaN
422.6161153000003	0.1335	sub-18	1	sequence	interval	dot	NaN	NaN	NaN	NaN	NaN	NaN	NaN	NaN	NaN	NaN	NaN	NaN
422.7496124000008	0.1001	sub-18	1	sequence	stimulus	Haus	NaN	NaN	128.0	NaN	NaN	2.0	4.0	NaN	NaN	NaN	NaN	NaN
422.84970110000086	0.1336	sub-18	1	sequence	interval	dot	NaN	NaN	NaN	NaN	NaN	NaN	NaN	NaN	NaN	NaN	NaN	NaN
422.9833472	0.1002	sub-18	1	sequence	stimulus	Stuhl	NaN	NaN	128.0	NaN	NaN	5.0	5.0	NaN	NaN	NaN	NaN	NaN
423.0834984000003	0.1331	sub-18	1	sequence	interval	dot	NaN	NaN	NaN	NaN	NaN	NaN	NaN	NaN	NaN	NaN	NaN	NaN
423.2165901000008	8.0715	sub-18	1	sequence	delay	dot	NaN	NaN	NaN	NaN	NaN	NaN	NaN	NaN	NaN	NaN	NaN	NaN
431.2689420000006	1.0719	sub-18	1	sequence	choice	choice	right	NaN	NaN	1.0491150999996537	True	NaN	NaN	right	True	2.0	4.0	4.0
432.3410864000007	0.5001	sub-18	1	sequence	feedback	NaN	NaN	NaN	NaN	NaN	NaN	NaN	NaN	NaN	NaN	NaN	NaN	NaN
432.8416584000006	13.8272	sub-18	1	other	break	break	NaN	NaN	NaN	NaN	NaN	NaN	NaN	NaN	NaN	NaN	NaN	NaN
450.4895126000001	0.4996	sub-18	1	localizer	stimulus	Stuhl	NaN	0	2.9354512999998406	NaN	True	NaN	NaN	NaN	NaN	NaN	NaN	NaN
450.9891368000008	2.9355	sub-18	1	localizer	blank	interval	NaN	NaN	NaN	NaN	NaN	NaN	NaN	NaN	NaN	NaN	NaN	NaN
454.2256602000007	0.4996	sub-18	1	localizer	stimulus	Haus	NaN	180	1.951416199999585	0.7914105999998355	True	NaN	NaN	NaN	NaN	NaN	NaN	NaN
454.70870150000064	1.9514	sub-18	1	localizer	blank	interval	NaN	NaN	NaN	NaN	NaN	NaN	NaN	NaN	NaN	NaN	NaN	NaN
456.9612311000001	0.4996	sub-18	1	localizer	stimulus	Stuhl	NaN	0	2.5352517000000603	NaN	True	NaN	NaN	NaN	NaN	NaN	NaN	NaN
457.4442105000008	2.5353	sub-18	1	localizer	blank	interval	NaN	NaN	NaN	NaN	NaN	NaN	NaN	NaN	NaN	NaN	NaN	NaN
460.2805320000007	0.4996	sub-18	1	localizer	stimulus	Katze	NaN	180	3.119169900000088	0.4885696000001189	True	NaN	NaN	NaN	NaN	NaN	NaN	NaN
460.7635708000007	3.1192	sub-18	1	localizer	blank	interval	NaN	NaN	NaN	NaN	NaN	NaN	NaN	NaN	NaN	NaN	NaN	NaN
464.1838458000002	0.4996	sub-18	1	localizer	stimulus	Gesicht	NaN	0	2.7351673000003416	NaN	True	NaN	NaN	NaN	NaN	NaN	NaN	NaN
464.6669674000004	2.7352	sub-18	1	localizer	blank	interval	NaN	NaN	NaN	NaN	NaN	NaN	NaN	NaN	NaN	NaN	NaN	NaN
467.7032111000008	0.4996	sub-18	1	localizer	stimulus	Schuh	NaN	0	3.536204600000076	NaN	True	NaN	NaN	NaN	NaN	NaN	NaN	NaN
468.1862294000002	3.5362	sub-18	1	localizer	blank	interval	NaN	NaN	NaN	NaN	NaN	NaN	NaN	NaN	NaN	NaN	NaN	NaN
472.0233909000008	0.4996	sub-18	1	localizer	stimulus	Stuhl	NaN	0	2.952117700000656	NaN	True	NaN	NaN	NaN	NaN	NaN	NaN	NaN
472.50658440000007	2.9521	sub-18	1	localizer	blank	interval	NaN	NaN	NaN	NaN	NaN	NaN	NaN	NaN	NaN	NaN	NaN	NaN
475.7597099000004	0.4997	sub-18	1	localizer	stimulus	Schuh	NaN	180	2.268364499999791	0.5053553999996439	True	NaN	NaN	NaN	NaN	NaN	NaN	NaN
476.2427492000006	2.2684	sub-18	1	localizer	blank	interval	NaN	NaN	NaN	NaN	NaN	NaN	NaN	NaN	NaN	NaN	NaN	NaN
478.81221170000026	0.4995	sub-18	1	localizer	stimulus	Schuh	NaN	0	2.118284700000004	NaN	True	NaN	NaN	NaN	NaN	NaN	NaN	NaN
479.2952043000005	2.1183	sub-18	1	localizer	blank	interval	NaN	NaN	NaN	NaN	NaN	NaN	NaN	NaN	NaN	NaN	NaN	NaN
481.7145700000001	0.4995	sub-18	1	localizer	stimulus	Gesicht	NaN	0	2.1351432000001296	NaN	True	NaN	NaN	NaN	NaN	NaN	NaN	NaN
482.1975699000004	2.1351	sub-18	1	localizer	blank	interval	NaN	NaN	NaN	NaN	NaN	NaN	NaN	NaN	NaN	NaN	NaN	NaN
484.63359350000064	0.4997	sub-18	1	localizer	stimulus	Stuhl	NaN	0	1.6011264999996797	NaN	True	NaN	NaN	NaN	NaN	NaN	NaN	NaN
485.1166513000008	1.6011	sub-18	1	localizer	blank	interval	NaN	NaN	NaN	NaN	NaN	NaN	NaN	NaN	NaN	NaN	NaN	NaN
487.0188665000005	0.4997	sub-18	1	localizer	stimulus	Gesicht	NaN	0	3.002278400000307	NaN	True	NaN	NaN	NaN	NaN	NaN	NaN	NaN
487.5019252000002	3.0023	sub-18	1	localizer	blank	interval	NaN	NaN	NaN	NaN	NaN	NaN	NaN	NaN	NaN	NaN	NaN	NaN
490.80535110000073	0.4996	sub-18	1	localizer	stimulus	Gesicht	NaN	0	1.901347299999486	NaN	True	NaN	NaN	NaN	NaN	NaN	NaN	NaN
491.2884471000007	1.9013	sub-18	1	localizer	blank	interval	NaN	NaN	NaN	NaN	NaN	NaN	NaN	NaN	NaN	NaN	NaN	NaN
493.4909301000007	0.4995	sub-18	1	localizer	stimulus	Haus	NaN	0	2.2515208000005487	NaN	True	NaN	NaN	NaN	NaN	NaN	NaN	NaN
493.9739121000002	2.2515	sub-18	1	localizer	blank	interval	NaN	NaN	NaN	NaN	NaN	NaN	NaN	NaN	NaN	NaN	NaN	NaN
496.52651290000085	0.4996	sub-18	1	localizer	stimulus	Katze	NaN	0	2.8855457000008755	NaN	True	NaN	NaN	NaN	NaN	NaN	NaN	NaN
497.0095357	2.8855	sub-18	1	localizer	blank	interval	NaN	NaN	NaN	NaN	NaN	NaN	NaN	NaN	NaN	NaN	NaN	NaN
500.19628100000045	0.4995	sub-18	1	localizer	stimulus	Haus	NaN	0	2.0014427000006094	NaN	True	NaN	NaN	NaN	NaN	NaN	NaN	NaN
500.6792272000002	2.0014	sub-18	1	localizer	blank	interval	NaN	NaN	NaN	NaN	NaN	NaN	NaN	NaN	NaN	NaN	NaN	NaN
502.9818011000007	0.4995	sub-18	1	localizer	stimulus	Haus	NaN	0	2.6855100000003063	NaN	True	NaN	NaN	NaN	NaN	NaN	NaN	NaN
503.4647669000005	2.6855	sub-18	1	localizer	blank	interval	NaN	NaN	NaN	NaN	NaN	NaN	NaN	NaN	NaN	NaN	NaN	NaN
506.45136450000064	0.4996	sub-18	1	localizer	stimulus	Gesicht	NaN	180	2.6518544000000475	0.517742800000633	True	NaN	NaN	NaN	NaN	NaN	NaN	NaN
506.93442200000027	2.6519	sub-18	1	localizer	blank	interval	NaN	NaN	NaN	NaN	NaN	NaN	NaN	NaN	NaN	NaN	NaN	NaN
509.8874674000008	0.4996	sub-18	1	localizer	stimulus	Katze	NaN	0	2.8022596999999223	NaN	True	NaN	NaN	NaN	NaN	NaN	NaN	NaN
510.3703309000002	2.8023	sub-18	1	localizer	blank	interval	NaN	NaN	NaN	NaN	NaN	NaN	NaN	NaN	NaN	NaN	NaN	NaN
513.4737594000007	0.4995	sub-18	1	localizer	stimulus	Katze	NaN	0	1.8345910999996704	NaN	True	NaN	NaN	NaN	NaN	NaN	NaN	NaN
513.9567165000008	1.8346	sub-18	1	localizer	blank	interval	NaN	NaN	NaN	NaN	NaN	NaN	NaN	NaN	NaN	NaN	NaN	NaN
516.0923517000001	0.4996	sub-18	1	localizer	stimulus	Schuh	NaN	0	2.35184449999997	NaN	True	NaN	NaN	NaN	NaN	NaN	NaN	NaN
516.5753617	2.3518	sub-18	1	localizer	blank	interval	NaN	NaN	NaN	NaN	NaN	NaN	NaN	NaN	NaN	NaN	NaN	NaN
519.2283902000008	0.4994	sub-18	1	localizer	stimulus	Haus	NaN	0	2.535221299999648	NaN	True	NaN	NaN	NaN	NaN	NaN	NaN	NaN
519.7112585000004	2.5352	sub-18	1	localizer	blank	interval	NaN	NaN	NaN	NaN	NaN	NaN	NaN	NaN	NaN	NaN	NaN	NaN
522.5475491000007	0.4996	sub-18	1	localizer	stimulus	Schuh	NaN	0	2.7189103000000614	NaN	True	NaN	NaN	NaN	NaN	NaN	NaN	NaN
523.0305729000002	2.7189	sub-18	1	localizer	blank	interval	NaN	NaN	NaN	NaN	NaN	NaN	NaN	NaN	NaN	NaN	NaN	NaN
526.0504120000005	0.4997	sub-18	1	localizer	stimulus	Katze	NaN	0	1.6679527999995116	NaN	True	NaN	NaN	NaN	NaN	NaN	NaN	NaN
526.5335231000008	1.668	sub-18	1	localizer	blank	interval	NaN	NaN	NaN	NaN	NaN	NaN	NaN	NaN	NaN	NaN	NaN	NaN
528.5024383	0.4996	sub-18	1	localizer	stimulus	Stuhl	NaN	180	2.2517597999994905	0.4988432000000102	True	NaN	NaN	NaN	NaN	NaN	NaN	NaN
528.9853900000007	2.2518	sub-18	1	localizer	blank	interval	NaN	NaN	NaN	NaN	NaN	NaN	NaN	NaN	NaN	NaN	NaN	NaN
534.7235719	1.0005	sub-18	1	sequence	cue	Gesicht	NaN	NaN	NaN	NaN	NaN	NaN	NaN	NaN	NaN	NaN	NaN	NaN
535.7241235000001	2.0016	sub-18	1	sequence	blank	blank	NaN	NaN	NaN	NaN	NaN	NaN	NaN	NaN	NaN	NaN	NaN	NaN
537.7256890000008	0.3002	sub-18	1	sequence	fixation	dot	NaN	NaN	NaN	NaN	NaN	NaN	NaN	NaN	NaN	NaN	NaN	NaN
538.0437520000005	0.1156	sub-18	1	sequence	stimulus	Schuh	NaN	NaN	32.0	NaN	NaN	4.0	1.0	NaN	NaN	NaN	NaN	NaN
538.1593364	0.0335	sub-18	1	sequence	interval	dot	NaN	NaN	NaN	NaN	NaN	NaN	NaN	NaN	NaN	NaN	NaN	NaN
538.1928257000009	0.1	sub-18	1	sequence	stimulus	Katze	NaN	NaN	32.0	NaN	NaN	3.0	2.0	NaN	NaN	NaN	NaN	NaN
538.2928145000005	0.0335	sub-18	1	sequence	interval	dot	NaN	NaN	NaN	NaN	NaN	NaN	NaN	NaN	NaN	NaN	NaN	NaN
538.3262712000005	0.1	sub-18	1	sequence	stimulus	Stuhl	NaN	NaN	32.0	NaN	NaN	5.0	3.0	NaN	NaN	NaN	NaN	NaN
538.4262905000005	0.0334	sub-18	1	sequence	interval	dot	NaN	NaN	NaN	NaN	NaN	NaN	NaN	NaN	NaN	NaN	NaN	NaN
538.4597311000007	0.0999	sub-18	1	sequence	stimulus	Haus	NaN	NaN	32.0	NaN	NaN	2.0	4.0	NaN	NaN	NaN	NaN	NaN
538.5596657000006	0.0335	sub-18	1	sequence	interval	dot	NaN	NaN	NaN	NaN	NaN	NaN	NaN	NaN	NaN	NaN	NaN	NaN
538.5931879000009	0.0999	sub-18	1	sequence	stimulus	Gesicht	NaN	NaN	32.0	NaN	NaN	1.0	5.0	NaN	NaN	NaN	NaN	NaN
538.6931347000009	0.0334	sub-18	1	sequence	interval	dot	NaN	NaN	NaN	NaN	NaN	NaN	NaN	NaN	NaN	NaN	NaN	NaN
538.7264982000006	8.5221	sub-18	1	sequence	delay	dot	NaN	NaN	NaN	NaN	NaN	NaN	NaN	NaN	NaN	NaN	NaN	NaN
547.2262722000005	0.6413	sub-18	1	sequence	choice	choice	right	NaN	NaN	0.6167087000003448	True	NaN	NaN	right	True	4.0	5.0	5.0
547.8679020000009	0.4999	sub-18	1	sequence	feedback	NaN	NaN	NaN	NaN	NaN	NaN	NaN	NaN	NaN	NaN	NaN	NaN	NaN
548.3679223000008	1.0007	sub-18	1	sequence	cue	Haus	NaN	NaN	NaN	NaN	NaN	NaN	NaN	NaN	NaN	NaN	NaN	NaN
549.3686551000001	2.0016	sub-18	1	sequence	blank	blank	NaN	NaN	NaN	NaN	NaN	NaN	NaN	NaN	NaN	NaN	NaN	NaN
551.3702648000008	0.3002	sub-18	1	sequence	fixation	dot	NaN	NaN	NaN	NaN	NaN	NaN	NaN	NaN	NaN	NaN	NaN	NaN
551.6885808000006	0.1154	sub-18	1	sequence	stimulus	Stuhl	NaN	NaN	512.0	NaN	NaN	5.0	1.0	NaN	NaN	NaN	NaN	NaN
551.8039738000007	0.5172	sub-18	1	sequence	interval	dot	NaN	NaN	NaN	NaN	NaN	NaN	NaN	NaN	NaN	NaN	NaN	NaN
552.3211796000005	0.1	sub-18	1	sequence	stimulus	Schuh	NaN	NaN	512.0	NaN	NaN	4.0	2.0	NaN	NaN	NaN	NaN	NaN
552.4211940000005	0.517	sub-18	1	sequence	interval	dot	NaN	NaN	NaN	NaN	NaN	NaN	NaN	NaN	NaN	NaN	NaN	NaN
552.9381911	0.1	sub-18	1	sequence	stimulus	Katze	NaN	NaN	512.0	NaN	NaN	3.0	3.0	NaN	NaN	NaN	NaN	NaN
553.0382179000007	0.5172	sub-18	1	sequence	interval	dot	NaN	NaN	NaN	NaN	NaN	NaN	NaN	NaN	NaN	NaN	NaN	NaN
553.5554002000008	0.1	sub-18	1	sequence	stimulus	Gesicht	NaN	NaN	512.0	NaN	NaN	1.0	4.0	NaN	NaN	NaN	NaN	NaN
553.6554140000007	0.5172	sub-18	1	sequence	interval	dot	NaN	NaN	NaN	NaN	NaN	NaN	NaN	NaN	NaN	NaN	NaN	NaN
554.1726332000007	0.1001	sub-18	1	sequence	stimulus	Haus	NaN	NaN	512.0	NaN	NaN	2.0	5.0	NaN	NaN	NaN	NaN	NaN
554.2727102000008	0.5169	sub-18	1	sequence	interval	dot	NaN	NaN	NaN	NaN	NaN	NaN	NaN	NaN	NaN	NaN	NaN	NaN
554.7895984000006	6.1534	sub-18	1	sequence	delay	dot	NaN	NaN	NaN	NaN	NaN	NaN	NaN	NaN	NaN	NaN	NaN	NaN
560.9282635000009	0.6003	sub-18	1	sequence	choice	choice	left	NaN	NaN	0.5701695999996446	True	NaN	NaN	left	True	5.0	3.0	5.0
561.5288575000004	0.5	sub-18	1	sequence	feedback	NaN	NaN	NaN	NaN	NaN	NaN	NaN	NaN	NaN	NaN	NaN	NaN	NaN
562.0290750000004	1.0005	sub-18	1	sequence	cue	Katze	NaN	NaN	NaN	NaN	NaN	NaN	NaN	NaN	NaN	NaN	NaN	NaN
563.0295545000008	2.0016	sub-18	1	sequence	blank	blank	NaN	NaN	NaN	NaN	NaN	NaN	NaN	NaN	NaN	NaN	NaN	NaN
565.0311558000003	0.3002	sub-18	1	sequence	fixation	dot	NaN	NaN	NaN	NaN	NaN	NaN	NaN	NaN	NaN	NaN	NaN	NaN
565.3488834000009	0.0992	sub-18	1	sequence	stimulus	Haus	NaN	NaN	64.0	NaN	NaN	2.0	1.0	NaN	NaN	NaN	NaN	NaN
565.4481186000003	0.0668	sub-18	1	sequence	interval	dot	NaN	NaN	NaN	NaN	NaN	NaN	NaN	NaN	NaN	NaN	NaN	NaN
565.5149209000001	0.1	sub-18	1	sequence	stimulus	Gesicht	NaN	NaN	64.0	NaN	NaN	1.0	2.0	NaN	NaN	NaN	NaN	NaN
565.6149410000007	0.0669	sub-18	1	sequence	interval	dot	NaN	NaN	NaN	NaN	NaN	NaN	NaN	NaN	NaN	NaN	NaN	NaN
565.6817916	0.0999	sub-18	1	sequence	stimulus	Schuh	NaN	NaN	64.0	NaN	NaN	4.0	3.0	NaN	NaN	NaN	NaN	NaN
565.7816684000009	0.0669	sub-18	1	sequence	interval	dot	NaN	NaN	NaN	NaN	NaN	NaN	NaN	NaN	NaN	NaN	NaN	NaN
565.8485611000006	0.0999	sub-18	1	sequence	stimulus	Stuhl	NaN	NaN	64.0	NaN	NaN	5.0	4.0	NaN	NaN	NaN	NaN	NaN
565.9484566000001	0.0669	sub-18	1	sequence	interval	dot	NaN	NaN	NaN	NaN	NaN	NaN	NaN	NaN	NaN	NaN	NaN	NaN
566.0154031000002	0.0999	sub-18	1	sequence	stimulus	Katze	NaN	NaN	64.0	NaN	NaN	3.0	5.0	NaN	NaN	NaN	NaN	NaN
566.1153269000006	0.0667	sub-18	1	sequence	interval	dot	NaN	NaN	NaN	NaN	NaN	NaN	NaN	NaN	NaN	NaN	NaN	NaN
566.1820526000001	8.3888	sub-18	1	sequence	delay	dot	NaN	NaN	NaN	NaN	NaN	NaN	NaN	NaN	NaN	NaN	NaN	NaN
574.5521186000005	0.6209	sub-18	1	sequence	choice	choice	left	NaN	NaN	0.5984400000006644	True	NaN	NaN	left	True	5.0	4.0	5.0
575.1732357000001	0.5	sub-18	1	sequence	feedback	NaN	NaN	NaN	NaN	NaN	NaN	NaN	NaN	NaN	NaN	NaN	NaN	NaN
575.6734730000007	1.0005	sub-18	1	sequence	cue	Katze	NaN	NaN	NaN	NaN	NaN	NaN	NaN	NaN	NaN	NaN	NaN	NaN
576.6739364000005	2.0015	sub-18	1	sequence	blank	blank	NaN	NaN	NaN	NaN	NaN	NaN	NaN	NaN	NaN	NaN	NaN	NaN
578.6754889000003	0.3003	sub-18	1	sequence	fixation	dot	NaN	NaN	NaN	NaN	NaN	NaN	NaN	NaN	NaN	NaN	NaN	NaN
578.9940981000009	0.1151	sub-18	1	sequence	stimulus	Gesicht	NaN	NaN	64.0	NaN	NaN	1.0	1.0	NaN	NaN	NaN	NaN	NaN
579.1091642000001	0.0668	sub-18	1	sequence	interval	dot	NaN	NaN	NaN	NaN	NaN	NaN	NaN	NaN	NaN	NaN	NaN	NaN
579.1759736000004	0.1	sub-18	1	sequence	stimulus	Schuh	NaN	NaN	64.0	NaN	NaN	4.0	2.0	NaN	NaN	NaN	NaN	NaN
579.2759430000006	0.0669	sub-18	1	sequence	interval	dot	NaN	NaN	NaN	NaN	NaN	NaN	NaN	NaN	NaN	NaN	NaN	NaN
579.3428261000008	0.0999	sub-18	1	sequence	stimulus	Stuhl	NaN	NaN	64.0	NaN	NaN	5.0	3.0	NaN	NaN	NaN	NaN	NaN
579.4427627000005	0.0669	sub-18	1	sequence	interval	dot	NaN	NaN	NaN	NaN	NaN	NaN	NaN	NaN	NaN	NaN	NaN	NaN
579.5096156000009	0.0999	sub-18	1	sequence	stimulus	Haus	NaN	NaN	64.0	NaN	NaN	2.0	4.0	NaN	NaN	NaN	NaN	NaN
579.6095441000007	0.0668	sub-18	1	sequence	interval	dot	NaN	NaN	NaN	NaN	NaN	NaN	NaN	NaN	NaN	NaN	NaN	NaN
579.6763839000005	0.1	sub-18	1	sequence	stimulus	Katze	NaN	NaN	64.0	NaN	NaN	3.0	5.0	NaN	NaN	NaN	NaN	NaN
579.7763545000007	0.0667	sub-18	1	sequence	interval	dot	NaN	NaN	NaN	NaN	NaN	NaN	NaN	NaN	NaN	NaN	NaN	NaN
579.8430725000007	8.372	sub-18	1	sequence	delay	dot	NaN	NaN	NaN	NaN	NaN	NaN	NaN	NaN	NaN	NaN	NaN	NaN
588.2014401000006	0.6326	sub-18	1	sequence	choice	choice	left	NaN	NaN	0.6101312000000689	True	NaN	NaN	left	True	5.0	4.0	5.0
588.8343447000007	0.5001	sub-18	1	sequence	feedback	NaN	NaN	NaN	NaN	NaN	NaN	NaN	NaN	NaN	NaN	NaN	NaN	NaN
589.3346503000002	1.0004	sub-18	1	sequence	cue	Stuhl	NaN	NaN	NaN	NaN	NaN	NaN	NaN	NaN	NaN	NaN	NaN	NaN
590.3350712000001	2.0016	sub-18	1	sequence	blank	blank	NaN	NaN	NaN	NaN	NaN	NaN	NaN	NaN	NaN	NaN	NaN	NaN
592.3366895000008	0.3002	sub-18	1	sequence	fixation	dot	NaN	NaN	NaN	NaN	NaN	NaN	NaN	NaN	NaN	NaN	NaN	NaN
592.6550474000005	0.1153	sub-18	1	sequence	stimulus	Gesicht	NaN	NaN	32.0	NaN	NaN	1.0	1.0	NaN	NaN	NaN	NaN	NaN
592.7703539000004	0.0335	sub-18	1	sequence	interval	dot	NaN	NaN	NaN	NaN	NaN	NaN	NaN	NaN	NaN	NaN	NaN	NaN
592.8038188	0.1	sub-18	1	sequence	stimulus	Schuh	NaN	NaN	32.0	NaN	NaN	4.0	2.0	NaN	NaN	NaN	NaN	NaN
592.9037909000008	0.0334	sub-18	1	sequence	interval	dot	NaN	NaN	NaN	NaN	NaN	NaN	NaN	NaN	NaN	NaN	NaN	NaN
592.9372295000003	0.1	sub-18	1	sequence	stimulus	Stuhl	NaN	NaN	32.0	NaN	NaN	5.0	3.0	NaN	NaN	NaN	NaN	NaN
593.0372039000003	0.0335	sub-18	1	sequence	interval	dot	NaN	NaN	NaN	NaN	NaN	NaN	NaN	NaN	NaN	NaN	NaN	NaN
593.0706837000007	0.0999	sub-18	1	sequence	stimulus	Katze	NaN	NaN	32.0	NaN	NaN	3.0	4.0	NaN	NaN	NaN	NaN	NaN
593.1706322	0.0335	sub-18	1	sequence	interval	dot	NaN	NaN	NaN	NaN	NaN	NaN	NaN	NaN	NaN	NaN	NaN	NaN
593.2041683000007	0.0999	sub-18	1	sequence	stimulus	Haus	NaN	NaN	32.0	NaN	NaN	2.0	5.0	NaN	NaN	NaN	NaN	NaN
593.3041021000008	0.0334	sub-18	1	sequence	interval	dot	NaN	NaN	NaN	NaN	NaN	NaN	NaN	NaN	NaN	NaN	NaN	NaN
593.3374539000006	8.5386	sub-18	1	sequence	delay	dot	NaN	NaN	NaN	NaN	NaN	NaN	NaN	NaN	NaN	NaN	NaN	NaN
601.8511717000001	0.7606	sub-18	1	sequence	choice	choice	right	NaN	NaN	0.7251304000001255	True	NaN	NaN	right	True	5.0	3.0	3.0
602.6120053000004	0.5	sub-18	1	sequence	feedback	NaN	NaN	NaN	NaN	NaN	NaN	NaN	NaN	NaN	NaN	NaN	NaN	NaN
603.1122495000009	1.0005	sub-18	1	sequence	cue	Haus	NaN	NaN	NaN	NaN	NaN	NaN	NaN	NaN	NaN	NaN	NaN	NaN
604.1127481000003	2.0016	sub-18	1	sequence	blank	blank	NaN	NaN	NaN	NaN	NaN	NaN	NaN	NaN	NaN	NaN	NaN	NaN
606.1143858000005	0.3002	sub-18	1	sequence	fixation	dot	NaN	NaN	NaN	NaN	NaN	NaN	NaN	NaN	NaN	NaN	NaN	NaN
606.4320306000009	0.0994	sub-18	1	sequence	stimulus	Katze	NaN	NaN	128.0	NaN	NaN	3.0	1.0	NaN	NaN	NaN	NaN	NaN
606.5313835000006	0.1336	sub-18	1	sequence	interval	dot	NaN	NaN	NaN	NaN	NaN	NaN	NaN	NaN	NaN	NaN	NaN	NaN
606.6649360000001	0.0999	sub-18	1	sequence	stimulus	Schuh	NaN	NaN	128.0	NaN	NaN	4.0	2.0	NaN	NaN	NaN	NaN	NaN
606.7648340000005	0.1336	sub-18	1	sequence	interval	dot	NaN	NaN	NaN	NaN	NaN	NaN	NaN	NaN	NaN	NaN	NaN	NaN
606.8984114000004	0.1	sub-18	1	sequence	stimulus	Gesicht	NaN	NaN	128.0	NaN	NaN	1.0	3.0	NaN	NaN	NaN	NaN	NaN
606.9984197000003	0.1335	sub-18	1	sequence	interval	dot	NaN	NaN	NaN	NaN	NaN	NaN	NaN	NaN	NaN	NaN	NaN	NaN
607.1319272000001	0.1	sub-18	1	sequence	stimulus	Haus	NaN	NaN	128.0	NaN	NaN	2.0	4.0	NaN	NaN	NaN	NaN	NaN
607.2319533	0.1335	sub-18	1	sequence	interval	dot	NaN	NaN	NaN	NaN	NaN	NaN	NaN	NaN	NaN	NaN	NaN	NaN
607.3654246000006	0.1	sub-18	1	sequence	stimulus	Stuhl	NaN	NaN	128.0	NaN	NaN	5.0	5.0	NaN	NaN	NaN	NaN	NaN
607.4653909000008	0.1335	sub-18	1	sequence	interval	dot	NaN	NaN	NaN	NaN	NaN	NaN	NaN	NaN	NaN	NaN	NaN	NaN
607.5988565000007	8.0718	sub-18	1	sequence	delay	dot	NaN	NaN	NaN	NaN	NaN	NaN	NaN	NaN	NaN	NaN	NaN	NaN
615.6568131000004	0.7327	sub-18	1	sequence	choice	choice	left	NaN	NaN	0.7065171000003829	True	NaN	NaN	left	True	4.0	5.0	4.0
616.3898033000005	0.4999	sub-18	1	sequence	feedback	NaN	NaN	NaN	NaN	NaN	NaN	NaN	NaN	NaN	NaN	NaN	NaN	NaN
616.8898653000006	1.0008	sub-18	1	sequence	cue	Gesicht	NaN	NaN	NaN	NaN	NaN	NaN	NaN	NaN	NaN	NaN	NaN	NaN
617.8906974000001	2.0015	sub-18	1	sequence	blank	blank	NaN	NaN	NaN	NaN	NaN	NaN	NaN	NaN	NaN	NaN	NaN	NaN
619.8922120000007	0.3002	sub-18	1	sequence	fixation	dot	NaN	NaN	NaN	NaN	NaN	NaN	NaN	NaN	NaN	NaN	NaN	NaN
620.2107583000006	0.1151	sub-18	1	sequence	stimulus	Stuhl	NaN	NaN	128.0	NaN	NaN	5.0	1.0	NaN	NaN	NaN	NaN	NaN
620.3258086000005	0.1336	sub-18	1	sequence	interval	dot	NaN	NaN	NaN	NaN	NaN	NaN	NaN	NaN	NaN	NaN	NaN	NaN
620.4594582000009	0.0999	sub-18	1	sequence	stimulus	Schuh	NaN	NaN	128.0	NaN	NaN	4.0	2.0	NaN	NaN	NaN	NaN	NaN
620.5593637000002	0.1335	sub-18	1	sequence	interval	dot	NaN	NaN	NaN	NaN	NaN	NaN	NaN	NaN	NaN	NaN	NaN	NaN
620.6928988000009	0.1	sub-18	1	sequence	stimulus	Katze	NaN	NaN	128.0	NaN	NaN	3.0	3.0	NaN	NaN	NaN	NaN	NaN
620.7929440000007	0.1336	sub-18	1	sequence	interval	dot	NaN	NaN	NaN	NaN	NaN	NaN	NaN	NaN	NaN	NaN	NaN	NaN
620.9265114000009	0.0999	sub-18	1	sequence	stimulus	Haus	NaN	NaN	128.0	NaN	NaN	2.0	4.0	NaN	NaN	NaN	NaN	NaN
621.0263719000004	0.1336	sub-18	1	sequence	interval	dot	NaN	NaN	NaN	NaN	NaN	NaN	NaN	NaN	NaN	NaN	NaN	NaN
621.1599935000004	0.1	sub-18	1	sequence	stimulus	Gesicht	NaN	NaN	128.0	NaN	NaN	1.0	5.0	NaN	NaN	NaN	NaN	NaN
621.2600075	0.1334	sub-18	1	sequence	interval	dot	NaN	NaN	NaN	NaN	NaN	NaN	NaN	NaN	NaN	NaN	NaN	NaN
621.3933853000008	8.0714	sub-18	1	sequence	delay	dot	NaN	NaN	NaN	NaN	NaN	NaN	NaN	NaN	NaN	NaN	NaN	NaN
629.4366980000004	0.7309	sub-18	1	sequence	choice	choice	right	NaN	NaN	0.6882944999997562	True	NaN	NaN	right	True	2.0	5.0	5.0
630.1678514000005	0.4999	sub-18	1	sequence	feedback	NaN	NaN	NaN	NaN	NaN	NaN	NaN	NaN	NaN	NaN	NaN	NaN	NaN
630.6678625000004	1.0006	sub-18	1	sequence	cue	Haus	NaN	NaN	NaN	NaN	NaN	NaN	NaN	NaN	NaN	NaN	NaN	NaN
631.6684663000005	2.0017	sub-18	1	sequence	blank	blank	NaN	NaN	NaN	NaN	NaN	NaN	NaN	NaN	NaN	NaN	NaN	NaN
633.6701890000004	0.3001	sub-18	1	sequence	fixation	dot	NaN	NaN	NaN	NaN	NaN	NaN	NaN	NaN	NaN	NaN	NaN	NaN
633.9885049000004	0.1153	sub-18	1	sequence	stimulus	Stuhl	NaN	NaN	512.0	NaN	NaN	5.0	1.0	NaN	NaN	NaN	NaN	NaN
634.1038221000008	0.5173	sub-18	1	sequence	interval	dot	NaN	NaN	NaN	NaN	NaN	NaN	NaN	NaN	NaN	NaN	NaN	NaN
634.6211208000004	0.0999	sub-18	1	sequence	stimulus	Haus	NaN	NaN	512.0	NaN	NaN	2.0	2.0	NaN	NaN	NaN	NaN	NaN
634.7210493000002	0.5172	sub-18	1	sequence	interval	dot	NaN	NaN	NaN	NaN	NaN	NaN	NaN	NaN	NaN	NaN	NaN	NaN
635.2382038000005	0.1	sub-18	1	sequence	stimulus	Schuh	NaN	NaN	512.0	NaN	NaN	4.0	3.0	NaN	NaN	NaN	NaN	NaN
635.3381846000002	0.517	sub-18	1	sequence	interval	dot	NaN	NaN	NaN	NaN	NaN	NaN	NaN	NaN	NaN	NaN	NaN	NaN
635.8551578000006	0.1001	sub-18	1	sequence	stimulus	Gesicht	NaN	NaN	512.0	NaN	NaN	1.0	4.0	NaN	NaN	NaN	NaN	NaN
635.9552231000007	0.5172	sub-18	1	sequence	interval	dot	NaN	NaN	NaN	NaN	NaN	NaN	NaN	NaN	NaN	NaN	NaN	NaN
636.4724379000008	0.0998	sub-18	1	sequence	stimulus	Katze	NaN	NaN	512.0	NaN	NaN	3.0	5.0	NaN	NaN	NaN	NaN	NaN
636.5722843000003	0.5171	sub-18	1	sequence	interval	dot	NaN	NaN	NaN	NaN	NaN	NaN	NaN	NaN	NaN	NaN	NaN	NaN
637.0893493000003	6.1534	sub-18	1	sequence	delay	dot	NaN	NaN	NaN	NaN	NaN	NaN	NaN	NaN	NaN	NaN	NaN	NaN
643.2161623000002	0.7457	sub-18	1	sequence	choice	choice	right	NaN	NaN	0.7184045000003607	True	NaN	NaN	right	True	3.0	2.0	2.0
643.9621012000007	0.5001	sub-18	1	sequence	feedback	NaN	NaN	NaN	NaN	NaN	NaN	NaN	NaN	NaN	NaN	NaN	NaN	NaN
648.2825818000001	0.4995	sub-18	1	localizer	stimulus	Gesicht	NaN	0	2.7689197999998214	NaN	True	NaN	NaN	NaN	NaN	NaN	NaN	NaN
648.7655971000004	2.7689	sub-18	1	localizer	blank	interval	NaN	NaN	NaN	NaN	NaN	NaN	NaN	NaN	NaN	NaN	NaN	NaN
651.8356661000007	0.4995	sub-18	1	localizer	stimulus	Haus	NaN	0	2.1348276999997324	NaN	True	NaN	NaN	NaN	NaN	NaN	NaN	NaN
652.3186675000006	2.1348	sub-18	1	localizer	blank	interval	NaN	NaN	NaN	NaN	NaN	NaN	NaN	NaN	NaN	NaN	NaN	NaN
654.7547018000005	0.4996	sub-18	1	localizer	stimulus	Haus	NaN	180	1.8011443000004874	0.7503124999993815	True	NaN	NaN	NaN	NaN	NaN	NaN	NaN
655.2377722000001	1.8011	sub-18	1	localizer	blank	interval	NaN	NaN	NaN	NaN	NaN	NaN	NaN	NaN	NaN	NaN	NaN	NaN
657.3399081000007	0.4997	sub-18	1	localizer	stimulus	Gesicht	NaN	0	2.0015225000006467	NaN	True	NaN	NaN	NaN	NaN	NaN	NaN	NaN
657.8230099000002	2.0015	sub-18	1	localizer	blank	interval	NaN	NaN	NaN	NaN	NaN	NaN	NaN	NaN	NaN	NaN	NaN	NaN
660.1255901000004	0.4995	sub-18	1	localizer	stimulus	Gesicht	NaN	0	2.952205500000673	NaN	True	NaN	NaN	NaN	NaN	NaN	NaN	NaN
660.6085707000002	2.9522	sub-18	1	localizer	blank	interval	NaN	NaN	NaN	NaN	NaN	NaN	NaN	NaN	NaN	NaN	NaN	NaN
663.8618271000005	0.4997	sub-18	1	localizer	stimulus	Stuhl	NaN	180	2.7187770000000455	0.6351402999998754	True	NaN	NaN	NaN	NaN	NaN	NaN	NaN
664.3448733000005	2.7188	sub-18	1	localizer	blank	interval	NaN	NaN	NaN	NaN	NaN	NaN	NaN	NaN	NaN	NaN	NaN	NaN
667.3646548000006	0.4997	sub-18	1	localizer	stimulus	Katze	NaN	0	1.8679908000003707	NaN	True	NaN	NaN	NaN	NaN	NaN	NaN	NaN
667.8477702	1.868	sub-18	1	localizer	blank	interval	NaN	NaN	NaN	NaN	NaN	NaN	NaN	NaN	NaN	NaN	NaN	NaN
670.0168129000003	0.4996	sub-18	1	localizer	stimulus	Haus	NaN	0	1.6180103000006056	NaN	True	NaN	NaN	NaN	NaN	NaN	NaN	NaN
670.4998205000002	1.618	sub-18	1	localizer	blank	interval	NaN	NaN	NaN	NaN	NaN	NaN	NaN	NaN	NaN	NaN	NaN	NaN
672.4189482000002	0.4996	sub-18	1	localizer	stimulus	Stuhl	NaN	0	2.9187074999999822	NaN	True	NaN	NaN	NaN	NaN	NaN	NaN	NaN
672.9020890000002	2.9187	sub-18	1	localizer	blank	interval	NaN	NaN	NaN	NaN	NaN	NaN	NaN	NaN	NaN	NaN	NaN	NaN
676.1217963000008	0.4996	sub-18	1	localizer	stimulus	Stuhl	NaN	0	1.9181195999999545	NaN	True	NaN	NaN	NaN	NaN	NaN	NaN	NaN
676.6047651000008	1.9181	sub-18	1	localizer	blank	interval	NaN	NaN	NaN	NaN	NaN	NaN	NaN	NaN	NaN	NaN	NaN	NaN
678.8239723000006	0.4995	sub-18	1	localizer	stimulus	Haus	NaN	0	1.6678888000005827	NaN	True	NaN	NaN	NaN	NaN	NaN	NaN	NaN
679.3069499000003	1.6679	sub-18	1	localizer	blank	interval	NaN	NaN	NaN	NaN	NaN	NaN	NaN	NaN	NaN	NaN	NaN	NaN
681.2759220000007	0.4995	sub-18	1	localizer	stimulus	Schuh	NaN	0	1.5844744000005448	NaN	True	NaN	NaN	NaN	NaN	NaN	NaN	NaN
681.7589391000001	1.5845	sub-18	1	localizer	blank	interval	NaN	NaN	NaN	NaN	NaN	NaN	NaN	NaN	NaN	NaN	NaN	NaN
683.6445605000008	0.4995	sub-18	1	localizer	stimulus	Schuh	NaN	0	2.618689400000221	NaN	True	NaN	NaN	NaN	NaN	NaN	NaN	NaN
684.1274903000003	2.6187	sub-18	1	localizer	blank	interval	NaN	NaN	NaN	NaN	NaN	NaN	NaN	NaN	NaN	NaN	NaN	NaN
687.0472452000004	0.4996	sub-18	1	localizer	stimulus	Gesicht	NaN	180	2.4351950999998735	0.513985199999297	True	NaN	NaN	NaN	NaN	NaN	NaN	NaN
687.5302754000004	2.4352	sub-18	1	localizer	blank	interval	NaN	NaN	NaN	NaN	NaN	NaN	NaN	NaN	NaN	NaN	NaN	NaN
690.2665498000006	0.4995	sub-18	1	localizer	stimulus	Schuh	NaN	0	2.4021656999993866	NaN	True	NaN	NaN	NaN	NaN	NaN	NaN	NaN
690.7495978000006	2.4022	sub-18	1	localizer	blank	interval	NaN	NaN	NaN	NaN	NaN	NaN	NaN	NaN	NaN	NaN	NaN	NaN
693.4525423000005	0.4997	sub-18	1	localizer	stimulus	Haus	NaN	0	2.5517458999993323	NaN	True	NaN	NaN	NaN	NaN	NaN	NaN	NaN
693.9357308000008	2.5517	sub-18	1	localizer	blank	interval	NaN	NaN	NaN	NaN	NaN	NaN	NaN	NaN	NaN	NaN	NaN	NaN
696.7885090000009	0.4996	sub-18	1	localizer	stimulus	Katze	NaN	180	2.251707099999294	0.4844920000005004	True	NaN	NaN	NaN	NaN	NaN	NaN	NaN
697.2714674000008	2.2517	sub-18	1	localizer	blank	interval	NaN	NaN	NaN	NaN	NaN	NaN	NaN	NaN	NaN	NaN	NaN	NaN
699.8242912000005	0.4996	sub-18	1	localizer	stimulus	Stuhl	NaN	0	2.4351886000004015	NaN	True	NaN	NaN	NaN	NaN	NaN	NaN	NaN
700.3072603	2.4352	sub-18	1	localizer	blank	interval	NaN	NaN	NaN	NaN	NaN	NaN	NaN	NaN	NaN	NaN	NaN	NaN
703.0434990000003	0.4996	sub-18	1	localizer	stimulus	Schuh	NaN	0	2.3518074000003253	NaN	True	NaN	NaN	NaN	NaN	NaN	NaN	NaN
703.5265416000002	2.3518	sub-18	1	localizer	blank	interval	NaN	NaN	NaN	NaN	NaN	NaN	NaN	NaN	NaN	NaN	NaN	NaN
706.1794541000008	0.4995	sub-18	1	localizer	stimulus	Stuhl	NaN	0	2.0015371999998024	NaN	True	NaN	NaN	NaN	NaN	NaN	NaN	NaN
706.6623888000004	2.0015	sub-18	1	localizer	blank	interval	NaN	NaN	NaN	NaN	NaN	NaN	NaN	NaN	NaN	NaN	NaN	NaN
708.9651000000003	0.4995	sub-18	1	localizer	stimulus	Gesicht	NaN	0	2.7187537999998312	0.5000092999998742	False	NaN	NaN	NaN	NaN	NaN	NaN	NaN
709.4479851000006	2.7188	sub-18	1	localizer	blank	interval	NaN	NaN	NaN	NaN	NaN	NaN	NaN	NaN	NaN	NaN	NaN	NaN
712.4680963000001	0.4994	sub-18	1	localizer	stimulus	Katze	NaN	0	2.935804800000369	NaN	True	NaN	NaN	NaN	NaN	NaN	NaN	NaN
712.9509268000002	2.9358	sub-18	1	localizer	blank	interval	NaN	NaN	NaN	NaN	NaN	NaN	NaN	NaN	NaN	NaN	NaN	NaN
716.1880324000003	0.4992	sub-18	1	localizer	stimulus	Schuh	NaN	180	1.567692800000259	0.5571706999999151	True	NaN	NaN	NaN	NaN	NaN	NaN	NaN
716.6706707000003	1.5677	sub-18	1	localizer	blank	interval	NaN	NaN	NaN	NaN	NaN	NaN	NaN	NaN	NaN	NaN	NaN	NaN
718.5393923000001	0.4996	sub-18	1	localizer	stimulus	Katze	NaN	0	3.4026597000001857	NaN	True	NaN	NaN	NaN	NaN	NaN	NaN	NaN
719.0224944000001	3.4027	sub-18	1	localizer	blank	interval	NaN	NaN	NaN	NaN	NaN	NaN	NaN	NaN	NaN	NaN	NaN	NaN
722.7261267000003	0.4996	sub-18	1	localizer	stimulus	Katze	NaN	0	2.084922699999879	NaN	True	NaN	NaN	NaN	NaN	NaN	NaN	NaN
723.2091742000002	2.0849	sub-18	1	localizer	blank	interval	NaN	NaN	NaN	NaN	NaN	NaN	NaN	NaN	NaN	NaN	NaN	NaN
728.7806105000009	1.0011	sub-18	1	sequence	cue	Schuh	NaN	NaN	NaN	NaN	NaN	NaN	NaN	NaN	NaN	NaN	NaN	NaN
729.7817376000003	2.0012	sub-18	1	sequence	blank	blank	NaN	NaN	NaN	NaN	NaN	NaN	NaN	NaN	NaN	NaN	NaN	NaN
731.7829119000007	0.3	sub-18	1	sequence	fixation	dot	NaN	NaN	NaN	NaN	NaN	NaN	NaN	NaN	NaN	NaN	NaN	NaN
732.1015502	0.1147	sub-18	1	sequence	stimulus	Stuhl	NaN	NaN	512.0	NaN	NaN	5.0	1.0	NaN	NaN	NaN	NaN	NaN
732.2162768000007	0.5175	sub-18	1	sequence	interval	dot	NaN	NaN	NaN	NaN	NaN	NaN	NaN	NaN	NaN	NaN	NaN	NaN
732.7338052000005	0.0998	sub-18	1	sequence	stimulus	Haus	NaN	NaN	512.0	NaN	NaN	2.0	2.0	NaN	NaN	NaN	NaN	NaN
732.8336283000008	0.5174	sub-18	1	sequence	interval	dot	NaN	NaN	NaN	NaN	NaN	NaN	NaN	NaN	NaN	NaN	NaN	NaN
733.3509984000002	0.1001	sub-18	1	sequence	stimulus	Schuh	NaN	NaN	512.0	NaN	NaN	4.0	3.0	NaN	NaN	NaN	NaN	NaN
733.4510893000006	0.5171	sub-18	1	sequence	interval	dot	NaN	NaN	NaN	NaN	NaN	NaN	NaN	NaN	NaN	NaN	NaN	NaN
733.9682325000003	0.0999	sub-18	1	sequence	stimulus	Gesicht	NaN	NaN	512.0	NaN	NaN	1.0	4.0	NaN	NaN	NaN	NaN	NaN
734.0681734000009	0.5173	sub-18	1	sequence	interval	dot	NaN	NaN	NaN	NaN	NaN	NaN	NaN	NaN	NaN	NaN	NaN	NaN
734.5854412000008	0.1	sub-18	1	sequence	stimulus	Katze	NaN	NaN	512.0	NaN	NaN	3.0	5.0	NaN	NaN	NaN	NaN	NaN
734.6853969000003	0.5171	sub-18	1	sequence	interval	dot	NaN	NaN	NaN	NaN	NaN	NaN	NaN	NaN	NaN	NaN	NaN	NaN
735.2025171000005	6.153	sub-18	1	sequence	delay	dot	NaN	NaN	NaN	NaN	NaN	NaN	NaN	NaN	NaN	NaN	NaN	NaN
741.3380384000002	0.8032	sub-18	1	sequence	choice	choice	right	NaN	NaN	0.7815782999996372	True	NaN	NaN	right	True	2.0	3.0	3.0
742.1415851000002	0.5	sub-18	1	sequence	feedback	NaN	NaN	NaN	NaN	NaN	NaN	NaN	NaN	NaN	NaN	NaN	NaN	NaN
742.6417644000003	1.0005	sub-18	1	sequence	cue	Stuhl	NaN	NaN	NaN	NaN	NaN	NaN	NaN	NaN	NaN	NaN	NaN	NaN
743.6422356000003	2.0016	sub-18	1	sequence	blank	blank	NaN	NaN	NaN	NaN	NaN	NaN	NaN	NaN	NaN	NaN	NaN	NaN
745.6438680000001	0.3002	sub-18	1	sequence	fixation	dot	NaN	NaN	NaN	NaN	NaN	NaN	NaN	NaN	NaN	NaN	NaN	NaN
745.9616243	0.0992	sub-18	1	sequence	stimulus	Gesicht	NaN	NaN	64.0	NaN	NaN	1.0	1.0	NaN	NaN	NaN	NaN	NaN
746.0608577000003	0.0668	sub-18	1	sequence	interval	dot	NaN	NaN	NaN	NaN	NaN	NaN	NaN	NaN	NaN	NaN	NaN	NaN
746.1276617000003	0.1	sub-18	1	sequence	stimulus	Schuh	NaN	NaN	64.0	NaN	NaN	4.0	2.0	NaN	NaN	NaN	NaN	NaN
746.2276350000002	0.0668	sub-18	1	sequence	interval	dot	NaN	NaN	NaN	NaN	NaN	NaN	NaN	NaN	NaN	NaN	NaN	NaN
746.2944424000007	0.1	sub-18	1	sequence	stimulus	Stuhl	NaN	NaN	64.0	NaN	NaN	5.0	3.0	NaN	NaN	NaN	NaN	NaN
746.3944338000001	0.0668	sub-18	1	sequence	interval	dot	NaN	NaN	NaN	NaN	NaN	NaN	NaN	NaN	NaN	NaN	NaN	NaN
746.46126	0.1001	sub-18	1	sequence	stimulus	Haus	NaN	NaN	64.0	NaN	NaN	2.0	4.0	NaN	NaN	NaN	NaN	NaN
746.5614050000004	0.0667	sub-18	1	sequence	interval	dot	NaN	NaN	NaN	NaN	NaN	NaN	NaN	NaN	NaN	NaN	NaN	NaN
746.6281035000002	0.0999	sub-18	1	sequence	stimulus	Katze	NaN	NaN	64.0	NaN	NaN	3.0	5.0	NaN	NaN	NaN	NaN	NaN
746.7280402000006	0.0667	sub-18	1	sequence	interval	dot	NaN	NaN	NaN	NaN	NaN	NaN	NaN	NaN	NaN	NaN	NaN	NaN
746.7947423000005	8.372	sub-18	1	sequence	delay	dot	NaN	NaN	NaN	NaN	NaN	NaN	NaN	NaN	NaN	NaN	NaN	NaN
755.1437151	0.8258	sub-18	1	sequence	choice	choice	left	NaN	NaN	0.8022576000003028	True	NaN	NaN	left	True	3.0	5.0	3.0
755.9698121000001	0.5	sub-18	1	sequence	feedback	NaN	NaN	NaN	NaN	NaN	NaN	NaN	NaN	NaN	NaN	NaN	NaN	NaN
756.4700452000006	1.0002	sub-18	1	sequence	cue	Gesicht	NaN	NaN	NaN	NaN	NaN	NaN	NaN	NaN	NaN	NaN	NaN	NaN
757.4702970000008	2.0015	sub-18	1	sequence	blank	blank	NaN	NaN	NaN	NaN	NaN	NaN	NaN	NaN	NaN	NaN	NaN	NaN
759.4717559000001	0.3003	sub-18	1	sequence	fixation	dot	NaN	NaN	NaN	NaN	NaN	NaN	NaN	NaN	NaN	NaN	NaN	NaN
759.7908882000002	0.1145	sub-18	1	sequence	stimulus	Stuhl	NaN	NaN	512.0	NaN	NaN	5.0	1.0	NaN	NaN	NaN	NaN	NaN
759.9053860000004	0.5173	sub-18	1	sequence	interval	dot	NaN	NaN	NaN	NaN	NaN	NaN	NaN	NaN	NaN	NaN	NaN	NaN
760.4226491000009	0.1	sub-18	1	sequence	stimulus	Schuh	NaN	NaN	512.0	NaN	NaN	4.0	2.0	NaN	NaN	NaN	NaN	NaN
760.5226186	0.5172	sub-18	1	sequence	interval	dot	NaN	NaN	NaN	NaN	NaN	NaN	NaN	NaN	NaN	NaN	NaN	NaN
761.0398491000005	0.0999	sub-18	1	sequence	stimulus	Katze	NaN	NaN	512.0	NaN	NaN	3.0	3.0	NaN	NaN	NaN	NaN	NaN
761.1397692	0.5172	sub-18	1	sequence	interval	dot	NaN	NaN	NaN	NaN	NaN	NaN	NaN	NaN	NaN	NaN	NaN	NaN
761.6569394000007	0.1	sub-18	1	sequence	stimulus	Gesicht	NaN	NaN	512.0	NaN	NaN	1.0	4.0	NaN	NaN	NaN	NaN	NaN
761.7569267000008	0.5172	sub-18	1	sequence	interval	dot	NaN	NaN	NaN	NaN	NaN	NaN	NaN	NaN	NaN	NaN	NaN	NaN
762.2741748000008	0.0999	sub-18	1	sequence	stimulus	Haus	NaN	NaN	512.0	NaN	NaN	2.0	5.0	NaN	NaN	NaN	NaN	NaN
762.3741155000007	0.5171	sub-18	1	sequence	interval	dot	NaN	NaN	NaN	NaN	NaN	NaN	NaN	NaN	NaN	NaN	NaN	NaN
762.8911723000001	6.1534	sub-18	1	sequence	delay	dot	NaN	NaN	NaN	NaN	NaN	NaN	NaN	NaN	NaN	NaN	NaN	NaN
769.0274339000007	0.8362	sub-18	1	sequence	choice	choice	left	NaN	NaN	0.8125477999992654	True	NaN	NaN	left	True	4.0	2.0	4.0
769.8639421000007	0.4999	sub-18	1	sequence	feedback	NaN	NaN	NaN	NaN	NaN	NaN	NaN	NaN	NaN	NaN	NaN	NaN	NaN
770.3639909000003	1.0006	sub-18	1	sequence	cue	Gesicht	NaN	NaN	NaN	NaN	NaN	NaN	NaN	NaN	NaN	NaN	NaN	NaN
771.3646413000006	2.0018	sub-18	1	sequence	blank	blank	NaN	NaN	NaN	NaN	NaN	NaN	NaN	NaN	NaN	NaN	NaN	NaN
773.3664257	0.3002	sub-18	1	sequence	fixation	dot	NaN	NaN	NaN	NaN	NaN	NaN	NaN	NaN	NaN	NaN	NaN	NaN
773.6864547000005	0.1136	sub-18	1	sequence	stimulus	Stuhl	NaN	NaN	128.0	NaN	NaN	5.0	1.0	NaN	NaN	NaN	NaN	NaN
773.8000083000006	0.1336	sub-18	1	sequence	interval	dot	NaN	NaN	NaN	NaN	NaN	NaN	NaN	NaN	NaN	NaN	NaN	NaN
773.9336440000006	0.1	sub-18	1	sequence	stimulus	Schuh	NaN	NaN	128.0	NaN	NaN	4.0	2.0	NaN	NaN	NaN	NaN	NaN
774.0336550000002	0.1341	sub-18	1	sequence	interval	dot	NaN	NaN	NaN	NaN	NaN	NaN	NaN	NaN	NaN	NaN	NaN	NaN
774.1677339000007	0.0994	sub-18	1	sequence	stimulus	Katze	NaN	NaN	128.0	NaN	NaN	3.0	3.0	NaN	NaN	NaN	NaN	NaN
774.2671196000001	0.1336	sub-18	1	sequence	interval	dot	NaN	NaN	NaN	NaN	NaN	NaN	NaN	NaN	NaN	NaN	NaN	NaN
774.4007293000004	0.1001	sub-18	1	sequence	stimulus	Haus	NaN	NaN	128.0	NaN	NaN	2.0	4.0	NaN	NaN	NaN	NaN	NaN
774.5007794000003	0.1334	sub-18	1	sequence	interval	dot	NaN	NaN	NaN	NaN	NaN	NaN	NaN	NaN	NaN	NaN	NaN	NaN
774.6342112000002	0.1	sub-18	1	sequence	stimulus	Gesicht	NaN	NaN	128.0	NaN	NaN	1.0	5.0	NaN	NaN	NaN	NaN	NaN
774.7342129000008	0.1334	sub-18	1	sequence	interval	dot	NaN	NaN	NaN	NaN	NaN	NaN	NaN	NaN	NaN	NaN	NaN	NaN
774.8675937000007	8.0549	sub-18	1	sequence	delay	dot	NaN	NaN	NaN	NaN	NaN	NaN	NaN	NaN	NaN	NaN	NaN	NaN
782.9111052000007	0.7971	sub-18	1	sequence	choice	choice	right	NaN	NaN	0.7744612999995297	True	NaN	NaN	right	True	3.0	5.0	5.0
783.7084760000007	0.4999	sub-18	1	sequence	feedback	NaN	NaN	NaN	NaN	NaN	NaN	NaN	NaN	NaN	NaN	NaN	NaN	NaN
784.2085305	1.0006	sub-18	1	sequence	cue	Stuhl	NaN	NaN	NaN	NaN	NaN	NaN	NaN	NaN	NaN	NaN	NaN	NaN
785.2091636000005	2.0017	sub-18	1	sequence	blank	blank	NaN	NaN	NaN	NaN	NaN	NaN	NaN	NaN	NaN	NaN	NaN	NaN
787.2108623000004	0.3002	sub-18	1	sequence	fixation	dot	NaN	NaN	NaN	NaN	NaN	NaN	NaN	NaN	NaN	NaN	NaN	NaN
787.5285107000009	0.0993	sub-18	1	sequence	stimulus	Haus	NaN	NaN	64.0	NaN	NaN	2.0	1.0	NaN	NaN	NaN	NaN	NaN
787.6277678000006	0.0668	sub-18	1	sequence	interval	dot	NaN	NaN	NaN	NaN	NaN	NaN	NaN	NaN	NaN	NaN	NaN	NaN
787.6946092000007	0.1	sub-18	1	sequence	stimulus	Gesicht	NaN	NaN	64.0	NaN	NaN	1.0	2.0	NaN	NaN	NaN	NaN	NaN
787.7945630000004	0.0669	sub-18	1	sequence	interval	dot	NaN	NaN	NaN	NaN	NaN	NaN	NaN	NaN	NaN	NaN	NaN	NaN
787.8614148000006	0.1	sub-18	1	sequence	stimulus	Schuh	NaN	NaN	64.0	NaN	NaN	4.0	3.0	NaN	NaN	NaN	NaN	NaN
787.9614612000005	0.0668	sub-18	1	sequence	interval	dot	NaN	NaN	NaN	NaN	NaN	NaN	NaN	NaN	NaN	NaN	NaN	NaN
788.0282879000006	0.1	sub-18	1	sequence	stimulus	Stuhl	NaN	NaN	64.0	NaN	NaN	5.0	4.0	NaN	NaN	NaN	NaN	NaN
788.1282836	0.0668	sub-18	1	sequence	interval	dot	NaN	NaN	NaN	NaN	NaN	NaN	NaN	NaN	NaN	NaN	NaN	NaN
788.1950536000004	0.0999	sub-18	1	sequence	stimulus	Katze	NaN	NaN	64.0	NaN	NaN	3.0	5.0	NaN	NaN	NaN	NaN	NaN
788.2949781000007	0.0667	sub-18	1	sequence	interval	dot	NaN	NaN	NaN	NaN	NaN	NaN	NaN	NaN	NaN	NaN	NaN	NaN
788.3617144	8.3721	sub-18	1	sequence	delay	dot	NaN	NaN	NaN	NaN	NaN	NaN	NaN	NaN	NaN	NaN	NaN	NaN
796.7167607000001	0.636	sub-18	1	sequence	choice	choice	left	NaN	NaN	0.6111822000002576	True	NaN	NaN	left	True	4.0	5.0	4.0
797.3529919000002	0.5	sub-18	1	sequence	feedback	NaN	NaN	NaN	NaN	NaN	NaN	NaN	NaN	NaN	NaN	NaN	NaN	NaN
797.8532647000002	1.0005	sub-18	1	sequence	cue	Schuh	NaN	NaN	NaN	NaN	NaN	NaN	NaN	NaN	NaN	NaN	NaN	NaN
798.8537630000001	2.0015	sub-18	1	sequence	blank	blank	NaN	NaN	NaN	NaN	NaN	NaN	NaN	NaN	NaN	NaN	NaN	NaN
800.8552750000008	0.3002	sub-18	1	sequence	fixation	dot	NaN	NaN	NaN	NaN	NaN	NaN	NaN	NaN	NaN	NaN	NaN	NaN
801.1729154000004	0.0993	sub-18	1	sequence	stimulus	Gesicht	NaN	NaN	32.0	NaN	NaN	1.0	1.0	NaN	NaN	NaN	NaN	NaN
801.2721843000008	0.0335	sub-18	1	sequence	interval	dot	NaN	NaN	NaN	NaN	NaN	NaN	NaN	NaN	NaN	NaN	NaN	NaN
801.3056383000003	0.1	sub-18	1	sequence	stimulus	Schuh	NaN	NaN	32.0	NaN	NaN	4.0	2.0	NaN	NaN	NaN	NaN	NaN
801.4055973000004	0.0334	sub-18	1	sequence	interval	dot	NaN	NaN	NaN	NaN	NaN	NaN	NaN	NaN	NaN	NaN	NaN	NaN
801.4390465000006	0.1	sub-18	1	sequence	stimulus	Stuhl	NaN	NaN	32.0	NaN	NaN	5.0	3.0	NaN	NaN	NaN	NaN	NaN
801.5390458000002	0.0335	sub-18	1	sequence	interval	dot	NaN	NaN	NaN	NaN	NaN	NaN	NaN	NaN	NaN	NaN	NaN	NaN
801.5725283000002	0.0999	sub-18	1	sequence	stimulus	Katze	NaN	NaN	32.0	NaN	NaN	3.0	4.0	NaN	NaN	NaN	NaN	NaN
801.6724638000005	0.0335	sub-18	1	sequence	interval	dot	NaN	NaN	NaN	NaN	NaN	NaN	NaN	NaN	NaN	NaN	NaN	NaN
801.7059873000007	0.0999	sub-18	1	sequence	stimulus	Haus	NaN	NaN	32.0	NaN	NaN	2.0	5.0	NaN	NaN	NaN	NaN	NaN
801.8059285000008	0.0333	sub-18	1	sequence	interval	dot	NaN	NaN	NaN	NaN	NaN	NaN	NaN	NaN	NaN	NaN	NaN	NaN
801.8392781000002	8.5554	sub-18	1	sequence	delay	dot	NaN	NaN	NaN	NaN	NaN	NaN	NaN	NaN	NaN	NaN	NaN	NaN
810.3669902000001	0.5967	sub-18	1	sequence	choice	choice	right	NaN	NaN	0.5583277000005182	True	NaN	NaN	right	True	5.0	2.0	2.0
810.9639213	0.4999	sub-18	1	sequence	feedback	NaN	NaN	NaN	NaN	NaN	NaN	NaN	NaN	NaN	NaN	NaN	NaN	NaN
811.4639392000008	1.0007	sub-18	1	sequence	cue	Stuhl	NaN	NaN	NaN	NaN	NaN	NaN	NaN	NaN	NaN	NaN	NaN	NaN
812.4646364	2.0017	sub-18	1	sequence	blank	blank	NaN	NaN	NaN	NaN	NaN	NaN	NaN	NaN	NaN	NaN	NaN	NaN
814.4663287000003	0.3003	sub-18	1	sequence	fixation	dot	NaN	NaN	NaN	NaN	NaN	NaN	NaN	NaN	NaN	NaN	NaN	NaN
814.7846791000002	0.1153	sub-18	1	sequence	stimulus	Katze	NaN	NaN	128.0	NaN	NaN	3.0	1.0	NaN	NaN	NaN	NaN	NaN
814.9000071	0.1335	sub-18	1	sequence	interval	dot	NaN	NaN	NaN	NaN	NaN	NaN	NaN	NaN	NaN	NaN	NaN	NaN
815.0335469000001	0.1	sub-18	1	sequence	stimulus	Schuh	NaN	NaN	128.0	NaN	NaN	4.0	2.0	NaN	NaN	NaN	NaN	NaN
815.1335058000004	0.1335	sub-18	1	sequence	interval	dot	NaN	NaN	NaN	NaN	NaN	NaN	NaN	NaN	NaN	NaN	NaN	NaN
815.2670412000007	0.1	sub-18	1	sequence	stimulus	Gesicht	NaN	NaN	128.0	NaN	NaN	1.0	3.0	NaN	NaN	NaN	NaN	NaN
815.3670097000004	0.1336	sub-18	1	sequence	interval	dot	NaN	NaN	NaN	NaN	NaN	NaN	NaN	NaN	NaN	NaN	NaN	NaN
815.5005650000003	0.0999	sub-18	1	sequence	stimulus	Haus	NaN	NaN	128.0	NaN	NaN	2.0	4.0	NaN	NaN	NaN	NaN	NaN
815.6005084000008	0.1335	sub-18	1	sequence	interval	dot	NaN	NaN	NaN	NaN	NaN	NaN	NaN	NaN	NaN	NaN	NaN	NaN
815.7340203000003	0.1	sub-18	1	sequence	stimulus	Stuhl	NaN	NaN	128.0	NaN	NaN	5.0	5.0	NaN	NaN	NaN	NaN	NaN
815.8340209000007	0.1335	sub-18	1	sequence	interval	dot	NaN	NaN	NaN	NaN	NaN	NaN	NaN	NaN	NaN	NaN	NaN	NaN
815.9674812000003	8.0715	sub-18	1	sequence	delay	dot	NaN	NaN	NaN	NaN	NaN	NaN	NaN	NaN	NaN	NaN	NaN	NaN
824.0161777000003	0.7586	sub-18	1	sequence	choice	choice	right	NaN	NaN	0.729934900000444	False	NaN	NaN	left	True	5.0	2.0	5.0
824.7750806000004	0.4999	sub-18	1	sequence	feedback	NaN	NaN	NaN	NaN	NaN	NaN	NaN	NaN	NaN	NaN	NaN	NaN	NaN
825.2750853000007	1.0007	sub-18	1	sequence	cue	Gesicht	NaN	NaN	NaN	NaN	NaN	NaN	NaN	NaN	NaN	NaN	NaN	NaN
826.2757670000001	2.0016	sub-18	1	sequence	blank	blank	NaN	NaN	NaN	NaN	NaN	NaN	NaN	NaN	NaN	NaN	NaN	NaN
828.2773878000007	0.3003	sub-18	1	sequence	fixation	dot	NaN	NaN	NaN	NaN	NaN	NaN	NaN	NaN	NaN	NaN	NaN	NaN
828.5952097000009	0.0992	sub-18	1	sequence	stimulus	Schuh	NaN	NaN	32.0	NaN	NaN	4.0	1.0	NaN	NaN	NaN	NaN	NaN
828.6943849000008	0.0335	sub-18	1	sequence	interval	dot	NaN	NaN	NaN	NaN	NaN	NaN	NaN	NaN	NaN	NaN	NaN	NaN
828.7278987000009	0.0999	sub-18	1	sequence	stimulus	Katze	NaN	NaN	32.0	NaN	NaN	3.0	2.0	NaN	NaN	NaN	NaN	NaN
828.8277986000003	0.0336	sub-18	1	sequence	interval	dot	NaN	NaN	NaN	NaN	NaN	NaN	NaN	NaN	NaN	NaN	NaN	NaN
828.8613813000002	0.0999	sub-18	1	sequence	stimulus	Stuhl	NaN	NaN	32.0	NaN	NaN	5.0	3.0	NaN	NaN	NaN	NaN	NaN
828.9612407000004	0.0335	sub-18	1	sequence	interval	dot	NaN	NaN	NaN	NaN	NaN	NaN	NaN	NaN	NaN	NaN	NaN	NaN
828.9947339	0.1	sub-18	1	sequence	stimulus	Haus	NaN	NaN	32.0	NaN	NaN	2.0	4.0	NaN	NaN	NaN	NaN	NaN
829.0947099000005	0.0334	sub-18	1	sequence	interval	dot	NaN	NaN	NaN	NaN	NaN	NaN	NaN	NaN	NaN	NaN	NaN	NaN
829.1281425000006	0.1	sub-18	1	sequence	stimulus	Gesicht	NaN	NaN	32.0	NaN	NaN	1.0	5.0	NaN	NaN	NaN	NaN	NaN
829.2281598000009	0.0333	sub-18	1	sequence	interval	dot	NaN	NaN	NaN	NaN	NaN	NaN	NaN	NaN	NaN	NaN	NaN	NaN
829.2614524	8.5387	sub-18	1	sequence	delay	dot	NaN	NaN	NaN	NaN	NaN	NaN	NaN	NaN	NaN	NaN	NaN	NaN
837.7703219000005	0.7656	sub-18	1	sequence	choice	choice	right	NaN	NaN	0.7208987000003617	True	NaN	NaN	right	True	3.0	5.0	5.0
838.5361682000002	0.5	sub-18	1	sequence	feedback	NaN	NaN	NaN	NaN	NaN	NaN	NaN	NaN	NaN	NaN	NaN	NaN	NaN
839.0367083000001	18.4479	sub-18	1	other	break	break	NaN	NaN	NaN	NaN	NaN	NaN	NaN	NaN	NaN	NaN	NaN	NaN
861.3049262000004	0.4996	sub-18	1	localizer	stimulus	Gesicht	NaN	180	2.118395000000419	0.7439280999997209	True	NaN	NaN	NaN	NaN	NaN	NaN	NaN
861.8045158000004	2.1184	sub-18	1	localizer	blank	interval	NaN	NaN	NaN	NaN	NaN	NaN	NaN	NaN	NaN	NaN	NaN	NaN
864.2238901000001	0.4996	sub-18	1	localizer	stimulus	Stuhl	NaN	0	1.8345000999997865	NaN	True	NaN	NaN	NaN	NaN	NaN	NaN	NaN
864.7070799000003	1.8345	sub-18	1	localizer	blank	interval	NaN	NaN	NaN	NaN	NaN	NaN	NaN	NaN	NaN	NaN	NaN	NaN
866.8426664000008	0.4996	sub-18	1	localizer	stimulus	Katze	NaN	0	2.3851392000005944	NaN	True	NaN	NaN	NaN	NaN	NaN	NaN	NaN
867.3256731000001	2.3851	sub-18	1	localizer	blank	interval	NaN	NaN	NaN	NaN	NaN	NaN	NaN	NaN	NaN	NaN	NaN	NaN
870.0118801000008	0.4996	sub-18	1	localizer	stimulus	Schuh	NaN	0	2.9022132999998576	NaN	True	NaN	NaN	NaN	NaN	NaN	NaN	NaN
870.4949210000004	2.9022	sub-18	1	localizer	blank	interval	NaN	NaN	NaN	NaN	NaN	NaN	NaN	NaN	NaN	NaN	NaN	NaN
873.6982486000006	0.4995	sub-18	1	localizer	stimulus	Schuh	NaN	0	2.2184158999998544	NaN	True	NaN	NaN	NaN	NaN	NaN	NaN	NaN
874.1812160000009	2.2184	sub-18	1	localizer	blank	interval	NaN	NaN	NaN	NaN	NaN	NaN	NaN	NaN	NaN	NaN	NaN	NaN
876.7007468000002	0.4996	sub-18	1	localizer	stimulus	Stuhl	NaN	0	2.685242200000175	NaN	True	NaN	NaN	NaN	NaN	NaN	NaN	NaN
877.1837976000006	2.6852	sub-18	1	localizer	blank	interval	NaN	NaN	NaN	NaN	NaN	NaN	NaN	NaN	NaN	NaN	NaN	NaN
880.1702018000005	0.4995	sub-18	1	localizer	stimulus	Haus	NaN	0	2.468616699999984	NaN	True	NaN	NaN	NaN	NaN	NaN	NaN	NaN
880.6531694000005	2.4686	sub-18	1	localizer	blank	interval	NaN	NaN	NaN	NaN	NaN	NaN	NaN	NaN	NaN	NaN	NaN	NaN
883.4230214000008	0.4995	sub-18	1	localizer	stimulus	Haus	NaN	0	3.0855265999998664	NaN	True	NaN	NaN	NaN	NaN	NaN	NaN	NaN
883.9059337000008	3.0855	sub-18	1	localizer	blank	interval	NaN	NaN	NaN	NaN	NaN	NaN	NaN	NaN	NaN	NaN	NaN	NaN
887.2925466000006	0.4997	sub-18	1	localizer	stimulus	Stuhl	NaN	0	3.352647800000341	NaN	True	NaN	NaN	NaN	NaN	NaN	NaN	NaN
887.7755267000002	3.3526	sub-18	1	localizer	blank	interval	NaN	NaN	NaN	NaN	NaN	NaN	NaN	NaN	NaN	NaN	NaN	NaN
891.4292092000005	0.4996	sub-18	1	localizer	stimulus	Stuhl	NaN	180	2.0181852000005165	0.5556596999995236	True	NaN	NaN	NaN	NaN	NaN	NaN	NaN
891.9122188000001	2.0182	sub-18	1	localizer	blank	interval	NaN	NaN	NaN	NaN	NaN	NaN	NaN	NaN	NaN	NaN	NaN	NaN
894.2316886000008	0.4995	sub-18	1	localizer	stimulus	Schuh	NaN	0	2.5519537000000128	NaN	True	NaN	NaN	NaN	NaN	NaN	NaN	NaN
894.7145990000008	2.552	sub-18	1	localizer	blank	interval	NaN	NaN	NaN	NaN	NaN	NaN	NaN	NaN	NaN	NaN	NaN	NaN
897.5677387000005	0.4995	sub-18	1	localizer	stimulus	Haus	NaN	180	1.7511500999999043	0.6091087999993761	True	NaN	NaN	NaN	NaN	NaN	NaN	NaN
898.0506721000002	1.7512	sub-18	1	localizer	blank	interval	NaN	NaN	NaN	NaN	NaN	NaN	NaN	NaN	NaN	NaN	NaN	NaN
900.1028628000004	0.4996	sub-18	1	localizer	stimulus	Katze	NaN	0	2.3019223999999667	NaN	True	NaN	NaN	NaN	NaN	NaN	NaN	NaN
900.5858976000009	2.3019	sub-18	1	localizer	blank	interval	NaN	NaN	NaN	NaN	NaN	NaN	NaN	NaN	NaN	NaN	NaN	NaN
903.1887110000008	0.4997	sub-18	1	localizer	stimulus	Stuhl	NaN	0	2.4684650999995483	NaN	True	NaN	NaN	NaN	NaN	NaN	NaN	NaN
903.6718346000008	2.4685	sub-18	1	localizer	blank	interval	NaN	NaN	NaN	NaN	NaN	NaN	NaN	NaN	NaN	NaN	NaN	NaN
906.4414886000004	0.4995	sub-18	1	localizer	stimulus	Gesicht	NaN	0	3.118972900000813	NaN	True	NaN	NaN	NaN	NaN	NaN	NaN	NaN
906.9244515	3.119	sub-18	1	localizer	blank	interval	NaN	NaN	NaN	NaN	NaN	NaN	NaN	NaN	NaN	NaN	NaN	NaN
910.3445501000006	0.4996	sub-18	1	localizer	stimulus	Gesicht	NaN	0	2.335091900000407	NaN	True	NaN	NaN	NaN	NaN	NaN	NaN	NaN
910.8275554000002	2.3351	sub-18	1	localizer	blank	interval	NaN	NaN	NaN	NaN	NaN	NaN	NaN	NaN	NaN	NaN	NaN	NaN
913.4637133000006	0.4996	sub-18	1	localizer	stimulus	Haus	NaN	0	2.451960099999951	NaN	True	NaN	NaN	NaN	NaN	NaN	NaN	NaN
913.9467277000005	2.452	sub-18	1	localizer	blank	interval	NaN	NaN	NaN	NaN	NaN	NaN	NaN	NaN	NaN	NaN	NaN	NaN
916.6996697000004	0.4997	sub-18	1	localizer	stimulus	Schuh	NaN	180	3.4692898999992394	0.5332962999991651	True	NaN	NaN	NaN	NaN	NaN	NaN	NaN
917.1828029000008	3.4693	sub-18	1	localizer	blank	interval	NaN	NaN	NaN	NaN	NaN	NaN	NaN	NaN	NaN	NaN	NaN	NaN
920.9531159000009	0.4996	sub-18	1	localizer	stimulus	Katze	NaN	0	2.9359135000004244	NaN	True	NaN	NaN	NaN	NaN	NaN	NaN	NaN
921.4360935000004	2.9359	sub-18	1	localizer	blank	interval	NaN	NaN	NaN	NaN	NaN	NaN	NaN	NaN	NaN	NaN	NaN	NaN
924.6728097000004	0.4996	sub-18	1	localizer	stimulus	Haus	NaN	0	3.0856823000003715	NaN	True	NaN	NaN	NaN	NaN	NaN	NaN	NaN
925.1559100000004	3.0857	sub-18	1	localizer	blank	interval	NaN	NaN	NaN	NaN	NaN	NaN	NaN	NaN	NaN	NaN	NaN	NaN
928.5425784000008	0.4996	sub-18	1	localizer	stimulus	Gesicht	NaN	0	2.185076799999365	NaN	True	NaN	NaN	NaN	NaN	NaN	NaN	NaN
929.0255823000008	2.1851	sub-18	1	localizer	blank	interval	NaN	NaN	NaN	NaN	NaN	NaN	NaN	NaN	NaN	NaN	NaN	NaN
931.5116501000002	0.4996	sub-18	1	localizer	stimulus	Katze	NaN	180	3.1191503999997394	0.5531645999999455	True	NaN	NaN	NaN	NaN	NaN	NaN	NaN
931.9946834000002	3.1192	sub-18	1	localizer	blank	interval	NaN	NaN	NaN	NaN	NaN	NaN	NaN	NaN	NaN	NaN	NaN	NaN
935.4149744000006	0.4995	sub-18	1	localizer	stimulus	Katze	NaN	0	3.2689934999998513	NaN	True	NaN	NaN	NaN	NaN	NaN	NaN	NaN
935.8980227000002	3.269	sub-18	1	localizer	blank	interval	NaN	NaN	NaN	NaN	NaN	NaN	NaN	NaN	NaN	NaN	NaN	NaN
939.4681094000008	0.4996	sub-18	1	localizer	stimulus	Gesicht	NaN	0	2.7354031000004397	NaN	True	NaN	NaN	NaN	NaN	NaN	NaN	NaN
939.951113	2.7354	sub-18	1	localizer	blank	interval	NaN	NaN	NaN	NaN	NaN	NaN	NaN	NaN	NaN	NaN	NaN	NaN
942.9876462000002	0.4995	sub-18	1	localizer	stimulus	Schuh	NaN	0	3.2692845999999918	NaN	True	NaN	NaN	NaN	NaN	NaN	NaN	NaN
943.4706449000004	3.2693	sub-18	1	localizer	blank	interval	NaN	NaN	NaN	NaN	NaN	NaN	NaN	NaN	NaN	NaN	NaN	NaN
950.226259	1.0006	sub-18	1	sequence	cue	Katze	NaN	NaN	NaN	NaN	NaN	NaN	NaN	NaN	NaN	NaN	NaN	NaN
951.2268308000002	2.0015	sub-18	1	sequence	blank	blank	NaN	NaN	NaN	NaN	NaN	NaN	NaN	NaN	NaN	NaN	NaN	NaN
953.2283773000008	0.3002	sub-18	1	sequence	fixation	dot	NaN	NaN	NaN	NaN	NaN	NaN	NaN	NaN	NaN	NaN	NaN	NaN
953.5461877000008	0.0994	sub-18	1	sequence	stimulus	Gesicht	NaN	NaN	64.0	NaN	NaN	1.0	1.0	NaN	NaN	NaN	NaN	NaN
953.6455706000006	0.0667	sub-18	1	sequence	interval	dot	NaN	NaN	NaN	NaN	NaN	NaN	NaN	NaN	NaN	NaN	NaN	NaN
953.7122318000002	0.1	sub-18	1	sequence	stimulus	Schuh	NaN	NaN	64.0	NaN	NaN	4.0	2.0	NaN	NaN	NaN	NaN	NaN
953.8122811000004	0.0668	sub-18	1	sequence	interval	dot	NaN	NaN	NaN	NaN	NaN	NaN	NaN	NaN	NaN	NaN	NaN	NaN
953.8790350000008	0.1	sub-18	1	sequence	stimulus	Stuhl	NaN	NaN	64.0	NaN	NaN	5.0	3.0	NaN	NaN	NaN	NaN	NaN
953.9789969000004	0.0669	sub-18	1	sequence	interval	dot	NaN	NaN	NaN	NaN	NaN	NaN	NaN	NaN	NaN	NaN	NaN	NaN
954.0458860000008	0.0999	sub-18	1	sequence	stimulus	Haus	NaN	NaN	64.0	NaN	NaN	2.0	4.0	NaN	NaN	NaN	NaN	NaN
954.1457851000004	0.0669	sub-18	1	sequence	interval	dot	NaN	NaN	NaN	NaN	NaN	NaN	NaN	NaN	NaN	NaN	NaN	NaN
954.2126781000006	0.1166	sub-18	1	sequence	stimulus	Katze	NaN	NaN	64.0	NaN	NaN	3.0	5.0	NaN	NaN	NaN	NaN	NaN
954.3293235	0.0666	sub-18	1	sequence	interval	dot	NaN	NaN	NaN	NaN	NaN	NaN	NaN	NaN	NaN	NaN	NaN	NaN
954.3959709	8.372	sub-18	1	sequence	delay	dot	NaN	NaN	NaN	NaN	NaN	NaN	NaN	NaN	NaN	NaN	NaN	NaN
962.7491661000004	0.7879	sub-18	1	sequence	choice	choice	left	NaN	NaN	0.7689432999995915	True	NaN	NaN	left	True	5.0	4.0	5.0
963.5374021000008	0.5	sub-18	1	sequence	feedback	NaN	NaN	NaN	NaN	NaN	NaN	NaN	NaN	NaN	NaN	NaN	NaN	NaN
964.0376219000008	1.0004	sub-18	1	sequence	cue	Gesicht	NaN	NaN	NaN	NaN	NaN	NaN	NaN	NaN	NaN	NaN	NaN	NaN
965.0380197000004	2.0016	sub-18	1	sequence	blank	blank	NaN	NaN	NaN	NaN	NaN	NaN	NaN	NaN	NaN	NaN	NaN	NaN
967.0396439000006	0.3003	sub-18	1	sequence	fixation	dot	NaN	NaN	NaN	NaN	NaN	NaN	NaN	NaN	NaN	NaN	NaN	NaN
967.3575562000004	0.0991	sub-18	1	sequence	stimulus	Katze	NaN	NaN	128.0	NaN	NaN	3.0	1.0	NaN	NaN	NaN	NaN	NaN
967.4566661000008	0.1336	sub-18	1	sequence	interval	dot	NaN	NaN	NaN	NaN	NaN	NaN	NaN	NaN	NaN	NaN	NaN	NaN
967.5902511000004	0.1	sub-18	1	sequence	stimulus	Schuh	NaN	NaN	128.0	NaN	NaN	4.0	2.0	NaN	NaN	NaN	NaN	NaN
967.6902246000008	0.1336	sub-18	1	sequence	interval	dot	NaN	NaN	NaN	NaN	NaN	NaN	NaN	NaN	NaN	NaN	NaN	NaN
967.8238200000004	0.0999	sub-18	1	sequence	stimulus	Gesicht	NaN	NaN	128.0	NaN	NaN	1.0	3.0	NaN	NaN	NaN	NaN	NaN
967.9237582000004	0.1336	sub-18	1	sequence	interval	dot	NaN	NaN	NaN	NaN	NaN	NaN	NaN	NaN	NaN	NaN	NaN	NaN
968.0573086000004	0.1	sub-18	1	sequence	stimulus	Haus	NaN	NaN	128.0	NaN	NaN	2.0	4.0	NaN	NaN	NaN	NaN	NaN
968.1572892000004	0.1335	sub-18	1	sequence	interval	dot	NaN	NaN	NaN	NaN	NaN	NaN	NaN	NaN	NaN	NaN	NaN	NaN
968.2908117000006	0.0999	sub-18	1	sequence	stimulus	Stuhl	NaN	NaN	128.0	NaN	NaN	5.0	5.0	NaN	NaN	NaN	NaN	NaN
968.3907471000002	0.1334	sub-18	1	sequence	interval	dot	NaN	NaN	NaN	NaN	NaN	NaN	NaN	NaN	NaN	NaN	NaN	NaN
968.5241332000004	8.055	sub-18	1	sequence	delay	dot	NaN	NaN	NaN	NaN	NaN	NaN	NaN	NaN	NaN	NaN	NaN	NaN
976.5547744000004	1.2439	sub-18	1	sequence	choice	choice	right	NaN	NaN	1.2139349999997648	True	NaN	NaN	right	True	4.0	3.0	3.0
977.7989136000006	0.5001	sub-18	1	sequence	feedback	NaN	NaN	NaN	NaN	NaN	NaN	NaN	NaN	NaN	NaN	NaN	NaN	NaN
978.2992497000004	1.0003	sub-18	1	sequence	cue	Haus	NaN	NaN	NaN	NaN	NaN	NaN	NaN	NaN	NaN	NaN	NaN	NaN
979.2995377000008	2.0016	sub-18	1	sequence	blank	blank	NaN	NaN	NaN	NaN	NaN	NaN	NaN	NaN	NaN	NaN	NaN	NaN
981.3011451000002	0.3002	sub-18	1	sequence	fixation	dot	NaN	NaN	NaN	NaN	NaN	NaN	NaN	NaN	NaN	NaN	NaN	NaN
981.6196280000004	0.1152	sub-18	1	sequence	stimulus	Schuh	NaN	NaN	32.0	NaN	NaN	4.0	1.0	NaN	NaN	NaN	NaN	NaN
981.7348295000002	0.0334	sub-18	1	sequence	interval	dot	NaN	NaN	NaN	NaN	NaN	NaN	NaN	NaN	NaN	NaN	NaN	NaN
981.7682775000004	0.1	sub-18	1	sequence	stimulus	Katze	NaN	NaN	32.0	NaN	NaN	3.0	2.0	NaN	NaN	NaN	NaN	NaN
981.8682582	0.0334	sub-18	1	sequence	interval	dot	NaN	NaN	NaN	NaN	NaN	NaN	NaN	NaN	NaN	NaN	NaN	NaN
981.9016659000008	0.1001	sub-18	1	sequence	stimulus	Stuhl	NaN	NaN	32.0	NaN	NaN	5.0	3.0	NaN	NaN	NaN	NaN	NaN
982.0017273000004	0.0334	sub-18	1	sequence	interval	dot	NaN	NaN	NaN	NaN	NaN	NaN	NaN	NaN	NaN	NaN	NaN	NaN
982.0351599000004	0.1	sub-18	1	sequence	stimulus	Haus	NaN	NaN	32.0	NaN	NaN	2.0	4.0	NaN	NaN	NaN	NaN	NaN
982.1351444000002	0.0334	sub-18	1	sequence	interval	dot	NaN	NaN	NaN	NaN	NaN	NaN	NaN	NaN	NaN	NaN	NaN	NaN
982.1685690000004	0.1	sub-18	1	sequence	stimulus	Gesicht	NaN	NaN	32.0	NaN	NaN	1.0	5.0	NaN	NaN	NaN	NaN	NaN
982.2685976000002	0.0334	sub-18	1	sequence	interval	dot	NaN	NaN	NaN	NaN	NaN	NaN	NaN	NaN	NaN	NaN	NaN	NaN
982.3019506	8.5387	sub-18	1	sequence	delay	dot	NaN	NaN	NaN	NaN	NaN	NaN	NaN	NaN	NaN	NaN	NaN	NaN
990.8284504000004	0.7813	sub-18	1	sequence	choice	choice	left	NaN	NaN	0.7683091999997487	True	NaN	NaN	left	True	4.0	3.0	4.0
991.6100125000004	0.5	sub-18	1	sequence	feedback	NaN	NaN	NaN	NaN	NaN	NaN	NaN	NaN	NaN	NaN	NaN	NaN	NaN
992.1102609000008	1.0004	sub-18	1	sequence	cue	Haus	NaN	NaN	NaN	NaN	NaN	NaN	NaN	NaN	NaN	NaN	NaN	NaN
993.1106785000002	2.0016	sub-18	1	sequence	blank	blank	NaN	NaN	NaN	NaN	NaN	NaN	NaN	NaN	NaN	NaN	NaN	NaN
995.1122815000008	0.3003	sub-18	1	sequence	fixation	dot	NaN	NaN	NaN	NaN	NaN	NaN	NaN	NaN	NaN	NaN	NaN	NaN
995.4301137000002	0.0992	sub-18	1	sequence	stimulus	Gesicht	NaN	NaN	32.0	NaN	NaN	1.0	1.0	NaN	NaN	NaN	NaN	NaN
995.5292894000004	0.0335	sub-18	1	sequence	interval	dot	NaN	NaN	NaN	NaN	NaN	NaN	NaN	NaN	NaN	NaN	NaN	NaN
995.5627795	0.1	sub-18	1	sequence	stimulus	Schuh	NaN	NaN	32.0	NaN	NaN	4.0	2.0	NaN	NaN	NaN	NaN	NaN
995.6627319000008	0.0334	sub-18	1	sequence	interval	dot	NaN	NaN	NaN	NaN	NaN	NaN	NaN	NaN	NaN	NaN	NaN	NaN
995.6961503000002	0.1001	sub-18	1	sequence	stimulus	Stuhl	NaN	NaN	32.0	NaN	NaN	5.0	3.0	NaN	NaN	NaN	NaN	NaN
995.7962134000009	0.0335	sub-18	1	sequence	interval	dot	NaN	NaN	NaN	NaN	NaN	NaN	NaN	NaN	NaN	NaN	NaN	NaN
995.8297201000004	0.0999	sub-18	1	sequence	stimulus	Katze	NaN	NaN	32.0	NaN	NaN	3.0	4.0	NaN	NaN	NaN	NaN	NaN
995.9296600000008	0.0335	sub-18	1	sequence	interval	dot	NaN	NaN	NaN	NaN	NaN	NaN	NaN	NaN	NaN	NaN	NaN	NaN
995.9631965000008	0.1	sub-18	1	sequence	stimulus	Haus	NaN	NaN	32.0	NaN	NaN	2.0	5.0	NaN	NaN	NaN	NaN	NaN
996.0631896000004	0.0335	sub-18	1	sequence	interval	dot	NaN	NaN	NaN	NaN	NaN	NaN	NaN	NaN	NaN	NaN	NaN	NaN
996.0966523000006	8.5385	sub-18	1	sequence	delay	dot	NaN	NaN	NaN	NaN	NaN	NaN	NaN	NaN	NaN	NaN	NaN	NaN
1004.6081643000008	0.8962	sub-18	1	sequence	choice	choice	right	NaN	NaN	0.8536988999994719	True	NaN	NaN	right	True	3.0	5.0	5.0
1005.5045822000002	0.4999	sub-18	1	sequence	feedback	NaN	NaN	NaN	NaN	NaN	NaN	NaN	NaN	NaN	NaN	NaN	NaN	NaN
1006.0045701000008	1.0008	sub-18	1	sequence	cue	Stuhl	NaN	NaN	NaN	NaN	NaN	NaN	NaN	NaN	NaN	NaN	NaN	NaN
1007.0054183000002	2.0015	sub-18	1	sequence	blank	blank	NaN	NaN	NaN	NaN	NaN	NaN	NaN	NaN	NaN	NaN	NaN	NaN
1009.0068990000008	0.3004	sub-18	1	sequence	fixation	dot	NaN	NaN	NaN	NaN	NaN	NaN	NaN	NaN	NaN	NaN	NaN	NaN
1009.3256760000004	0.1153	sub-18	1	sequence	stimulus	Haus	NaN	NaN	64.0	NaN	NaN	2.0	1.0	NaN	NaN	NaN	NaN	NaN
1009.4409272000004	0.0669	sub-18	1	sequence	interval	dot	NaN	NaN	NaN	NaN	NaN	NaN	NaN	NaN	NaN	NaN	NaN	NaN
1009.5078671	0.0998	sub-18	1	sequence	stimulus	Gesicht	NaN	NaN	64.0	NaN	NaN	1.0	2.0	NaN	NaN	NaN	NaN	NaN
1009.607688	0.0667	sub-18	1	sequence	interval	dot	NaN	NaN	NaN	NaN	NaN	NaN	NaN	NaN	NaN	NaN	NaN	NaN
1009.6744027000004	0.1	sub-18	1	sequence	stimulus	Schuh	NaN	NaN	64.0	NaN	NaN	4.0	3.0	NaN	NaN	NaN	NaN	NaN
1009.7744275000005	0.0668	sub-18	1	sequence	interval	dot	NaN	NaN	NaN	NaN	NaN	NaN	NaN	NaN	NaN	NaN	NaN	NaN
1009.8412314000008	0.1	sub-18	1	sequence	stimulus	Stuhl	NaN	NaN	64.0	NaN	NaN	5.0	4.0	NaN	NaN	NaN	NaN	NaN
1009.9411924000004	0.0668	sub-18	1	sequence	interval	dot	NaN	NaN	NaN	NaN	NaN	NaN	NaN	NaN	NaN	NaN	NaN	NaN
1010.0080206000002	0.1	sub-18	1	sequence	stimulus	Katze	NaN	NaN	64.0	NaN	NaN	3.0	5.0	NaN	NaN	NaN	NaN	NaN
1010.1080063000009	0.0666	sub-18	1	sequence	interval	dot	NaN	NaN	NaN	NaN	NaN	NaN	NaN	NaN	NaN	NaN	NaN	NaN
1010.1746072000004	8.3887	sub-18	1	sequence	delay	dot	NaN	NaN	NaN	NaN	NaN	NaN	NaN	NaN	NaN	NaN	NaN	NaN
1018.5438470000008	0.7718	sub-18	1	sequence	choice	choice	right	NaN	NaN	0.7495840999999928	True	NaN	NaN	right	True	3.0	4.0	4.0
1019.3158628	0.4997	sub-18	1	sequence	feedback	NaN	NaN	NaN	NaN	NaN	NaN	NaN	NaN	NaN	NaN	NaN	NaN	NaN
1019.8157318000004	1.0008	sub-18	1	sequence	cue	Gesicht	NaN	NaN	NaN	NaN	NaN	NaN	NaN	NaN	NaN	NaN	NaN	NaN
1020.8165315000006	2.0015	sub-18	1	sequence	blank	blank	NaN	NaN	NaN	NaN	NaN	NaN	NaN	NaN	NaN	NaN	NaN	NaN
1022.8179972000008	0.3003	sub-18	1	sequence	fixation	dot	NaN	NaN	NaN	NaN	NaN	NaN	NaN	NaN	NaN	NaN	NaN	NaN
1023.1365336000008	0.1151	sub-18	1	sequence	stimulus	Stuhl	NaN	NaN	512.0	NaN	NaN	5.0	1.0	NaN	NaN	NaN	NaN	NaN
1023.2516653000002	0.5172	sub-18	1	sequence	interval	dot	NaN	NaN	NaN	NaN	NaN	NaN	NaN	NaN	NaN	NaN	NaN	NaN
1023.7688708000004	0.1	sub-18	1	sequence	stimulus	Schuh	NaN	NaN	512.0	NaN	NaN	4.0	2.0	NaN	NaN	NaN	NaN	NaN
1023.8688341000006	0.5172	sub-18	1	sequence	interval	dot	NaN	NaN	NaN	NaN	NaN	NaN	NaN	NaN	NaN	NaN	NaN	NaN
1024.3860641	0.1	sub-18	1	sequence	stimulus	Katze	NaN	NaN	512.0	NaN	NaN	3.0	3.0	NaN	NaN	NaN	NaN	NaN
1024.4860153000009	0.5172	sub-18	1	sequence	interval	dot	NaN	NaN	NaN	NaN	NaN	NaN	NaN	NaN	NaN	NaN	NaN	NaN
1025.0032132000006	0.0999	sub-18	1	sequence	stimulus	Gesicht	NaN	NaN	512.0	NaN	NaN	1.0	4.0	NaN	NaN	NaN	NaN	NaN
1025.1031292000007	0.5173	sub-18	1	sequence	interval	dot	NaN	NaN	NaN	NaN	NaN	NaN	NaN	NaN	NaN	NaN	NaN	NaN
1025.6203860000005	0.1	sub-18	1	sequence	stimulus	Haus	NaN	NaN	512.0	NaN	NaN	2.0	5.0	NaN	NaN	NaN	NaN	NaN
1025.7203599000004	0.5171	sub-18	1	sequence	interval	dot	NaN	NaN	NaN	NaN	NaN	NaN	NaN	NaN	NaN	NaN	NaN	NaN
1026.2374309000006	6.1535	sub-18	1	sequence	delay	dot	NaN	NaN	NaN	NaN	NaN	NaN	NaN	NaN	NaN	NaN	NaN	NaN
1032.3755245000002	0.6176	sub-18	1	sequence	choice	choice	right	NaN	NaN	0.602061199999298	True	NaN	NaN	right	True	5.0	4.0	4.0
1032.9934068000002	0.5001	sub-18	1	sequence	feedback	NaN	NaN	NaN	NaN	NaN	NaN	NaN	NaN	NaN	NaN	NaN	NaN	NaN
1033.4936619	1.0005	sub-18	1	sequence	cue	Katze	NaN	NaN	NaN	NaN	NaN	NaN	NaN	NaN	NaN	NaN	NaN	NaN
1034.4941370000006	2.0017	sub-18	1	sequence	blank	blank	NaN	NaN	NaN	NaN	NaN	NaN	NaN	NaN	NaN	NaN	NaN	NaN
1036.4958249	0.3003	sub-18	1	sequence	fixation	dot	NaN	NaN	NaN	NaN	NaN	NaN	NaN	NaN	NaN	NaN	NaN	NaN
1036.8136113	0.0992	sub-18	1	sequence	stimulus	Stuhl	NaN	NaN	128.0	NaN	NaN	5.0	1.0	NaN	NaN	NaN	NaN	NaN
1036.9128595000002	0.1336	sub-18	1	sequence	interval	dot	NaN	NaN	NaN	NaN	NaN	NaN	NaN	NaN	NaN	NaN	NaN	NaN
1037.0464158000004	0.0999	sub-18	1	sequence	stimulus	Schuh	NaN	NaN	128.0	NaN	NaN	4.0	2.0	NaN	NaN	NaN	NaN	NaN
1037.1463638000005	0.1337	sub-18	1	sequence	interval	dot	NaN	NaN	NaN	NaN	NaN	NaN	NaN	NaN	NaN	NaN	NaN	NaN
1037.2800415000002	0.098	sub-18	1	sequence	stimulus	Katze	NaN	NaN	128.0	NaN	NaN	3.0	3.0	NaN	NaN	NaN	NaN	NaN
1037.3780113000005	0.1355	sub-18	1	sequence	interval	dot	NaN	NaN	NaN	NaN	NaN	NaN	NaN	NaN	NaN	NaN	NaN	NaN
1037.5134677000003	0.0999	sub-18	1	sequence	stimulus	Haus	NaN	NaN	128.0	NaN	NaN	2.0	4.0	NaN	NaN	NaN	NaN	NaN
1037.6133971000008	0.1335	sub-18	1	sequence	interval	dot	NaN	NaN	NaN	NaN	NaN	NaN	NaN	NaN	NaN	NaN	NaN	NaN
1037.7469140000003	0.1	sub-18	1	sequence	stimulus	Gesicht	NaN	NaN	128.0	NaN	NaN	1.0	5.0	NaN	NaN	NaN	NaN	NaN
1037.8469511000003	0.1334	sub-18	1	sequence	interval	dot	NaN	NaN	NaN	NaN	NaN	NaN	NaN	NaN	NaN	NaN	NaN	NaN
1037.9803983000002	8.0716	sub-18	1	sequence	delay	dot	NaN	NaN	NaN	NaN	NaN	NaN	NaN	NaN	NaN	NaN	NaN	NaN
1046.0252553	0.8292	sub-18	1	sequence	choice	choice	left	NaN	NaN	0.796997200000078	True	NaN	NaN	left	True	3.0	5.0	3.0
1046.8546795000002	0.5	sub-18	1	sequence	feedback	NaN	NaN	NaN	NaN	NaN	NaN	NaN	NaN	NaN	NaN	NaN	NaN	NaN
1047.3549014	1.0004	sub-18	1	sequence	cue	Haus	NaN	NaN	NaN	NaN	NaN	NaN	NaN	NaN	NaN	NaN	NaN	NaN
1048.3553457000007	2.0017	sub-18	1	sequence	blank	blank	NaN	NaN	NaN	NaN	NaN	NaN	NaN	NaN	NaN	NaN	NaN	NaN
1050.3570504000008	0.3002	sub-18	1	sequence	fixation	dot	NaN	NaN	NaN	NaN	NaN	NaN	NaN	NaN	NaN	NaN	NaN	NaN
1050.6755979000009	0.1151	sub-18	1	sequence	stimulus	Stuhl	NaN	NaN	512.0	NaN	NaN	5.0	1.0	NaN	NaN	NaN	NaN	NaN
1050.7906912000008	0.5172	sub-18	1	sequence	interval	dot	NaN	NaN	NaN	NaN	NaN	NaN	NaN	NaN	NaN	NaN	NaN	NaN
1051.3079340000004	0.1	sub-18	1	sequence	stimulus	Haus	NaN	NaN	512.0	NaN	NaN	2.0	2.0	NaN	NaN	NaN	NaN	NaN
1051.4079178000002	0.5173	sub-18	1	sequence	interval	dot	NaN	NaN	NaN	NaN	NaN	NaN	NaN	NaN	NaN	NaN	NaN	NaN
1051.9251769000002	0.0999	sub-18	1	sequence	stimulus	Schuh	NaN	NaN	512.0	NaN	NaN	4.0	3.0	NaN	NaN	NaN	NaN	NaN
1052.0250886000003	0.5171	sub-18	1	sequence	interval	dot	NaN	NaN	NaN	NaN	NaN	NaN	NaN	NaN	NaN	NaN	NaN	NaN
1052.5421753	0.1	sub-18	1	sequence	stimulus	Gesicht	NaN	NaN	512.0	NaN	NaN	1.0	4.0	NaN	NaN	NaN	NaN	NaN
1052.6421718	0.5172	sub-18	1	sequence	interval	dot	NaN	NaN	NaN	NaN	NaN	NaN	NaN	NaN	NaN	NaN	NaN	NaN
1053.1593842000002	0.0999	sub-18	1	sequence	stimulus	Katze	NaN	NaN	512.0	NaN	NaN	3.0	5.0	NaN	NaN	NaN	NaN	NaN
1053.2593289000006	0.5171	sub-18	1	sequence	interval	dot	NaN	NaN	NaN	NaN	NaN	NaN	NaN	NaN	NaN	NaN	NaN	NaN
1053.7764066000009	6.1535	sub-18	1	sequence	delay	dot	NaN	NaN	NaN	NaN	NaN	NaN	NaN	NaN	NaN	NaN	NaN	NaN
1059.9088446000003	0.7734	sub-18	1	sequence	choice	choice	left	NaN	NaN	0.7509337999999843	True	NaN	NaN	left	True	2.0	3.0	2.0
1060.6824556	0.5	sub-18	1	sequence	feedback	NaN	NaN	NaN	NaN	NaN	NaN	NaN	NaN	NaN	NaN	NaN	NaN	NaN
1065.0029353	0.4996	sub-18	1	localizer	stimulus	Gesicht	NaN	180	2.401879799999506	0.8458758999995553	True	NaN	NaN	NaN	NaN	NaN	NaN	NaN
1065.485958300001	2.4019	sub-18	1	localizer	blank	interval	NaN	NaN	NaN	NaN	NaN	NaN	NaN	NaN	NaN	NaN	NaN	NaN
1068.1887864	0.4997	sub-18	1	localizer	stimulus	Stuhl	NaN	0	2.6688394000002518	NaN	True	NaN	NaN	NaN	NaN	NaN	NaN	NaN
1068.6718245000002	2.6688	sub-18	1	localizer	blank	interval	NaN	NaN	NaN	NaN	NaN	NaN	NaN	NaN	NaN	NaN	NaN	NaN
1071.6416705	0.4997	sub-18	1	localizer	stimulus	Schuh	NaN	0	2.0347609000000375	NaN	True	NaN	NaN	NaN	NaN	NaN	NaN	NaN
1072.124777	2.0348	sub-18	1	localizer	blank	interval	NaN	NaN	NaN	NaN	NaN	NaN	NaN	NaN	NaN	NaN	NaN	NaN
1074.4605879	0.4996	sub-18	1	localizer	stimulus	Haus	NaN	0	2.5687299999999595	NaN	True	NaN	NaN	NaN	NaN	NaN	NaN	NaN
1074.9436991000002	2.5687	sub-18	1	localizer	blank	interval	NaN	NaN	NaN	NaN	NaN	NaN	NaN	NaN	NaN	NaN	NaN	NaN
1077.8133083000002	0.4996	sub-18	1	localizer	stimulus	Schuh	NaN	180	2.068165599999702	0.5634972999996535	True	NaN	NaN	NaN	NaN	NaN	NaN	NaN
1078.2963918000005	2.0682	sub-18	1	localizer	blank	interval	NaN	NaN	NaN	NaN	NaN	NaN	NaN	NaN	NaN	NaN	NaN	NaN
1080.6655975000003	0.4996	sub-18	1	localizer	stimulus	Stuhl	NaN	0	3.119058799999948	NaN	True	NaN	NaN	NaN	NaN	NaN	NaN	NaN
1081.1486312000006	3.1191	sub-18	1	localizer	blank	interval	NaN	NaN	NaN	NaN	NaN	NaN	NaN	NaN	NaN	NaN	NaN	NaN
1084.5687466000008	0.4996	sub-18	1	localizer	stimulus	Gesicht	NaN	0	2.535251000000244	NaN	True	NaN	NaN	NaN	NaN	NaN	NaN	NaN
1085.0518636000006	2.5353	sub-18	1	localizer	blank	interval	NaN	NaN	NaN	NaN	NaN	NaN	NaN	NaN	NaN	NaN	NaN	NaN
1087.888193000001	0.4996	sub-18	1	localizer	stimulus	Haus	NaN	180	2.918921099999352	0.5525855999994747	True	NaN	NaN	NaN	NaN	NaN	NaN	NaN
1088.3712404000007	2.9189	sub-18	1	localizer	blank	interval	NaN	NaN	NaN	NaN	NaN	NaN	NaN	NaN	NaN	NaN	NaN	NaN
1091.5911161000004	0.4997	sub-18	1	localizer	stimulus	Katze	NaN	0	2.4517530000002807	NaN	True	NaN	NaN	NaN	NaN	NaN	NaN	NaN
1092.0742221	2.4518	sub-18	1	localizer	blank	interval	NaN	NaN	NaN	NaN	NaN	NaN	NaN	NaN	NaN	NaN	NaN	NaN
1094.8270579	0.4995	sub-18	1	localizer	stimulus	Gesicht	NaN	0	2.83562329999927	NaN	True	NaN	NaN	NaN	NaN	NaN	NaN	NaN
1095.310089500001	2.8356	sub-18	1	localizer	blank	interval	NaN	NaN	NaN	NaN	NaN	NaN	NaN	NaN	NaN	NaN	NaN	NaN
1098.4467188000008	0.4996	sub-18	1	localizer	stimulus	Schuh	NaN	0	2.5684816000002684	NaN	True	NaN	NaN	NaN	NaN	NaN	NaN	NaN
1098.9297998000002	2.5685	sub-18	1	localizer	blank	interval	NaN	NaN	NaN	NaN	NaN	NaN	NaN	NaN	NaN	NaN	NaN	NaN
1101.7993507	0.4996	sub-18	1	localizer	stimulus	Schuh	NaN	0	3.2859519000003274	NaN	True	NaN	NaN	NaN	NaN	NaN	NaN	NaN
1102.2823623000004	3.286	sub-18	1	localizer	blank	interval	NaN	NaN	NaN	NaN	NaN	NaN	NaN	NaN	NaN	NaN	NaN	NaN
1105.8694151000009	0.4995	sub-18	1	localizer	stimulus	Katze	NaN	0	2.9021664000001692	NaN	True	NaN	NaN	NaN	NaN	NaN	NaN	NaN
1106.3523934000004	2.9022	sub-18	1	localizer	blank	interval	NaN	NaN	NaN	NaN	NaN	NaN	NaN	NaN	NaN	NaN	NaN	NaN
1109.5556320000003	0.4996	sub-18	1	localizer	stimulus	Haus	NaN	0	1.9515738000000056	NaN	True	NaN	NaN	NaN	NaN	NaN	NaN	NaN
