onset	duration	subject	session	condition	trial_type	stim_label	key_down	orientation	interval_time	response_time	accuracy	stim_index	serial_position	key_expected	key_pressed	choice_left	choice_right	choice_correct
1.273451500000192	2.312	sub-28	1	instruction	instruction	language_selection	german	NaN	NaN	NaN	NaN	NaN	NaN	NaN	NaN	NaN	NaN	NaN
37.63022150000052	0.4995	sub-28	1	localizer	stimulus	Schuh	NaN	0	2.084970200000498	NaN	1.0	NaN	NaN	NaN	NaN	NaN	NaN	NaN
38.11309590000019	2.085	sub-28	1	localizer	blank	interval	NaN	NaN	NaN	NaN	NaN	NaN	NaN	NaN	NaN	NaN	NaN	NaN
40.49935740000001	0.4995	sub-28	1	localizer	stimulus	Gesicht	NaN	0	2.9356410000000324	NaN	True	NaN	NaN	NaN	NaN	NaN	NaN	NaN
40.982278500000575	2.9356	sub-28	1	localizer	blank	interval	NaN	NaN	NaN	NaN	NaN	NaN	NaN	NaN	NaN	NaN	NaN	NaN
44.21903199999997	0.4993	sub-28	1	localizer	stimulus	Haus	NaN	0	3.135674299999664	NaN	True	NaN	NaN	NaN	NaN	NaN	NaN	NaN
44.70182790000035	3.1357	sub-28	1	localizer	blank	interval	NaN	NaN	NaN	NaN	NaN	NaN	NaN	NaN	NaN	NaN	NaN	NaN
48.13864259999991	0.4995	sub-28	1	localizer	stimulus	Stuhl	NaN	180	2.65197790000002	0.5505941999999777	True	NaN	NaN	NaN	NaN	NaN	NaN	NaN
48.62161379999998	2.652	sub-28	1	localizer	blank	interval	NaN	NaN	NaN	NaN	NaN	NaN	NaN	NaN	NaN	NaN	NaN	NaN
51.57477420000032	0.4995	sub-28	1	localizer	stimulus	Stuhl	NaN	0	2.118282299999919	NaN	True	NaN	NaN	NaN	NaN	NaN	NaN	NaN
52.05770940000002	2.1183	sub-28	1	localizer	blank	interval	NaN	NaN	NaN	NaN	NaN	NaN	NaN	NaN	NaN	NaN	NaN	NaN
54.4771724000002	0.4995	sub-28	1	localizer	stimulus	Katze	NaN	0	2.685345800000505	NaN	True	NaN	NaN	NaN	NaN	NaN	NaN	NaN
54.960086500000216	2.6853	sub-28	1	localizer	blank	interval	NaN	NaN	NaN	NaN	NaN	NaN	NaN	NaN	NaN	NaN	NaN	NaN
57.946573700000044	0.4996	sub-28	1	localizer	stimulus	Stuhl	NaN	0	2.7355586000003314	NaN	True	NaN	NaN	NaN	NaN	NaN	NaN	NaN
58.429521699999896	2.7356	sub-28	1	localizer	blank	interval	NaN	NaN	NaN	NaN	NaN	NaN	NaN	NaN	NaN	NaN	NaN	NaN
61.46620600000006	0.4995	sub-28	1	localizer	stimulus	Schuh	NaN	0	2.3685397999997804	NaN	True	NaN	NaN	NaN	NaN	NaN	NaN	NaN
61.94921010000053	2.3685	sub-28	1	localizer	blank	interval	NaN	NaN	NaN	NaN	NaN	NaN	NaN	NaN	NaN	NaN	NaN	NaN
64.6188430000002	0.4996	sub-28	1	localizer	stimulus	Katze	NaN	180	2.134633099999519	0.5984072000001106	True	NaN	NaN	NaN	NaN	NaN	NaN	NaN
65.10190320000038	2.1346	sub-28	1	localizer	blank	interval	NaN	NaN	NaN	NaN	NaN	NaN	NaN	NaN	NaN	NaN	NaN	NaN
67.5376511000004	0.4995	sub-28	1	localizer	stimulus	Katze	NaN	0	2.3185239000004003	NaN	True	NaN	NaN	NaN	NaN	NaN	NaN	NaN
68.03718930000014	2.3185	sub-28	1	localizer	blank	interval	NaN	NaN	NaN	NaN	NaN	NaN	NaN	NaN	NaN	NaN	NaN	NaN
70.65699570000015	0.4993	sub-28	1	localizer	stimulus	Haus	NaN	0	2.5520632000007026	NaN	True	NaN	NaN	NaN	NaN	NaN	NaN	NaN
71.13980309999988	2.5521	sub-28	1	localizer	blank	interval	NaN	NaN	NaN	NaN	NaN	NaN	NaN	NaN	NaN	NaN	NaN	NaN
73.99291220000032	0.4995	sub-28	1	localizer	stimulus	Gesicht	NaN	0	2.084925299999668	NaN	True	NaN	NaN	NaN	NaN	NaN	NaN	NaN
74.4758055000002	2.0849	sub-28	1	localizer	blank	interval	NaN	NaN	NaN	NaN	NaN	NaN	NaN	NaN	NaN	NaN	NaN	NaN
76.86188140000013	0.4996	sub-28	1	localizer	stimulus	Stuhl	NaN	0	2.351826699999947	NaN	True	NaN	NaN	NaN	NaN	NaN	NaN	NaN
77.34490540000024	2.3518	sub-28	1	localizer	blank	interval	NaN	NaN	NaN	NaN	NaN	NaN	NaN	NaN	NaN	NaN	NaN	NaN
79.99775330000011	0.4996	sub-28	1	localizer	stimulus	Gesicht	NaN	0	2.5853228999994826	NaN	True	NaN	NaN	NaN	NaN	NaN	NaN	NaN
80.48077140000078	2.5853	sub-28	1	localizer	blank	interval	NaN	NaN	NaN	NaN	NaN	NaN	NaN	NaN	NaN	NaN	NaN	NaN
83.36715780000031	0.4997	sub-28	1	localizer	stimulus	Schuh	NaN	180	2.4351934000005713	0.5379216000001179	True	NaN	NaN	NaN	NaN	NaN	NaN	NaN
83.8501784	2.4352	sub-28	1	localizer	blank	interval	NaN	NaN	NaN	NaN	NaN	NaN	NaN	NaN	NaN	NaN	NaN	NaN
86.58635720000075	0.4996	sub-28	1	localizer	stimulus	Stuhl	NaN	0	1.8513570999994045	NaN	True	NaN	NaN	NaN	NaN	NaN	NaN	NaN
87.06946000000062	1.8514	sub-28	1	localizer	blank	interval	NaN	NaN	NaN	NaN	NaN	NaN	NaN	NaN	NaN	NaN	NaN	NaN
89.22185730000001	0.4996	sub-28	1	localizer	stimulus	Haus	NaN	0	2.752145499999628	NaN	True	NaN	NaN	NaN	NaN	NaN	NaN	NaN
89.70479550000073	2.7521	sub-28	1	localizer	blank	interval	NaN	NaN	NaN	NaN	NaN	NaN	NaN	NaN	NaN	NaN	NaN	NaN
92.75806450000071	0.4995	sub-28	1	localizer	stimulus	Haus	NaN	0	2.2517820000002757	NaN	True	NaN	NaN	NaN	NaN	NaN	NaN	NaN
93.24099139999998	2.2518	sub-28	1	localizer	blank	interval	NaN	NaN	NaN	NaN	NaN	NaN	NaN	NaN	NaN	NaN	NaN	NaN
95.79384950000076	0.4996	sub-28	1	localizer	stimulus	Schuh	NaN	0	3.202520199999526	NaN	True	NaN	NaN	NaN	NaN	NaN	NaN	NaN
96.2768511000004	3.2025	sub-28	1	localizer	blank	interval	NaN	NaN	NaN	NaN	NaN	NaN	NaN	NaN	NaN	NaN	NaN	NaN
99.78036370000063	0.4996	sub-28	1	localizer	stimulus	Schuh	NaN	0	2.468584299999762	NaN	True	NaN	NaN	NaN	NaN	NaN	NaN	NaN
100.26331520000076	2.4686	sub-28	1	localizer	blank	interval	NaN	NaN	NaN	NaN	NaN	NaN	NaN	NaN	NaN	NaN	NaN	NaN
103.03317960000004	0.4994	sub-28	1	localizer	stimulus	Haus	NaN	180	2.368541300000274	0.5440710000002582	True	NaN	NaN	NaN	NaN	NaN	NaN	NaN
103.5161807000004	2.3685	sub-28	1	localizer	blank	interval	NaN	NaN	NaN	NaN	NaN	NaN	NaN	NaN	NaN	NaN	NaN	NaN
106.1858127000005	0.4995	sub-28	1	localizer	stimulus	Katze	NaN	0	2.1014332999993854	NaN	True	NaN	NaN	NaN	NaN	NaN	NaN	NaN
106.66873290000058	2.1014	sub-28	1	localizer	blank	interval	NaN	NaN	NaN	NaN	NaN	NaN	NaN	NaN	NaN	NaN	NaN	NaN
109.07122840000012	0.4995	sub-28	1	localizer	stimulus	Gesicht	NaN	0	2.1349639000000025	NaN	True	NaN	NaN	NaN	NaN	NaN	NaN	NaN
109.55414569999994	2.135	sub-28	1	localizer	blank	interval	NaN	NaN	NaN	NaN	NaN	NaN	NaN	NaN	NaN	NaN	NaN	NaN
111.99024090000056	0.4995	sub-28	1	localizer	stimulus	Gesicht	NaN	180	2.034718700000653	0.5309031999995568	True	NaN	NaN	NaN	NaN	NaN	NaN	NaN
112.47329549999996	2.0347	sub-28	1	localizer	blank	interval	NaN	NaN	NaN	NaN	NaN	NaN	NaN	NaN	NaN	NaN	NaN	NaN
114.8091787000003	0.4995	sub-28	1	localizer	stimulus	Katze	NaN	0	2.118238000000048	NaN	True	NaN	NaN	NaN	NaN	NaN	NaN	NaN
115.29211750000012	2.1182	sub-28	1	localizer	blank	interval	NaN	NaN	NaN	NaN	NaN	NaN	NaN	NaN	NaN	NaN	NaN	NaN
120.89684660000056	1.0005	sub-28	1	sequence	cue	Gesicht	NaN	NaN	NaN	NaN	NaN	NaN	NaN	NaN	NaN	NaN	NaN	NaN
121.89735310000016	2.0018	sub-28	1	sequence	blank	blank	NaN	NaN	NaN	NaN	NaN	NaN	NaN	NaN	NaN	NaN	NaN	NaN
123.89913800000068	0.3002	sub-28	1	sequence	fixation	dot	NaN	NaN	NaN	NaN	NaN	NaN	NaN	NaN	NaN	NaN	NaN	NaN
124.2640691000006	0.102	sub-28	1	sequence	stimulus	Katze	NaN	NaN	32.0	NaN	NaN	3.0	1.0	NaN	NaN	NaN	NaN	NaN
124.36605529999996	0.0335	sub-28	1	sequence	interval	dot	NaN	NaN	NaN	NaN	NaN	NaN	NaN	NaN	NaN	NaN	NaN	NaN
124.39957370000047	0.1	sub-28	1	sequence	stimulus	Schuh	NaN	NaN	32.0	NaN	NaN	4.0	2.0	NaN	NaN	NaN	NaN	NaN
124.4995514000002	0.0335	sub-28	1	sequence	interval	dot	NaN	NaN	NaN	NaN	NaN	NaN	NaN	NaN	NaN	NaN	NaN	NaN
124.53302000000076	0.1001	sub-28	1	sequence	stimulus	Stuhl	NaN	NaN	32.0	NaN	NaN	5.0	3.0	NaN	NaN	NaN	NaN	NaN
124.63307020000047	0.0334	sub-28	1	sequence	interval	dot	NaN	NaN	NaN	NaN	NaN	NaN	NaN	NaN	NaN	NaN	NaN	NaN
124.6664881000006	0.0999	sub-28	1	sequence	stimulus	Gesicht	NaN	NaN	32.0	NaN	NaN	1.0	4.0	NaN	NaN	NaN	NaN	NaN
124.76641650000056	0.0336	sub-28	1	sequence	interval	dot	NaN	NaN	NaN	NaN	NaN	NaN	NaN	NaN	NaN	NaN	NaN	NaN
124.8000075	0.0998	sub-28	1	sequence	stimulus	Haus	NaN	NaN	32.0	NaN	NaN	2.0	5.0	NaN	NaN	NaN	NaN	NaN
124.89985539999998	0.0334	sub-28	1	sequence	interval	dot	NaN	NaN	NaN	NaN	NaN	NaN	NaN	NaN	NaN	NaN	NaN	NaN
124.93323039999996	8.5382	sub-28	1	sequence	delay	dot	NaN	NaN	NaN	NaN	NaN	NaN	NaN	NaN	NaN	NaN	NaN	NaN
133.44967240000005	1.3917	sub-28	1	sequence	choice	choice	right	NaN	NaN	1.3616103000003932	True	NaN	NaN	right	1.0	5.0	4.0	4.0
134.84178800000063	0.4999	sub-28	1	sequence	feedback	NaN	NaN	NaN	NaN	NaN	NaN	NaN	NaN	NaN	NaN	NaN	NaN	NaN
135.34185120000075	1.0005	sub-28	1	sequence	cue	Schuh	NaN	NaN	NaN	NaN	NaN	NaN	NaN	NaN	NaN	NaN	NaN	NaN
136.34236099999998	2.0016	sub-28	1	sequence	blank	blank	NaN	NaN	NaN	NaN	NaN	NaN	NaN	NaN	NaN	NaN	NaN	NaN
138.34394909999992	0.3004	sub-28	1	sequence	fixation	dot	NaN	NaN	NaN	NaN	NaN	NaN	NaN	NaN	NaN	NaN	NaN	NaN
138.67666430000008	0.101	sub-28	1	sequence	stimulus	Katze	NaN	NaN	128.0	NaN	NaN	3.0	1.0	NaN	NaN	NaN	NaN	NaN
138.77766510000038	0.1336	sub-28	1	sequence	interval	dot	NaN	NaN	NaN	NaN	NaN	NaN	NaN	NaN	NaN	NaN	NaN	NaN
138.9112954000002	0.0998	sub-28	1	sequence	stimulus	Haus	NaN	NaN	128.0	NaN	NaN	2.0	2.0	NaN	NaN	NaN	NaN	NaN
139.01113220000025	0.1337	sub-28	1	sequence	interval	dot	NaN	NaN	NaN	NaN	NaN	NaN	NaN	NaN	NaN	NaN	NaN	NaN
139.1448360000004	0.0998	sub-28	1	sequence	stimulus	Stuhl	NaN	NaN	128.0	NaN	NaN	5.0	3.0	NaN	NaN	NaN	NaN	NaN
139.24464700000044	0.1336	sub-28	1	sequence	interval	dot	NaN	NaN	NaN	NaN	NaN	NaN	NaN	NaN	NaN	NaN	NaN	NaN
139.37826330000007	0.0999	sub-28	1	sequence	stimulus	Gesicht	NaN	NaN	128.0	NaN	NaN	1.0	4.0	NaN	NaN	NaN	NaN	NaN
139.47817610000038	0.1337	sub-28	1	sequence	interval	dot	NaN	NaN	NaN	NaN	NaN	NaN	NaN	NaN	NaN	NaN	NaN	NaN
139.61185019999994	0.0999	sub-28	1	sequence	stimulus	Schuh	NaN	NaN	128.0	NaN	NaN	4.0	5.0	NaN	NaN	NaN	NaN	NaN
139.71171350000077	0.1334	sub-28	1	sequence	interval	dot	NaN	NaN	NaN	NaN	NaN	NaN	NaN	NaN	NaN	NaN	NaN	NaN
139.8451369000004	8.0547	sub-28	1	sequence	delay	dot	NaN	NaN	NaN	NaN	NaN	NaN	NaN	NaN	NaN	NaN	NaN	NaN
147.87935330000073	1.0402	sub-28	1	sequence	choice	choice	right	NaN	NaN	1.0131915000001754	True	NaN	NaN	right	True	3.0	5.0	5.0
148.91982590000043	0.4998	sub-28	1	sequence	feedback	NaN	NaN	NaN	NaN	NaN	NaN	NaN	NaN	NaN	NaN	NaN	NaN	NaN
149.41973810000036	1.0007	sub-28	1	sequence	cue	Katze	NaN	NaN	NaN	NaN	NaN	NaN	NaN	NaN	NaN	NaN	NaN	NaN
150.42040570000063	2.0016	sub-28	1	sequence	blank	blank	NaN	NaN	NaN	NaN	NaN	NaN	NaN	NaN	NaN	NaN	NaN	NaN
152.42199060000075	0.3002	sub-28	1	sequence	fixation	dot	NaN	NaN	NaN	NaN	NaN	NaN	NaN	NaN	NaN	NaN	NaN	NaN
152.74079230000007	0.1149	sub-28	1	sequence	stimulus	Schuh	NaN	NaN	64.0	NaN	NaN	4.0	1.0	NaN	NaN	NaN	NaN	NaN
152.85564710000017	0.0668	sub-28	1	sequence	interval	dot	NaN	NaN	NaN	NaN	NaN	NaN	NaN	NaN	NaN	NaN	NaN	NaN
152.9224795	0.1	sub-28	1	sequence	stimulus	Stuhl	NaN	NaN	64.0	NaN	NaN	5.0	2.0	NaN	NaN	NaN	NaN	NaN
153.02246020000075	0.0668	sub-28	1	sequence	interval	dot	NaN	NaN	NaN	NaN	NaN	NaN	NaN	NaN	NaN	NaN	NaN	NaN
153.08929740000076	0.1001	sub-28	1	sequence	stimulus	Haus	NaN	NaN	64.0	NaN	NaN	2.0	3.0	NaN	NaN	NaN	NaN	NaN
153.1893538000004	0.0668	sub-28	1	sequence	interval	dot	NaN	NaN	NaN	NaN	NaN	NaN	NaN	NaN	NaN	NaN	NaN	NaN
153.2561183000007	0.0999	sub-28	1	sequence	stimulus	Gesicht	NaN	NaN	64.0	NaN	NaN	1.0	4.0	NaN	NaN	NaN	NaN	NaN
153.3560655000001	0.0668	sub-28	1	sequence	interval	dot	NaN	NaN	NaN	NaN	NaN	NaN	NaN	NaN	NaN	NaN	NaN	NaN
153.4228960999999	0.1001	sub-28	1	sequence	stimulus	Katze	NaN	NaN	64.0	NaN	NaN	3.0	5.0	NaN	NaN	NaN	NaN	NaN
153.52301070000067	0.0666	sub-28	1	sequence	interval	dot	NaN	NaN	NaN	NaN	NaN	NaN	NaN	NaN	NaN	NaN	NaN	NaN
153.58957920000012	8.3718	sub-28	1	sequence	delay	dot	NaN	NaN	NaN	NaN	NaN	NaN	NaN	NaN	NaN	NaN	NaN	NaN
161.9450949000002	1.169	sub-28	1	sequence	choice	choice	left	NaN	NaN	1.151708499999586	True	NaN	NaN	left	True	5.0	4.0	5.0
163.11426010000014	0.5001	sub-28	1	sequence	feedback	NaN	NaN	NaN	NaN	NaN	NaN	NaN	NaN	NaN	NaN	NaN	NaN	NaN
163.61448520000067	1.0007	sub-28	1	sequence	cue	Katze	NaN	NaN	NaN	NaN	NaN	NaN	NaN	NaN	NaN	NaN	NaN	NaN
164.61516610000035	2.0017	sub-28	1	sequence	blank	blank	NaN	NaN	NaN	NaN	NaN	NaN	NaN	NaN	NaN	NaN	NaN	NaN
166.61686220000047	0.3003	sub-28	1	sequence	fixation	dot	NaN	NaN	NaN	NaN	NaN	NaN	NaN	NaN	NaN	NaN	NaN	NaN
166.9353976000002	0.1152	sub-28	1	sequence	stimulus	Haus	NaN	NaN	512.0	NaN	NaN	2.0	1.0	NaN	NaN	NaN	NaN	NaN
167.0505716000007	0.5172	sub-28	1	sequence	interval	dot	NaN	NaN	NaN	NaN	NaN	NaN	NaN	NaN	NaN	NaN	NaN	NaN
167.5677493000003	0.1	sub-28	1	sequence	stimulus	Stuhl	NaN	NaN	512.0	NaN	NaN	5.0	2.0	NaN	NaN	NaN	NaN	NaN
167.66773080000075	0.5172	sub-28	1	sequence	interval	dot	NaN	NaN	NaN	NaN	NaN	NaN	NaN	NaN	NaN	NaN	NaN	NaN
168.18491070000073	0.1147	sub-28	1	sequence	stimulus	Gesicht	NaN	NaN	512.0	NaN	NaN	1.0	3.0	NaN	NaN	NaN	NaN	NaN
168.29957540000032	0.5193	sub-28	1	sequence	interval	dot	NaN	NaN	NaN	NaN	NaN	NaN	NaN	NaN	NaN	NaN	NaN	NaN
168.81883950000065	0.1	sub-28	1	sequence	stimulus	Schuh	NaN	NaN	512.0	NaN	NaN	4.0	4.0	NaN	NaN	NaN	NaN	NaN
168.91883720000078	0.5172	sub-28	1	sequence	interval	dot	NaN	NaN	NaN	NaN	NaN	NaN	NaN	NaN	NaN	NaN	NaN	NaN
169.43607940000038	0.1	sub-28	1	sequence	stimulus	Katze	NaN	NaN	512.0	NaN	NaN	3.0	5.0	NaN	NaN	NaN	NaN	NaN
169.53605890000017	0.517	sub-28	1	sequence	interval	dot	NaN	NaN	NaN	NaN	NaN	NaN	NaN	NaN	NaN	NaN	NaN	NaN
170.05302090000075	6.1531	sub-28	1	sequence	delay	dot	NaN	NaN	NaN	NaN	NaN	NaN	NaN	NaN	NaN	NaN	NaN	NaN
176.1927024000006	0.9996	sub-28	1	sequence	choice	choice	left	NaN	NaN	0.9788820000003398	True	NaN	NaN	left	True	5.0	3.0	5.0
177.1925368000002	0.5	sub-28	1	sequence	feedback	NaN	NaN	NaN	NaN	NaN	NaN	NaN	NaN	NaN	NaN	NaN	NaN	NaN
177.69268920000013	1.0005	sub-28	1	sequence	cue	Katze	NaN	NaN	NaN	NaN	NaN	NaN	NaN	NaN	NaN	NaN	NaN	NaN
178.69322730000022	2.0018	sub-28	1	sequence	blank	blank	NaN	NaN	NaN	NaN	NaN	NaN	NaN	NaN	NaN	NaN	NaN	NaN
180.6949940000004	0.3001	sub-28	1	sequence	fixation	dot	NaN	NaN	NaN	NaN	NaN	NaN	NaN	NaN	NaN	NaN	NaN	NaN
181.0126369	0.0992	sub-28	1	sequence	stimulus	Gesicht	NaN	NaN	128.0	NaN	NaN	1.0	1.0	NaN	NaN	NaN	NaN	NaN
181.1118349000008	0.1335	sub-28	1	sequence	interval	dot	NaN	NaN	NaN	NaN	NaN	NaN	NaN	NaN	NaN	NaN	NaN	NaN
181.2453800000003	0.1	sub-28	1	sequence	stimulus	Schuh	NaN	NaN	128.0	NaN	NaN	4.0	2.0	NaN	NaN	NaN	NaN	NaN
181.3453356	0.1336	sub-28	1	sequence	interval	dot	NaN	NaN	NaN	NaN	NaN	NaN	NaN	NaN	NaN	NaN	NaN	NaN
181.47891320000053	0.1	sub-28	1	sequence	stimulus	Haus	NaN	NaN	128.0	NaN	NaN	2.0	3.0	NaN	NaN	NaN	NaN	NaN
181.57887140000005	0.1336	sub-28	1	sequence	interval	dot	NaN	NaN	NaN	NaN	NaN	NaN	NaN	NaN	NaN	NaN	NaN	NaN
181.71244710000065	0.0999	sub-28	1	sequence	stimulus	Stuhl	NaN	NaN	128.0	NaN	NaN	5.0	4.0	NaN	NaN	NaN	NaN	NaN
181.8123843000003	0.1336	sub-28	1	sequence	interval	dot	NaN	NaN	NaN	NaN	NaN	NaN	NaN	NaN	NaN	NaN	NaN	NaN
181.94595480000044	0.0999	sub-28	1	sequence	stimulus	Katze	NaN	NaN	128.0	NaN	NaN	3.0	5.0	NaN	NaN	NaN	NaN	NaN
182.04588440000043	0.1335	sub-28	1	sequence	interval	dot	NaN	NaN	NaN	NaN	NaN	NaN	NaN	NaN	NaN	NaN	NaN	NaN
182.17934240000068	8.0717	sub-28	1	sequence	delay	dot	NaN	NaN	NaN	NaN	NaN	NaN	NaN	NaN	NaN	NaN	NaN	NaN
190.23237030000016	1.438	sub-28	1	sequence	choice	choice	left	NaN	NaN	1.4138551999994888	True	NaN	NaN	left	True	5.0	3.0	5.0
191.67054370000005	0.5003	sub-28	1	sequence	feedback	NaN	NaN	NaN	NaN	NaN	NaN	NaN	NaN	NaN	NaN	NaN	NaN	NaN
192.1709589000002	1.0008	sub-28	1	sequence	cue	Schuh	NaN	NaN	NaN	NaN	NaN	NaN	NaN	NaN	NaN	NaN	NaN	NaN
193.1717262000002	2.0015	sub-28	1	sequence	blank	blank	NaN	NaN	NaN	NaN	NaN	NaN	NaN	NaN	NaN	NaN	NaN	NaN
195.1732193000007	0.3002	sub-28	1	sequence	fixation	dot	NaN	NaN	NaN	NaN	NaN	NaN	NaN	NaN	NaN	NaN	NaN	NaN
195.4920050000001	0.1148	sub-28	1	sequence	stimulus	Haus	NaN	NaN	32.0	NaN	NaN	2.0	1.0	NaN	NaN	NaN	NaN	NaN
195.6068466000006	0.0335	sub-28	1	sequence	interval	dot	NaN	NaN	NaN	NaN	NaN	NaN	NaN	NaN	NaN	NaN	NaN	NaN
195.64033500000005	0.0999	sub-28	1	sequence	stimulus	Schuh	NaN	NaN	32.0	NaN	NaN	4.0	2.0	NaN	NaN	NaN	NaN	NaN
195.7402649000005	0.0335	sub-28	1	sequence	interval	dot	NaN	NaN	NaN	NaN	NaN	NaN	NaN	NaN	NaN	NaN	NaN	NaN
195.77378360000057	0.0999	sub-28	1	sequence	stimulus	Katze	NaN	NaN	32.0	NaN	NaN	3.0	3.0	NaN	NaN	NaN	NaN	NaN
195.8737219000004	0.0335	sub-28	1	sequence	interval	dot	NaN	NaN	NaN	NaN	NaN	NaN	NaN	NaN	NaN	NaN	NaN	NaN
195.9072199000002	0.1001	sub-28	1	sequence	stimulus	Gesicht	NaN	NaN	32.0	NaN	NaN	1.0	4.0	NaN	NaN	NaN	NaN	NaN
196.00730620000013	0.0334	sub-28	1	sequence	interval	dot	NaN	NaN	NaN	NaN	NaN	NaN	NaN	NaN	NaN	NaN	NaN	NaN
196.0406570000005	0.0999	sub-28	1	sequence	stimulus	Stuhl	NaN	NaN	32.0	NaN	NaN	5.0	5.0	NaN	NaN	NaN	NaN	NaN
196.1405999000008	0.0334	sub-28	1	sequence	interval	dot	NaN	NaN	NaN	NaN	NaN	NaN	NaN	NaN	NaN	NaN	NaN	NaN
196.17400200000063	8.5382	sub-28	1	sequence	delay	dot	NaN	NaN	NaN	NaN	NaN	NaN	NaN	NaN	NaN	NaN	NaN	NaN
204.68803389999997	1.2941	sub-28	1	sequence	choice	choice	right	NaN	NaN	1.2647457999992184	True	NaN	NaN	right	True	4.0	2.0	2.0
205.98239600000036	0.5	sub-28	1	sequence	feedback	NaN	NaN	NaN	NaN	NaN	NaN	NaN	NaN	NaN	NaN	NaN	NaN	NaN
206.48263580000005	1.0005	sub-28	1	sequence	cue	Katze	NaN	NaN	NaN	NaN	NaN	NaN	NaN	NaN	NaN	NaN	NaN	NaN
207.48313700000017	2.0019	sub-28	1	sequence	blank	blank	NaN	NaN	NaN	NaN	NaN	NaN	NaN	NaN	NaN	NaN	NaN	NaN
209.4850223000003	0.3001	sub-28	1	sequence	fixation	dot	NaN	NaN	NaN	NaN	NaN	NaN	NaN	NaN	NaN	NaN	NaN	NaN
209.80347510000047	0.1151	sub-28	1	sequence	stimulus	Haus	NaN	NaN	64.0	NaN	NaN	2.0	1.0	NaN	NaN	NaN	NaN	NaN
209.91854200000037	0.0669	sub-28	1	sequence	interval	dot	NaN	NaN	NaN	NaN	NaN	NaN	NaN	NaN	NaN	NaN	NaN	NaN
209.9854852000008	0.0999	sub-28	1	sequence	stimulus	Gesicht	NaN	NaN	64.0	NaN	NaN	1.0	2.0	NaN	NaN	NaN	NaN	NaN
210.0854334000005	0.065	sub-28	1	sequence	interval	dot	NaN	NaN	NaN	NaN	NaN	NaN	NaN	NaN	NaN	NaN	NaN	NaN
210.1504547000004	0.0999	sub-28	1	sequence	stimulus	Stuhl	NaN	NaN	64.0	NaN	NaN	5.0	3.0	NaN	NaN	NaN	NaN	NaN
210.25038080000013	0.0667	sub-28	1	sequence	interval	dot	NaN	NaN	NaN	NaN	NaN	NaN	NaN	NaN	NaN	NaN	NaN	NaN
210.31710079999996	0.1019	sub-28	1	sequence	stimulus	Schuh	NaN	NaN	64.0	NaN	NaN	4.0	4.0	NaN	NaN	NaN	NaN	NaN
210.4189839999999	0.0669	sub-28	1	sequence	interval	dot	NaN	NaN	NaN	NaN	NaN	NaN	NaN	NaN	NaN	NaN	NaN	NaN
210.4858739000001	0.1	sub-28	1	sequence	stimulus	Katze	NaN	NaN	64.0	NaN	NaN	3.0	5.0	NaN	NaN	NaN	NaN	NaN
210.58583400000043	0.0668	sub-28	1	sequence	interval	dot	NaN	NaN	NaN	NaN	NaN	NaN	NaN	NaN	NaN	NaN	NaN	NaN
210.65261030000056	8.3715	sub-28	1	sequence	delay	dot	NaN	NaN	NaN	NaN	NaN	NaN	NaN	NaN	NaN	NaN	NaN	NaN
219.01370920000045	1.1466	sub-28	1	sequence	choice	choice	right	NaN	NaN	1.128853600000184	True	NaN	NaN	right	True	3.0	5.0	5.0
220.1605322000005	0.5001	sub-28	1	sequence	feedback	NaN	NaN	NaN	NaN	NaN	NaN	NaN	NaN	NaN	NaN	NaN	NaN	NaN
220.66084610000053	1.0005	sub-28	1	sequence	cue	Schuh	NaN	NaN	NaN	NaN	NaN	NaN	NaN	NaN	NaN	NaN	NaN	NaN
221.6613798000008	2.0016	sub-28	1	sequence	blank	blank	NaN	NaN	NaN	NaN	NaN	NaN	NaN	NaN	NaN	NaN	NaN	NaN
223.66301879999992	0.3001	sub-28	1	sequence	fixation	dot	NaN	NaN	NaN	NaN	NaN	NaN	NaN	NaN	NaN	NaN	NaN	NaN
223.9806569000002	0.0992	sub-28	1	sequence	stimulus	Haus	NaN	NaN	512.0	NaN	NaN	2.0	1.0	NaN	NaN	NaN	NaN	NaN
224.07981879999988	0.5172	sub-28	1	sequence	interval	dot	NaN	NaN	NaN	NaN	NaN	NaN	NaN	NaN	NaN	NaN	NaN	NaN
224.5970170999999	0.1	sub-28	1	sequence	stimulus	Stuhl	NaN	NaN	512.0	NaN	NaN	5.0	2.0	NaN	NaN	NaN	NaN	NaN
224.69701179999996	0.5172	sub-28	1	sequence	interval	dot	NaN	NaN	NaN	NaN	NaN	NaN	NaN	NaN	NaN	NaN	NaN	NaN
225.21418360000007	0.1	sub-28	1	sequence	stimulus	Katze	NaN	NaN	512.0	NaN	NaN	3.0	3.0	NaN	NaN	NaN	NaN	NaN
225.31416799999988	0.5172	sub-28	1	sequence	interval	dot	NaN	NaN	NaN	NaN	NaN	NaN	NaN	NaN	NaN	NaN	NaN	NaN
225.8314074	0.0999	sub-28	1	sequence	stimulus	Schuh	NaN	NaN	512.0	NaN	NaN	4.0	4.0	NaN	NaN	NaN	NaN	NaN
225.93131730000005	0.5172	sub-28	1	sequence	interval	dot	NaN	NaN	NaN	NaN	NaN	NaN	NaN	NaN	NaN	NaN	NaN	NaN
226.44854360000045	0.0999	sub-28	1	sequence	stimulus	Gesicht	NaN	NaN	512.0	NaN	NaN	1.0	5.0	NaN	NaN	NaN	NaN	NaN
226.54848590000077	0.5171	sub-28	1	sequence	interval	dot	NaN	NaN	NaN	NaN	NaN	NaN	NaN	NaN	NaN	NaN	NaN	NaN
227.06559520000064	6.1366	sub-28	1	sequence	delay	dot	NaN	NaN	NaN	NaN	NaN	NaN	NaN	NaN	NaN	NaN	NaN	NaN
233.18339670000023	2.1225	sub-28	1	sequence	choice	choice	left	NaN	NaN	2.102687999999944	True	NaN	NaN	left	True	4.0	3.0	4.0
235.30619540000043	0.5002	sub-28	1	sequence	feedback	NaN	NaN	NaN	NaN	NaN	NaN	NaN	NaN	NaN	NaN	NaN	NaN	NaN
239.6267463000004	0.4994	sub-28	1	localizer	stimulus	Gesicht	NaN	0	2.435213399999128	NaN	True	NaN	NaN	NaN	NaN	NaN	NaN	NaN
240.1095723000008	2.4352	sub-28	1	localizer	blank	interval	NaN	NaN	NaN	NaN	NaN	NaN	NaN	NaN	NaN	NaN	NaN	NaN
242.84592260000045	0.4994	sub-28	1	localizer	stimulus	Haus	NaN	0	2.5520100000003083	NaN	True	NaN	NaN	NaN	NaN	NaN	NaN	NaN
243.3288560000001	2.552	sub-28	1	localizer	blank	interval	NaN	NaN	NaN	NaN	NaN	NaN	NaN	NaN	NaN	NaN	NaN	NaN
246.18192820000056	0.4995	sub-28	1	localizer	stimulus	Katze	NaN	0	2.2516948999991655	NaN	True	NaN	NaN	NaN	NaN	NaN	NaN	NaN
246.66488520000075	2.2517	sub-28	1	localizer	blank	interval	NaN	NaN	NaN	NaN	NaN	NaN	NaN	NaN	NaN	NaN	NaN	NaN
249.2179103000008	0.4993	sub-28	1	localizer	stimulus	Schuh	NaN	0	3.5364122000001146	NaN	True	NaN	NaN	NaN	NaN	NaN	NaN	NaN
249.70070530000064	3.5364	sub-28	1	localizer	blank	interval	NaN	NaN	NaN	NaN	NaN	NaN	NaN	NaN	NaN	NaN	NaN	NaN
253.53810340000015	0.4992	sub-28	1	localizer	stimulus	Gesicht	NaN	0	2.518659899999875	NaN	True	NaN	NaN	NaN	NaN	NaN	NaN	NaN
254.02079740000045	2.5187	sub-28	1	localizer	blank	interval	NaN	NaN	NaN	NaN	NaN	NaN	NaN	NaN	NaN	NaN	NaN	NaN
256.8405782	0.4995	sub-28	1	localizer	stimulus	Schuh	NaN	0	2.6520571000000928	NaN	True	NaN	NaN	NaN	NaN	NaN	NaN	NaN
257.32344340000054	2.6521	sub-28	1	localizer	blank	interval	NaN	NaN	NaN	NaN	NaN	NaN	NaN	NaN	NaN	NaN	NaN	NaN
260.2766433000006	0.4996	sub-28	1	localizer	stimulus	Schuh	NaN	180	2.468571299999894	0.5802021999998033	True	NaN	NaN	NaN	NaN	NaN	NaN	NaN
260.7595411000002	2.4686	sub-28	1	localizer	blank	interval	NaN	NaN	NaN	NaN	NaN	NaN	NaN	NaN	NaN	NaN	NaN	NaN
263.5292937000004	0.4995	sub-28	1	localizer	stimulus	Haus	NaN	0	2.585276900000281	NaN	True	NaN	NaN	NaN	NaN	NaN	NaN	NaN
264.0122239000002	2.5853	sub-28	1	localizer	blank	interval	NaN	NaN	NaN	NaN	NaN	NaN	NaN	NaN	NaN	NaN	NaN	NaN
266.8986953000003	0.4995	sub-28	1	localizer	stimulus	Haus	NaN	0	2.4686177000003227	NaN	True	NaN	NaN	NaN	NaN	NaN	NaN	NaN
267.3816096999999	2.4686	sub-28	1	localizer	blank	interval	NaN	NaN	NaN	NaN	NaN	NaN	NaN	NaN	NaN	NaN	NaN	NaN
270.15150950000043	0.4993	sub-28	1	localizer	stimulus	Stuhl	NaN	180	2.5854008000005706	0.5293768999999884	True	NaN	NaN	NaN	NaN	NaN	NaN	NaN
270.6342617	2.5854	sub-28	1	localizer	blank	interval	NaN	NaN	NaN	NaN	NaN	NaN	NaN	NaN	NaN	NaN	NaN	NaN
273.52085720000014	0.4996	sub-28	1	localizer	stimulus	Stuhl	NaN	0	2.184727899999416	NaN	True	NaN	NaN	NaN	NaN	NaN	NaN	NaN
274.0038514000007	2.1847	sub-28	1	localizer	blank	interval	NaN	NaN	NaN	NaN	NaN	NaN	NaN	NaN	NaN	NaN	NaN	NaN
276.4897523	0.4995	sub-28	1	localizer	stimulus	Schuh	NaN	0	1.6345167999998012	NaN	True	NaN	NaN	NaN	NaN	NaN	NaN	NaN
276.9726864000004	1.6345	sub-28	1	localizer	blank	interval	NaN	NaN	NaN	NaN	NaN	NaN	NaN	NaN	NaN	NaN	NaN	NaN
278.9083419000008	0.4995	sub-28	1	localizer	stimulus	Katze	NaN	0	1.6512158000005002	NaN	True	NaN	NaN	NaN	NaN	NaN	NaN	NaN
279.39129630000025	1.6512	sub-28	1	localizer	blank	interval	NaN	NaN	NaN	NaN	NaN	NaN	NaN	NaN	NaN	NaN	NaN	NaN
281.34366709999995	0.4995	sub-28	1	localizer	stimulus	Katze	NaN	180	2.9855880000004618	0.5531025000000227	True	NaN	NaN	NaN	NaN	NaN	NaN	NaN
281.8266056000002	2.9856	sub-28	1	localizer	blank	interval	NaN	NaN	NaN	NaN	NaN	NaN	NaN	NaN	NaN	NaN	NaN	NaN
285.11337150000054	0.4994	sub-28	1	localizer	stimulus	Gesicht	NaN	0	2.802164800000412	NaN	True	NaN	NaN	NaN	NaN	NaN	NaN	NaN
285.5962743	2.8022	sub-28	1	localizer	blank	interval	NaN	NaN	NaN	NaN	NaN	NaN	NaN	NaN	NaN	NaN	NaN	NaN
288.69958660000066	0.4996	sub-28	1	localizer	stimulus	Stuhl	NaN	0	2.9023408000002746	NaN	True	NaN	NaN	NaN	NaN	NaN	NaN	NaN
289.1825981000002	2.9023	sub-28	1	localizer	blank	interval	NaN	NaN	NaN	NaN	NaN	NaN	NaN	NaN	NaN	NaN	NaN	NaN
292.38597690000006	0.4996	sub-28	1	localizer	stimulus	Gesicht	NaN	0	3.052233299999898	NaN	True	NaN	NaN	NaN	NaN	NaN	NaN	NaN
292.8690094000003	3.0522	sub-28	1	localizer	blank	interval	NaN	NaN	NaN	NaN	NaN	NaN	NaN	NaN	NaN	NaN	NaN	NaN
296.2223333000002	0.4995	sub-28	1	localizer	stimulus	Gesicht	NaN	180	2.134868899999617	0.4823920999997426	True	NaN	NaN	NaN	NaN	NaN	NaN	NaN
296.7053152000008	2.1349	sub-28	1	localizer	blank	interval	NaN	NaN	NaN	NaN	NaN	NaN	NaN	NaN	NaN	NaN	NaN	NaN
299.1413556000007	0.4996	sub-28	1	localizer	stimulus	Katze	NaN	0	2.5685989000003246	NaN	True	NaN	NaN	NaN	NaN	NaN	NaN	NaN
299.6242792000003	2.5686	sub-28	1	localizer	blank	interval	NaN	NaN	NaN	NaN	NaN	NaN	NaN	NaN	NaN	NaN	NaN	NaN
302.49403299999994	0.5	sub-28	1	localizer	stimulus	Stuhl	NaN	0	3.1357152000000497	NaN	True	NaN	NaN	NaN	NaN	NaN	NaN	NaN
302.97705140000016	3.1357	sub-28	1	localizer	blank	interval	NaN	NaN	NaN	NaN	NaN	NaN	NaN	NaN	NaN	NaN	NaN	NaN
306.4139438000002	0.4995	sub-28	1	localizer	stimulus	Haus	NaN	180	2.5353046999998696	0.4746902999995654	True	NaN	NaN	NaN	NaN	NaN	NaN	NaN
306.8968238000007	2.5353	sub-28	1	localizer	blank	interval	NaN	NaN	NaN	NaN	NaN	NaN	NaN	NaN	NaN	NaN	NaN	NaN
309.7332277000005	0.4995	sub-28	1	localizer	stimulus	Schuh	NaN	0	3.3526926000004096	NaN	True	NaN	NaN	NaN	NaN	NaN	NaN	NaN
310.21627530000023	3.3527	sub-28	1	localizer	blank	interval	NaN	NaN	NaN	NaN	NaN	NaN	NaN	NaN	NaN	NaN	NaN	NaN
313.8699348	0.4996	sub-28	1	localizer	stimulus	Stuhl	NaN	0	1.6513215999993918	NaN	True	NaN	NaN	NaN	NaN	NaN	NaN	NaN
314.3530444000007	1.6513	sub-28	1	localizer	blank	interval	NaN	NaN	NaN	NaN	NaN	NaN	NaN	NaN	NaN	NaN	NaN	NaN
316.30545660000007	0.4993	sub-28	1	localizer	stimulus	Katze	NaN	0	3.8863336999993408	NaN	True	NaN	NaN	NaN	NaN	NaN	NaN	NaN
316.7881651000007	3.8863	sub-28	1	localizer	blank	interval	NaN	NaN	NaN	NaN	NaN	NaN	NaN	NaN	NaN	NaN	NaN	NaN
320.9756824000005	0.4994	sub-28	1	localizer	stimulus	Haus	NaN	0	1.8179706999998757	NaN	True	NaN	NaN	NaN	NaN	NaN	NaN	NaN
321.4586135	1.818	sub-28	1	localizer	blank	interval	NaN	NaN	NaN	NaN	NaN	NaN	NaN	NaN	NaN	NaN	NaN	NaN
326.7630521000001	1.0006	sub-28	1	sequence	cue	Schuh	NaN	NaN	NaN	NaN	NaN	NaN	NaN	NaN	NaN	NaN	NaN	NaN
327.7636868	2.0016	sub-28	1	sequence	blank	blank	NaN	NaN	NaN	NaN	NaN	NaN	NaN	NaN	NaN	NaN	NaN	NaN
329.76526150000063	0.3003	sub-28	1	sequence	fixation	dot	NaN	NaN	NaN	NaN	NaN	NaN	NaN	NaN	NaN	NaN	NaN	NaN
330.097495	0.1014	sub-28	1	sequence	stimulus	Katze	NaN	NaN	128.0	NaN	NaN	3.0	1.0	NaN	NaN	NaN	NaN	NaN
330.19887629999994	0.1336	sub-28	1	sequence	interval	dot	NaN	NaN	NaN	NaN	NaN	NaN	NaN	NaN	NaN	NaN	NaN	NaN
330.3324898000001	0.0999	sub-28	1	sequence	stimulus	Haus	NaN	NaN	128.0	NaN	NaN	2.0	2.0	NaN	NaN	NaN	NaN	NaN
330.4323445	0.1336	sub-28	1	sequence	interval	dot	NaN	NaN	NaN	NaN	NaN	NaN	NaN	NaN	NaN	NaN	NaN	NaN
330.5659676000005	0.1	sub-28	1	sequence	stimulus	Stuhl	NaN	NaN	128.0	NaN	NaN	5.0	3.0	NaN	NaN	NaN	NaN	NaN
330.66598220000014	0.1334	sub-28	1	sequence	interval	dot	NaN	NaN	NaN	NaN	NaN	NaN	NaN	NaN	NaN	NaN	NaN	NaN
330.7994206000003	0.1001	sub-28	1	sequence	stimulus	Gesicht	NaN	NaN	128.0	NaN	NaN	1.0	4.0	NaN	NaN	NaN	NaN	NaN
330.8995012000005	0.1336	sub-28	1	sequence	interval	dot	NaN	NaN	NaN	NaN	NaN	NaN	NaN	NaN	NaN	NaN	NaN	NaN
331.03309979999995	0.0998	sub-28	1	sequence	stimulus	Schuh	NaN	NaN	128.0	NaN	NaN	4.0	5.0	NaN	NaN	NaN	NaN	NaN
331.1329305	0.1336	sub-28	1	sequence	interval	dot	NaN	NaN	NaN	NaN	NaN	NaN	NaN	NaN	NaN	NaN	NaN	NaN
331.2664967999999	8.0714	sub-28	1	sequence	delay	dot	NaN	NaN	NaN	NaN	NaN	NaN	NaN	NaN	NaN	NaN	NaN	NaN
339.3128863000002	0.8776	sub-28	1	sequence	choice	choice	right	NaN	NaN	0.8467768999998952	True	NaN	NaN	right	True	4.0	5.0	5.0
340.1908458000007	0.4999	sub-28	1	sequence	feedback	NaN	NaN	NaN	NaN	NaN	NaN	NaN	NaN	NaN	NaN	NaN	NaN	NaN
340.6909974	1.0006	sub-28	1	sequence	cue	Haus	NaN	NaN	NaN	NaN	NaN	NaN	NaN	NaN	NaN	NaN	NaN	NaN
341.6915825000005	2.0015	sub-28	1	sequence	blank	blank	NaN	NaN	NaN	NaN	NaN	NaN	NaN	NaN	NaN	NaN	NaN	NaN
343.6931217000001	0.3002	sub-28	1	sequence	fixation	dot	NaN	NaN	NaN	NaN	NaN	NaN	NaN	NaN	NaN	NaN	NaN	NaN
344.0111237000001	0.1168	sub-28	1	sequence	stimulus	Katze	NaN	NaN	32.0	NaN	NaN	3.0	1.0	NaN	NaN	NaN	NaN	NaN
344.1279448000005	0.0323	sub-28	1	sequence	interval	dot	NaN	NaN	NaN	NaN	NaN	NaN	NaN	NaN	NaN	NaN	NaN	NaN
344.1602402000008	0.1	sub-28	1	sequence	stimulus	Schuh	NaN	NaN	32.0	NaN	NaN	4.0	2.0	NaN	NaN	NaN	NaN	NaN
344.2602139999999	0.0335	sub-28	1	sequence	interval	dot	NaN	NaN	NaN	NaN	NaN	NaN	NaN	NaN	NaN	NaN	NaN	NaN
344.2936807000005	0.1	sub-28	1	sequence	stimulus	Stuhl	NaN	NaN	32.0	NaN	NaN	5.0	3.0	NaN	NaN	NaN	NaN	NaN
344.3936662000005	0.0346	sub-28	1	sequence	interval	dot	NaN	NaN	NaN	NaN	NaN	NaN	NaN	NaN	NaN	NaN	NaN	NaN
344.4282238000005	0.1156	sub-28	1	sequence	stimulus	Gesicht	NaN	NaN	32.0	NaN	NaN	1.0	4.0	NaN	NaN	NaN	NaN	NaN
344.5438453000006	0.0334	sub-28	1	sequence	interval	dot	NaN	NaN	NaN	NaN	NaN	NaN	NaN	NaN	NaN	NaN	NaN	NaN
344.5772611000002	0.0999	sub-28	1	sequence	stimulus	Haus	NaN	NaN	32.0	NaN	NaN	2.0	5.0	NaN	NaN	NaN	NaN	NaN
344.67717710000034	0.0334	sub-28	1	sequence	interval	dot	NaN	NaN	NaN	NaN	NaN	NaN	NaN	NaN	NaN	NaN	NaN	NaN
344.7105554	8.5386	sub-28	1	sequence	delay	dot	NaN	NaN	NaN	NaN	NaN	NaN	NaN	NaN	NaN	NaN	NaN	NaN
353.2226461	1.8801	sub-28	1	sequence	choice	choice	left	NaN	NaN	1.847558200000094	True	NaN	NaN	left	True	5.0	4.0	5.0
355.1029924000004	0.4999	sub-28	1	sequence	feedback	NaN	NaN	NaN	NaN	NaN	NaN	NaN	NaN	NaN	NaN	NaN	NaN	NaN
355.6029963000001	1.0007	sub-28	1	sequence	cue	Katze	NaN	NaN	NaN	NaN	NaN	NaN	NaN	NaN	NaN	NaN	NaN	NaN
356.6036591000002	2.0015	sub-28	1	sequence	blank	blank	NaN	NaN	NaN	NaN	NaN	NaN	NaN	NaN	NaN	NaN	NaN	NaN
358.60520950000046	0.3002	sub-28	1	sequence	fixation	dot	NaN	NaN	NaN	NaN	NaN	NaN	NaN	NaN	NaN	NaN	NaN	NaN
358.92453170000044	0.1144	sub-28	1	sequence	stimulus	Haus	NaN	NaN	64.0	NaN	NaN	2.0	1.0	NaN	NaN	NaN	NaN	NaN
359.03890500000034	0.0667	sub-28	1	sequence	interval	dot	NaN	NaN	NaN	NaN	NaN	NaN	NaN	NaN	NaN	NaN	NaN	NaN
359.10562690000006	0.1001	sub-28	1	sequence	stimulus	Gesicht	NaN	NaN	64.0	NaN	NaN	1.0	2.0	NaN	NaN	NaN	NaN	NaN
359.20569870000054	0.0667	sub-28	1	sequence	interval	dot	NaN	NaN	NaN	NaN	NaN	NaN	NaN	NaN	NaN	NaN	NaN	NaN
359.2724216000006	0.1	sub-28	1	sequence	stimulus	Stuhl	NaN	NaN	64.0	NaN	NaN	5.0	3.0	NaN	NaN	NaN	NaN	NaN
359.37243300000046	0.0668	sub-28	1	sequence	interval	dot	NaN	NaN	NaN	NaN	NaN	NaN	NaN	NaN	NaN	NaN	NaN	NaN
359.43924740000057	0.1	sub-28	1	sequence	stimulus	Schuh	NaN	NaN	64.0	NaN	NaN	4.0	4.0	NaN	NaN	NaN	NaN	NaN
359.5391997000006	0.0668	sub-28	1	sequence	interval	dot	NaN	NaN	NaN	NaN	NaN	NaN	NaN	NaN	NaN	NaN	NaN	NaN
359.6060247000005	0.1	sub-28	1	sequence	stimulus	Katze	NaN	NaN	64.0	NaN	NaN	3.0	5.0	NaN	NaN	NaN	NaN	NaN
359.7060164000004	0.0667	sub-28	1	sequence	interval	dot	NaN	NaN	NaN	NaN	NaN	NaN	NaN	NaN	NaN	NaN	NaN	NaN
359.7727111000004	8.3717	sub-28	1	sequence	delay	dot	NaN	NaN	NaN	NaN	NaN	NaN	NaN	NaN	NaN	NaN	NaN	NaN
368.1202774000003	0.9268	sub-28	1	sequence	choice	choice	left	NaN	NaN	0.8962880999997651	True	NaN	NaN	left	True	5.0	3.0	5.0
369.0472887000005	0.5	sub-28	1	sequence	feedback	NaN	NaN	NaN	NaN	NaN	NaN	NaN	NaN	NaN	NaN	NaN	NaN	NaN
369.5474494	1.0007	sub-28	1	sequence	cue	Stuhl	NaN	NaN	NaN	NaN	NaN	NaN	NaN	NaN	NaN	NaN	NaN	NaN
370.5481122000001	2.0016	sub-28	1	sequence	blank	blank	NaN	NaN	NaN	NaN	NaN	NaN	NaN	NaN	NaN	NaN	NaN	NaN
372.54970610000055	0.3003	sub-28	1	sequence	fixation	dot	NaN	NaN	NaN	NaN	NaN	NaN	NaN	NaN	NaN	NaN	NaN	NaN
372.8676126999999	0.0991	sub-28	1	sequence	stimulus	Haus	NaN	NaN	32.0	NaN	NaN	2.0	1.0	NaN	NaN	NaN	NaN	NaN
372.9667138000004	0.0335	sub-28	1	sequence	interval	dot	NaN	NaN	NaN	NaN	NaN	NaN	NaN	NaN	NaN	NaN	NaN	NaN
373.0002107999999	0.0999	sub-28	1	sequence	stimulus	Schuh	NaN	NaN	32.0	NaN	NaN	4.0	2.0	NaN	NaN	NaN	NaN	NaN
373.1001604000003	0.0335	sub-28	1	sequence	interval	dot	NaN	NaN	NaN	NaN	NaN	NaN	NaN	NaN	NaN	NaN	NaN	NaN
373.1336437	0.0999	sub-28	1	sequence	stimulus	Katze	NaN	NaN	32.0	NaN	NaN	3.0	3.0	NaN	NaN	NaN	NaN	NaN
373.23359040000014	0.0335	sub-28	1	sequence	interval	dot	NaN	NaN	NaN	NaN	NaN	NaN	NaN	NaN	NaN	NaN	NaN	NaN
373.26707010000064	0.1	sub-28	1	sequence	stimulus	Gesicht	NaN	NaN	32.0	NaN	NaN	1.0	4.0	NaN	NaN	NaN	NaN	NaN
373.3670221000002	0.0335	sub-28	1	sequence	interval	dot	NaN	NaN	NaN	NaN	NaN	NaN	NaN	NaN	NaN	NaN	NaN	NaN
373.40048990000014	0.1	sub-28	1	sequence	stimulus	Stuhl	NaN	NaN	32.0	NaN	NaN	5.0	5.0	NaN	NaN	NaN	NaN	NaN
373.5005009000006	0.0333	sub-28	1	sequence	interval	dot	NaN	NaN	NaN	NaN	NaN	NaN	NaN	NaN	NaN	NaN	NaN	NaN
373.5338357999999	8.5386	sub-28	1	sequence	delay	dot	NaN	NaN	NaN	NaN	NaN	NaN	NaN	NaN	NaN	NaN	NaN	NaN
382.0559524	1.2693	sub-28	1	sequence	choice	choice	left	NaN	NaN	1.2402314999999362	True	NaN	NaN	left	True	5.0	4.0	5.0
383.32555670000056	0.5	sub-28	1	sequence	feedback	NaN	NaN	NaN	NaN	NaN	NaN	NaN	NaN	NaN	NaN	NaN	NaN	NaN
383.8257323000007	1.0007	sub-28	1	sequence	cue	Schuh	NaN	NaN	NaN	NaN	NaN	NaN	NaN	NaN	NaN	NaN	NaN	NaN
384.8264382000007	2.0015	sub-28	1	sequence	blank	blank	NaN	NaN	NaN	NaN	NaN	NaN	NaN	NaN	NaN	NaN	NaN	NaN
386.8279236000008	0.3002	sub-28	1	sequence	fixation	dot	NaN	NaN	NaN	NaN	NaN	NaN	NaN	NaN	NaN	NaN	NaN	NaN
387.1467367000005	0.1148	sub-28	1	sequence	stimulus	Haus	NaN	NaN	512.0	NaN	NaN	2.0	1.0	NaN	NaN	NaN	NaN	NaN
387.2615650000007	0.5172	sub-28	1	sequence	interval	dot	NaN	NaN	NaN	NaN	NaN	NaN	NaN	NaN	NaN	NaN	NaN	NaN
387.77878430000055	0.1	sub-28	1	sequence	stimulus	Stuhl	NaN	NaN	512.0	NaN	NaN	5.0	2.0	NaN	NaN	NaN	NaN	NaN
387.8787439000007	0.5173	sub-28	1	sequence	interval	dot	NaN	NaN	NaN	NaN	NaN	NaN	NaN	NaN	NaN	NaN	NaN	NaN
388.3960510000006	0.0999	sub-28	1	sequence	stimulus	Katze	NaN	NaN	512.0	NaN	NaN	3.0	3.0	NaN	NaN	NaN	NaN	NaN
388.4959111000008	0.5172	sub-28	1	sequence	interval	dot	NaN	NaN	NaN	NaN	NaN	NaN	NaN	NaN	NaN	NaN	NaN	NaN
389.0131293000004	0.1001	sub-28	1	sequence	stimulus	Schuh	NaN	NaN	512.0	NaN	NaN	4.0	4.0	NaN	NaN	NaN	NaN	NaN
389.1132550000002	0.517	sub-28	1	sequence	interval	dot	NaN	NaN	NaN	NaN	NaN	NaN	NaN	NaN	NaN	NaN	NaN	NaN
389.63026489999993	0.0999	sub-28	1	sequence	stimulus	Gesicht	NaN	NaN	512.0	NaN	NaN	1.0	5.0	NaN	NaN	NaN	NaN	NaN
389.7302006	0.5172	sub-28	1	sequence	interval	dot	NaN	NaN	NaN	NaN	NaN	NaN	NaN	NaN	NaN	NaN	NaN	NaN
390.2473878999999	6.1532	sub-28	1	sequence	delay	dot	NaN	NaN	NaN	NaN	NaN	NaN	NaN	NaN	NaN	NaN	NaN	NaN
396.3815921000005	1.4889	sub-28	1	sequence	choice	choice	right	NaN	NaN	1.4639774999996007	True	NaN	NaN	right	True	5.0	4.0	4.0
397.8707693000006	0.5	sub-28	1	sequence	feedback	NaN	NaN	NaN	NaN	NaN	NaN	NaN	NaN	NaN	NaN	NaN	NaN	NaN
398.3710322000006	1.0007	sub-28	1	sequence	cue	Katze	NaN	NaN	NaN	NaN	NaN	NaN	NaN	NaN	NaN	NaN	NaN	NaN
399.3717277000005	2.0014	sub-28	1	sequence	blank	blank	NaN	NaN	NaN	NaN	NaN	NaN	NaN	NaN	NaN	NaN	NaN	NaN
401.3730918000001	0.3002	sub-28	1	sequence	fixation	dot	NaN	NaN	NaN	NaN	NaN	NaN	NaN	NaN	NaN	NaN	NaN	NaN
401.6916265	0.1151	sub-28	1	sequence	stimulus	Haus	NaN	NaN	512.0	NaN	NaN	2.0	1.0	NaN	NaN	NaN	NaN	NaN
401.8066982999999	0.5172	sub-28	1	sequence	interval	dot	NaN	NaN	NaN	NaN	NaN	NaN	NaN	NaN	NaN	NaN	NaN	NaN
402.3238707999999	0.1	sub-28	1	sequence	stimulus	Stuhl	NaN	NaN	512.0	NaN	NaN	5.0	2.0	NaN	NaN	NaN	NaN	NaN
402.4238452	0.5172	sub-28	1	sequence	interval	dot	NaN	NaN	NaN	NaN	NaN	NaN	NaN	NaN	NaN	NaN	NaN	NaN
402.9410415000002	0.1	sub-28	1	sequence	stimulus	Gesicht	NaN	NaN	512.0	NaN	NaN	1.0	3.0	NaN	NaN	NaN	NaN	NaN
403.041021	0.5172	sub-28	1	sequence	interval	dot	NaN	NaN	NaN	NaN	NaN	NaN	NaN	NaN	NaN	NaN	NaN	NaN
403.5582314000003	0.0999	sub-28	1	sequence	stimulus	Schuh	NaN	NaN	512.0	NaN	NaN	4.0	4.0	NaN	NaN	NaN	NaN	NaN
403.6581629000002	0.5172	sub-28	1	sequence	interval	dot	NaN	NaN	NaN	NaN	NaN	NaN	NaN	NaN	NaN	NaN	NaN	NaN
404.1753757000006	0.1	sub-28	1	sequence	stimulus	Katze	NaN	NaN	512.0	NaN	NaN	3.0	5.0	NaN	NaN	NaN	NaN	NaN
404.2753373000005	0.5171	sub-28	1	sequence	interval	dot	NaN	NaN	NaN	NaN	NaN	NaN	NaN	NaN	NaN	NaN	NaN	NaN
404.7924496000005	6.1366	sub-28	1	sequence	delay	dot	NaN	NaN	NaN	NaN	NaN	NaN	NaN	NaN	NaN	NaN	NaN	NaN
410.9152383999999	1.0499	sub-28	1	sequence	choice	choice	left	NaN	NaN	1.0235513999996328	True	NaN	NaN	left	True	5.0	4.0	5.0
411.9653957	0.5	sub-28	1	sequence	feedback	NaN	NaN	NaN	NaN	NaN	NaN	NaN	NaN	NaN	NaN	NaN	NaN	NaN
412.4655220000004	1.0006	sub-28	1	sequence	cue	Haus	NaN	NaN	NaN	NaN	NaN	NaN	NaN	NaN	NaN	NaN	NaN	NaN
413.4661259000004	2.0017	sub-28	1	sequence	blank	blank	NaN	NaN	NaN	NaN	NaN	NaN	NaN	NaN	NaN	NaN	NaN	NaN
415.4678367000006	0.3001	sub-28	1	sequence	fixation	dot	NaN	NaN	NaN	NaN	NaN	NaN	NaN	NaN	NaN	NaN	NaN	NaN
415.7855523000008	0.0992	sub-28	1	sequence	stimulus	Gesicht	NaN	NaN	128.0	NaN	NaN	1.0	1.0	NaN	NaN	NaN	NaN	NaN
415.88474620000034	0.1335	sub-28	1	sequence	interval	dot	NaN	NaN	NaN	NaN	NaN	NaN	NaN	NaN	NaN	NaN	NaN	NaN
416.0182961	0.1	sub-28	1	sequence	stimulus	Schuh	NaN	NaN	128.0	NaN	NaN	4.0	2.0	NaN	NaN	NaN	NaN	NaN
416.1182558	0.1336	sub-28	1	sequence	interval	dot	NaN	NaN	NaN	NaN	NaN	NaN	NaN	NaN	NaN	NaN	NaN	NaN
416.2518366000004	0.0999	sub-28	1	sequence	stimulus	Haus	NaN	NaN	128.0	NaN	NaN	2.0	3.0	NaN	NaN	NaN	NaN	NaN
416.3517566	0.1336	sub-28	1	sequence	interval	dot	NaN	NaN	NaN	NaN	NaN	NaN	NaN	NaN	NaN	NaN	NaN	NaN
416.48534650000056	0.0999	sub-28	1	sequence	stimulus	Stuhl	NaN	NaN	128.0	NaN	NaN	5.0	4.0	NaN	NaN	NaN	NaN	NaN
416.5852918999999	0.1336	sub-28	1	sequence	interval	dot	NaN	NaN	NaN	NaN	NaN	NaN	NaN	NaN	NaN	NaN	NaN	NaN
416.71885250000014	0.1	sub-28	1	sequence	stimulus	Katze	NaN	NaN	128.0	NaN	NaN	3.0	5.0	NaN	NaN	NaN	NaN	NaN
416.8188370000007	0.1334	sub-28	1	sequence	interval	dot	NaN	NaN	NaN	NaN	NaN	NaN	NaN	NaN	NaN	NaN	NaN	NaN
416.9522493000004	8.0714	sub-28	1	sequence	delay	dot	NaN	NaN	NaN	NaN	NaN	NaN	NaN	NaN	NaN	NaN	NaN	NaN
425.00692290000006	1.0696	sub-28	1	sequence	choice	choice	right	NaN	NaN	1.0408594999998968	True	NaN	NaN	right	True	4.0	3.0	3.0
426.0767535000005	0.5	sub-28	1	sequence	feedback	NaN	NaN	NaN	NaN	NaN	NaN	NaN	NaN	NaN	NaN	NaN	NaN	NaN
426.5769856000006	1.0006	sub-28	1	sequence	cue	Gesicht	NaN	NaN	NaN	NaN	NaN	NaN	NaN	NaN	NaN	NaN	NaN	NaN
427.5775579000001	2.0015	sub-28	1	sequence	blank	blank	NaN	NaN	NaN	NaN	NaN	NaN	NaN	NaN	NaN	NaN	NaN	NaN
429.5790855000005	0.3003	sub-28	1	sequence	fixation	dot	NaN	NaN	NaN	NaN	NaN	NaN	NaN	NaN	NaN	NaN	NaN	NaN
429.8978178000007	0.115	sub-28	1	sequence	stimulus	Schuh	NaN	NaN	64.0	NaN	NaN	4.0	1.0	NaN	NaN	NaN	NaN	NaN
430.0128540000005	0.0668	sub-28	1	sequence	interval	dot	NaN	NaN	NaN	NaN	NaN	NaN	NaN	NaN	NaN	NaN	NaN	NaN
430.0796046000005	0.1	sub-28	1	sequence	stimulus	Stuhl	NaN	NaN	64.0	NaN	NaN	5.0	2.0	NaN	NaN	NaN	NaN	NaN
430.17959430000064	0.0669	sub-28	1	sequence	interval	dot	NaN	NaN	NaN	NaN	NaN	NaN	NaN	NaN	NaN	NaN	NaN	NaN
430.2464647000006	0.1001	sub-28	1	sequence	stimulus	Haus	NaN	NaN	64.0	NaN	NaN	2.0	3.0	NaN	NaN	NaN	NaN	NaN
430.3465713000005	0.0667	sub-28	1	sequence	interval	dot	NaN	NaN	NaN	NaN	NaN	NaN	NaN	NaN	NaN	NaN	NaN	NaN
430.4132300000001	0.0999	sub-28	1	sequence	stimulus	Gesicht	NaN	NaN	64.0	NaN	NaN	1.0	4.0	NaN	NaN	NaN	NaN	NaN
430.5131630000005	0.0668	sub-28	1	sequence	interval	dot	NaN	NaN	NaN	NaN	NaN	NaN	NaN	NaN	NaN	NaN	NaN	NaN
430.5799948000004	0.1	sub-28	1	sequence	stimulus	Katze	NaN	NaN	64.0	NaN	NaN	3.0	5.0	NaN	NaN	NaN	NaN	NaN
430.6799582000003	0.0667	sub-28	1	sequence	interval	dot	NaN	NaN	NaN	NaN	NaN	NaN	NaN	NaN	NaN	NaN	NaN	NaN
430.74666630000047	8.3718	sub-28	1	sequence	delay	dot	NaN	NaN	NaN	NaN	NaN	NaN	NaN	NaN	NaN	NaN	NaN	NaN
439.0988820000002	1.1058	sub-28	1	sequence	choice	choice	right	NaN	NaN	1.0821481000002675	True	NaN	NaN	right	True	5.0	4.0	4.0
440.2049855000005	0.5167	sub-28	1	sequence	feedback	NaN	NaN	NaN	NaN	NaN	NaN	NaN	NaN	NaN	NaN	NaN	NaN	NaN
440.7219572000004	16.3628	sub-28	1	other	break	break	NaN	NaN	NaN	NaN	NaN	NaN	NaN	NaN	NaN	NaN	NaN	NaN
460.9053558000005	0.4997	sub-28	1	localizer	stimulus	Stuhl	NaN	180	2.234918400000481	0.7909801000005245	True	NaN	NaN	NaN	NaN	NaN	NaN	NaN
461.4050280000001	2.2349	sub-28	1	localizer	blank	interval	NaN	NaN	NaN	NaN	NaN	NaN	NaN	NaN	NaN	NaN	NaN	NaN
463.94108030000007	0.4995	sub-28	1	localizer	stimulus	Stuhl	NaN	0	2.235033700000713	NaN	True	NaN	NaN	NaN	NaN	NaN	NaN	NaN
464.4240117	2.235	sub-28	1	localizer	blank	interval	NaN	NaN	NaN	NaN	NaN	NaN	NaN	NaN	NaN	NaN	NaN	NaN
466.9602296000003	0.4994	sub-28	1	localizer	stimulus	Gesicht	NaN	180	2.6519907000001695	0.6081989000003887	True	NaN	NaN	NaN	NaN	NaN	NaN	NaN
467.4431456000002	2.652	sub-28	1	localizer	blank	interval	NaN	NaN	NaN	NaN	NaN	NaN	NaN	NaN	NaN	NaN	NaN	NaN
470.396283	0.4995	sub-28	1	localizer	stimulus	Gesicht	NaN	0	2.752039199999672	NaN	True	NaN	NaN	NaN	NaN	NaN	NaN	NaN
470.87926870000047	2.752	sub-28	1	localizer	blank	interval	NaN	NaN	NaN	NaN	NaN	NaN	NaN	NaN	NaN	NaN	NaN	NaN
473.93252870000015	0.4994	sub-28	1	localizer	stimulus	Haus	NaN	0	3.30258340000006	NaN	True	NaN	NaN	NaN	NaN	NaN	NaN	NaN
474.41546199999993	3.3026	sub-28	1	localizer	blank	interval	NaN	NaN	NaN	NaN	NaN	NaN	NaN	NaN	NaN	NaN	NaN	NaN
478.0191368000005	0.4996	sub-28	1	localizer	stimulus	Katze	NaN	0	1.9348348999992027	NaN	True	NaN	NaN	NaN	NaN	NaN	NaN	NaN
478.5020618000008	1.9348	sub-28	1	localizer	blank	interval	NaN	NaN	NaN	NaN	NaN	NaN	NaN	NaN	NaN	NaN	NaN	NaN
480.7379884000002	0.4997	sub-28	1	localizer	stimulus	Schuh	NaN	0	2.7188280000000304	NaN	True	NaN	NaN	NaN	NaN	NaN	NaN	NaN
481.2211027000003	2.7188	sub-28	1	localizer	blank	interval	NaN	NaN	NaN	NaN	NaN	NaN	NaN	NaN	NaN	NaN	NaN	NaN
484.2410138000005	0.4993	sub-28	1	localizer	stimulus	Gesicht	NaN	0	2.285055399999692	NaN	True	NaN	NaN	NaN	NaN	NaN	NaN	NaN
484.7237683000003	2.2851	sub-28	1	localizer	blank	interval	NaN	NaN	NaN	NaN	NaN	NaN	NaN	NaN	NaN	NaN	NaN	NaN
487.3099944000005	0.4994	sub-28	1	localizer	stimulus	Katze	NaN	180	3.1691285000007383	0.5145225000005667	True	NaN	NaN	NaN	NaN	NaN	NaN	NaN
487.7929076	3.1691	sub-28	1	localizer	blank	interval	NaN	NaN	NaN	NaN	NaN	NaN	NaN	NaN	NaN	NaN	NaN	NaN
491.26317460000064	0.4995	sub-28	1	localizer	stimulus	Haus	NaN	0	1.6845596999991699	NaN	True	NaN	NaN	NaN	NaN	NaN	NaN	NaN
491.7461175000008	1.6846	sub-28	1	localizer	blank	interval	NaN	NaN	NaN	NaN	NaN	NaN	NaN	NaN	NaN	NaN	NaN	NaN
493.7318242000001	0.4996	sub-28	1	localizer	stimulus	Schuh	NaN	0	2.001481100000035	NaN	True	NaN	NaN	NaN	NaN	NaN	NaN	NaN
494.2147438000002	2.0015	sub-28	1	localizer	blank	interval	NaN	NaN	NaN	NaN	NaN	NaN	NaN	NaN	NaN	NaN	NaN	NaN
496.5173832999999	0.4995	sub-28	1	localizer	stimulus	Schuh	NaN	180	2.0848349000007147	0.5229305999991993	True	NaN	NaN	NaN	NaN	NaN	NaN	NaN
497.0004073	2.0848	sub-28	1	localizer	blank	interval	NaN	NaN	NaN	NaN	NaN	NaN	NaN	NaN	NaN	NaN	NaN	NaN
499.3863373000004	0.4995	sub-28	1	localizer	stimulus	Stuhl	NaN	0	1.817985800000315	NaN	True	NaN	NaN	NaN	NaN	NaN	NaN	NaN
499.86948500000017	1.818	sub-28	1	localizer	blank	interval	NaN	NaN	NaN	NaN	NaN	NaN	NaN	NaN	NaN	NaN	NaN	NaN
501.9885323000008	0.4997	sub-28	1	localizer	stimulus	Haus	NaN	0	2.2015273000006346	NaN	True	NaN	NaN	NaN	NaN	NaN	NaN	NaN
502.4717995000001	2.2015	sub-28	1	localizer	blank	interval	NaN	NaN	NaN	NaN	NaN	NaN	NaN	NaN	NaN	NaN	NaN	NaN
504.9744997000007	0.4993	sub-28	1	localizer	stimulus	Haus	NaN	0	2.2515309999998294	NaN	True	NaN	NaN	NaN	NaN	NaN	NaN	NaN
505.4573587000005	2.2515	sub-28	1	localizer	blank	interval	NaN	NaN	NaN	NaN	NaN	NaN	NaN	NaN	NaN	NaN	NaN	NaN
508.0100114000006	0.4995	sub-28	1	localizer	stimulus	Gesicht	NaN	0	2.268338400000175	NaN	True	NaN	NaN	NaN	NaN	NaN	NaN	NaN
508.4930807999999	2.2683	sub-28	1	localizer	blank	interval	NaN	NaN	NaN	NaN	NaN	NaN	NaN	NaN	NaN	NaN	NaN	NaN
511.0624544000002	0.4996	sub-28	1	localizer	stimulus	Stuhl	NaN	0	3.252489199999161	NaN	True	NaN	NaN	NaN	NaN	NaN	NaN	NaN
511.5455009000007	3.2525	sub-28	1	localizer	blank	interval	NaN	NaN	NaN	NaN	NaN	NaN	NaN	NaN	NaN	NaN	NaN	NaN
515.0990534000002	0.4995	sub-28	1	localizer	stimulus	Katze	NaN	0	2.1849378000006254	NaN	True	NaN	NaN	NaN	NaN	NaN	NaN	NaN
515.582109	2.1849	sub-28	1	localizer	blank	interval	NaN	NaN	NaN	NaN	NaN	NaN	NaN	NaN	NaN	NaN	NaN	NaN
518.0681058	0.5011	sub-28	1	localizer	stimulus	Katze	NaN	0	2.1349577999999383	NaN	True	NaN	NaN	NaN	NaN	NaN	NaN	NaN
518.5511560000004	2.135	sub-28	1	localizer	blank	interval	NaN	NaN	NaN	NaN	NaN	NaN	NaN	NaN	NaN	NaN	NaN	NaN
520.9873591000005	0.4994	sub-28	1	localizer	stimulus	Gesicht	NaN	0	2.135227499999928	NaN	True	NaN	NaN	NaN	NaN	NaN	NaN	NaN
521.4700662000005	2.1352	sub-28	1	localizer	blank	interval	NaN	NaN	NaN	NaN	NaN	NaN	NaN	NaN	NaN	NaN	NaN	NaN
523.9061950000005	0.5162	sub-28	1	localizer	stimulus	Schuh	NaN	0	2.770687600000201	NaN	True	NaN	NaN	NaN	NaN	NaN	NaN	NaN
524.3873343000005	2.7707	sub-28	1	localizer	blank	interval	NaN	NaN	NaN	NaN	NaN	NaN	NaN	NaN	NaN	NaN	NaN	NaN
527.4590183999999	0.4996	sub-28	1	localizer	stimulus	Katze	NaN	0	2.4351942000002964	NaN	True	NaN	NaN	NaN	NaN	NaN	NaN	NaN
527.9419472	2.4352	sub-28	1	localizer	blank	interval	NaN	NaN	NaN	NaN	NaN	NaN	NaN	NaN	NaN	NaN	NaN	NaN
530.6782926000005	0.4996	sub-28	1	localizer	stimulus	Stuhl	NaN	0	2.235051100000419	NaN	True	NaN	NaN	NaN	NaN	NaN	NaN	NaN
531.1613097	2.2351	sub-28	1	localizer	blank	interval	NaN	NaN	NaN	NaN	NaN	NaN	NaN	NaN	NaN	NaN	NaN	NaN
533.6973793000006	0.4995	sub-28	1	localizer	stimulus	Schuh	NaN	0	2.868800100000044	NaN	True	NaN	NaN	NaN	NaN	NaN	NaN	NaN
534.1804998000007	2.8688	sub-28	1	localizer	blank	interval	NaN	NaN	NaN	NaN	NaN	NaN	NaN	NaN	NaN	NaN	NaN	NaN
537.3503735000004	0.4994	sub-28	1	localizer	stimulus	Haus	NaN	180	2.4517436000005546	0.5858717999999499	True	NaN	NaN	NaN	NaN	NaN	NaN	NaN
537.8334617999999	2.4517	sub-28	1	localizer	blank	interval	NaN	NaN	NaN	NaN	NaN	NaN	NaN	NaN	NaN	NaN	NaN	NaN
543.7718433	1.0005	sub-28	1	sequence	cue	Katze	NaN	NaN	NaN	NaN	NaN	NaN	NaN	NaN	NaN	NaN	NaN	NaN
544.7723065	2.0018	sub-28	1	sequence	blank	blank	NaN	NaN	NaN	NaN	NaN	NaN	NaN	NaN	NaN	NaN	NaN	NaN
546.7741096	0.3002	sub-28	1	sequence	fixation	dot	NaN	NaN	NaN	NaN	NaN	NaN	NaN	NaN	NaN	NaN	NaN	NaN
547.0927465000004	0.1147	sub-28	1	sequence	stimulus	Gesicht	NaN	NaN	128.0	NaN	NaN	1.0	1.0	NaN	NaN	NaN	NaN	NaN
547.2074870000006	0.1335	sub-28	1	sequence	interval	dot	NaN	NaN	NaN	NaN	NaN	NaN	NaN	NaN	NaN	NaN	NaN	NaN
547.3409690000008	0.1	sub-28	1	sequence	stimulus	Schuh	NaN	NaN	128.0	NaN	NaN	4.0	2.0	NaN	NaN	NaN	NaN	NaN
547.4409247000003	0.1336	sub-28	1	sequence	interval	dot	NaN	NaN	NaN	NaN	NaN	NaN	NaN	NaN	NaN	NaN	NaN	NaN
547.5745239000007	0.0999	sub-28	1	sequence	stimulus	Haus	NaN	NaN	128.0	NaN	NaN	2.0	3.0	NaN	NaN	NaN	NaN	NaN
547.6744465000002	0.1335	sub-28	1	sequence	interval	dot	NaN	NaN	NaN	NaN	NaN	NaN	NaN	NaN	NaN	NaN	NaN	NaN
547.8079763000005	0.1	sub-28	1	sequence	stimulus	Stuhl	NaN	NaN	128.0	NaN	NaN	5.0	4.0	NaN	NaN	NaN	NaN	NaN
547.9079677	0.1336	sub-28	1	sequence	interval	dot	NaN	NaN	NaN	NaN	NaN	NaN	NaN	NaN	NaN	NaN	NaN	NaN
548.0415366000007	0.1	sub-28	1	sequence	stimulus	Katze	NaN	NaN	128.0	NaN	NaN	3.0	5.0	NaN	NaN	NaN	NaN	NaN
548.1414913000008	0.1334	sub-28	1	sequence	interval	dot	NaN	NaN	NaN	NaN	NaN	NaN	NaN	NaN	NaN	NaN	NaN	NaN
548.2749272000001	8.0715	sub-28	1	sequence	delay	dot	NaN	NaN	NaN	NaN	NaN	NaN	NaN	NaN	NaN	NaN	NaN	NaN
556.329898	0.9859	sub-28	1	sequence	choice	choice	right	NaN	NaN	0.9577906000004076	True	NaN	NaN	right	True	3.0	5.0	5.0
557.3161300000002	0.5001	sub-28	1	sequence	feedback	NaN	NaN	NaN	NaN	NaN	NaN	NaN	NaN	NaN	NaN	NaN	NaN	NaN
557.8163881999999	1.0006	sub-28	1	sequence	cue	Schuh	NaN	NaN	NaN	NaN	NaN	NaN	NaN	NaN	NaN	NaN	NaN	NaN
558.8169606000001	2.0015	sub-28	1	sequence	blank	blank	NaN	NaN	NaN	NaN	NaN	NaN	NaN	NaN	NaN	NaN	NaN	NaN
560.8184186000008	0.3003	sub-28	1	sequence	fixation	dot	NaN	NaN	NaN	NaN	NaN	NaN	NaN	NaN	NaN	NaN	NaN	NaN
561.1370450000004	0.1152	sub-28	1	sequence	stimulus	Haus	NaN	NaN	32.0	NaN	NaN	2.0	1.0	NaN	NaN	NaN	NaN	NaN
561.2522421000003	0.0334	sub-28	1	sequence	interval	dot	NaN	NaN	NaN	NaN	NaN	NaN	NaN	NaN	NaN	NaN	NaN	NaN
561.2856750999999	0.1	sub-28	1	sequence	stimulus	Schuh	NaN	NaN	32.0	NaN	NaN	4.0	2.0	NaN	NaN	NaN	NaN	NaN
561.3856671000003	0.0333	sub-28	1	sequence	interval	dot	NaN	NaN	NaN	NaN	NaN	NaN	NaN	NaN	NaN	NaN	NaN	NaN
561.4189881000002	0.1001	sub-28	1	sequence	stimulus	Katze	NaN	NaN	32.0	NaN	NaN	3.0	3.0	NaN	NaN	NaN	NaN	NaN
561.5191012000005	0.0334	sub-28	1	sequence	interval	dot	NaN	NaN	NaN	NaN	NaN	NaN	NaN	NaN	NaN	NaN	NaN	NaN
561.5524806000003	0.0999	sub-28	1	sequence	stimulus	Gesicht	NaN	NaN	32.0	NaN	NaN	1.0	4.0	NaN	NaN	NaN	NaN	NaN
561.6524297000005	0.0336	sub-28	1	sequence	interval	dot	NaN	NaN	NaN	NaN	NaN	NaN	NaN	NaN	NaN	NaN	NaN	NaN
561.6860322000002	0.0999	sub-28	1	sequence	stimulus	Stuhl	NaN	NaN	32.0	NaN	NaN	5.0	5.0	NaN	NaN	NaN	NaN	NaN
561.7859421000003	0.0333	sub-28	1	sequence	interval	dot	NaN	NaN	NaN	NaN	NaN	NaN	NaN	NaN	NaN	NaN	NaN	NaN
561.8192555000005	8.5218	sub-28	1	sequence	delay	dot	NaN	NaN	NaN	NaN	NaN	NaN	NaN	NaN	NaN	NaN	NaN	NaN
570.3175655000005	1.0763	sub-28	1	sequence	choice	choice	left	NaN	NaN	1.0512480999996114	True	NaN	NaN	left	True	2.0	4.0	2.0
571.3941891000004	0.5	sub-28	1	sequence	feedback	NaN	NaN	NaN	NaN	NaN	NaN	NaN	NaN	NaN	NaN	NaN	NaN	NaN
571.8943486000007	1.0006	sub-28	1	sequence	cue	Katze	NaN	NaN	NaN	NaN	NaN	NaN	NaN	NaN	NaN	NaN	NaN	NaN
572.8949521000004	2.0014	sub-28	1	sequence	blank	blank	NaN	NaN	NaN	NaN	NaN	NaN	NaN	NaN	NaN	NaN	NaN	NaN
574.8964056000004	0.3004	sub-28	1	sequence	fixation	dot	NaN	NaN	NaN	NaN	NaN	NaN	NaN	NaN	NaN	NaN	NaN	NaN
575.2142469	0.0993	sub-28	1	sequence	stimulus	Katze	NaN	NaN	128.0	NaN	NaN	3.0	1.0	NaN	NaN	NaN	NaN	NaN
575.313545	0.1335	sub-28	1	sequence	interval	dot	NaN	NaN	NaN	NaN	NaN	NaN	NaN	NaN	NaN	NaN	NaN	NaN
575.4470814000006	0.1	sub-28	1	sequence	stimulus	Haus	NaN	NaN	128.0	NaN	NaN	2.0	2.0	NaN	NaN	NaN	NaN	NaN
575.5470388000003	0.1335	sub-28	1	sequence	interval	dot	NaN	NaN	NaN	NaN	NaN	NaN	NaN	NaN	NaN	NaN	NaN	NaN
575.6805135000004	0.1	sub-28	1	sequence	stimulus	Stuhl	NaN	NaN	128.0	NaN	NaN	5.0	3.0	NaN	NaN	NaN	NaN	NaN
575.7805574000004	0.1335	sub-28	1	sequence	interval	dot	NaN	NaN	NaN	NaN	NaN	NaN	NaN	NaN	NaN	NaN	NaN	NaN
575.9140439000003	0.1001	sub-28	1	sequence	stimulus	Gesicht	NaN	NaN	128.0	NaN	NaN	1.0	4.0	NaN	NaN	NaN	NaN	NaN
576.0141082	0.1335	sub-28	1	sequence	interval	dot	NaN	NaN	NaN	NaN	NaN	NaN	NaN	NaN	NaN	NaN	NaN	NaN
576.1475703000006	0.0999	sub-28	1	sequence	stimulus	Schuh	NaN	NaN	128.0	NaN	NaN	4.0	5.0	NaN	NaN	NaN	NaN	NaN
576.2475079000005	0.1335	sub-28	1	sequence	interval	dot	NaN	NaN	NaN	NaN	NaN	NaN	NaN	NaN	NaN	NaN	NaN	NaN
576.3809584999999	8.0712	sub-28	1	sequence	delay	dot	NaN	NaN	NaN	NaN	NaN	NaN	NaN	NaN	NaN	NaN	NaN	NaN
584.4352498000007	0.8533	sub-28	1	sequence	choice	choice	right	NaN	NaN	0.8360644000003958	True	NaN	NaN	right	True	3.0	1.0	1.0
585.2888426	0.5	sub-28	1	sequence	feedback	NaN	NaN	NaN	NaN	NaN	NaN	NaN	NaN	NaN	NaN	NaN	NaN	NaN
585.7890378000002	1.0005	sub-28	1	sequence	cue	Katze	NaN	NaN	NaN	NaN	NaN	NaN	NaN	NaN	NaN	NaN	NaN	NaN
586.7895662999999	2.0018	sub-28	1	sequence	blank	blank	NaN	NaN	NaN	NaN	NaN	NaN	NaN	NaN	NaN	NaN	NaN	NaN
588.7914031	0.2999	sub-28	1	sequence	fixation	dot	NaN	NaN	NaN	NaN	NaN	NaN	NaN	NaN	NaN	NaN	NaN	NaN
589.1089197000001	0.0991	sub-28	1	sequence	stimulus	Haus	NaN	NaN	512.0	NaN	NaN	2.0	1.0	NaN	NaN	NaN	NaN	NaN
589.2080159000006	0.5172	sub-28	1	sequence	interval	dot	NaN	NaN	NaN	NaN	NaN	NaN	NaN	NaN	NaN	NaN	NaN	NaN
589.7251856000003	0.1	sub-28	1	sequence	stimulus	Stuhl	NaN	NaN	512.0	NaN	NaN	5.0	2.0	NaN	NaN	NaN	NaN	NaN
589.8251417000001	0.5172	sub-28	1	sequence	interval	dot	NaN	NaN	NaN	NaN	NaN	NaN	NaN	NaN	NaN	NaN	NaN	NaN
590.3423208000004	0.1001	sub-28	1	sequence	stimulus	Katze	NaN	NaN	512.0	NaN	NaN	3.0	3.0	NaN	NaN	NaN	NaN	NaN
590.4424223000005	0.5172	sub-28	1	sequence	interval	dot	NaN	NaN	NaN	NaN	NaN	NaN	NaN	NaN	NaN	NaN	NaN	NaN
590.9596261000006	0.1	sub-28	1	sequence	stimulus	Schuh	NaN	NaN	512.0	NaN	NaN	4.0	4.0	NaN	NaN	NaN	NaN	NaN
591.0595971000002	0.5171	sub-28	1	sequence	interval	dot	NaN	NaN	NaN	NaN	NaN	NaN	NaN	NaN	NaN	NaN	NaN	NaN
591.5766493000001	0.1	sub-28	1	sequence	stimulus	Gesicht	NaN	NaN	512.0	NaN	NaN	1.0	5.0	NaN	NaN	NaN	NaN	NaN
591.6766167000005	0.5171	sub-28	1	sequence	interval	dot	NaN	NaN	NaN	NaN	NaN	NaN	NaN	NaN	NaN	NaN	NaN	NaN
592.1937284000005	6.1367	sub-28	1	sequence	delay	dot	NaN	NaN	NaN	NaN	NaN	NaN	NaN	NaN	NaN	NaN	NaN	NaN
598.3189001999999	1.0976	sub-28	1	sequence	choice	choice	left	NaN	NaN	1.0856576999995011	True	NaN	NaN	left	True	3.0	4.0	3.0
599.4166106000002	0.5	sub-28	1	sequence	feedback	NaN	NaN	NaN	NaN	NaN	NaN	NaN	NaN	NaN	NaN	NaN	NaN	NaN
599.9167785	1.0009	sub-28	1	sequence	cue	Haus	NaN	NaN	NaN	NaN	NaN	NaN	NaN	NaN	NaN	NaN	NaN	NaN
600.9176634000005	2.0015	sub-28	1	sequence	blank	blank	NaN	NaN	NaN	NaN	NaN	NaN	NaN	NaN	NaN	NaN	NaN	NaN
602.9191848	0.3002	sub-28	1	sequence	fixation	dot	NaN	NaN	NaN	NaN	NaN	NaN	NaN	NaN	NaN	NaN	NaN	NaN
603.2376626000005	0.1151	sub-28	1	sequence	stimulus	Katze	NaN	NaN	32.0	NaN	NaN	3.0	1.0	NaN	NaN	NaN	NaN	NaN
603.3527570000006	0.0335	sub-28	1	sequence	interval	dot	NaN	NaN	NaN	NaN	NaN	NaN	NaN	NaN	NaN	NaN	NaN	NaN
603.3862098	0.1	sub-28	1	sequence	stimulus	Schuh	NaN	NaN	32.0	NaN	NaN	4.0	2.0	NaN	NaN	NaN	NaN	NaN
603.4861887000006	0.0335	sub-28	1	sequence	interval	dot	NaN	NaN	NaN	NaN	NaN	NaN	NaN	NaN	NaN	NaN	NaN	NaN
603.5196442000006	0.1	sub-28	1	sequence	stimulus	Stuhl	NaN	NaN	32.0	NaN	NaN	5.0	3.0	NaN	NaN	NaN	NaN	NaN
603.6196171000001	0.0335	sub-28	1	sequence	interval	dot	NaN	NaN	NaN	NaN	NaN	NaN	NaN	NaN	NaN	NaN	NaN	NaN
603.6530809000005	0.1	sub-28	1	sequence	stimulus	Gesicht	NaN	NaN	32.0	NaN	NaN	1.0	4.0	NaN	NaN	NaN	NaN	NaN
603.7530632000007	0.0335	sub-28	1	sequence	interval	dot	NaN	NaN	NaN	NaN	NaN	NaN	NaN	NaN	NaN	NaN	NaN	NaN
603.7865635000007	0.0999	sub-28	1	sequence	stimulus	Haus	NaN	NaN	32.0	NaN	NaN	2.0	5.0	NaN	NaN	NaN	NaN	NaN
603.8865116000006	0.0334	sub-28	1	sequence	interval	dot	NaN	NaN	NaN	NaN	NaN	NaN	NaN	NaN	NaN	NaN	NaN	NaN
603.9198808000001	8.5385	sub-28	1	sequence	delay	dot	NaN	NaN	NaN	NaN	NaN	NaN	NaN	NaN	NaN	NaN	NaN	NaN
612.4366042000001	0.9077	sub-28	1	sequence	choice	choice	right	NaN	NaN	0.8697474999999031	True	NaN	NaN	right	True	4.0	5.0	5.0
613.3446163000008	0.5	sub-28	1	sequence	feedback	NaN	NaN	NaN	NaN	NaN	NaN	NaN	NaN	NaN	NaN	NaN	NaN	NaN
613.8447248000002	1.0006	sub-28	1	sequence	cue	Gesicht	NaN	NaN	NaN	NaN	NaN	NaN	NaN	NaN	NaN	NaN	NaN	NaN
614.8453595000001	2.0016	sub-28	1	sequence	blank	blank	NaN	NaN	NaN	NaN	NaN	NaN	NaN	NaN	NaN	NaN	NaN	NaN
616.8469623000001	0.3003	sub-28	1	sequence	fixation	dot	NaN	NaN	NaN	NaN	NaN	NaN	NaN	NaN	NaN	NaN	NaN	NaN
617.1647808000007	0.0992	sub-28	1	sequence	stimulus	Haus	NaN	NaN	512.0	NaN	NaN	2.0	1.0	NaN	NaN	NaN	NaN	NaN
617.2639567000006	0.5172	sub-28	1	sequence	interval	dot	NaN	NaN	NaN	NaN	NaN	NaN	NaN	NaN	NaN	NaN	NaN	NaN
617.7811511	0.1	sub-28	1	sequence	stimulus	Stuhl	NaN	NaN	512.0	NaN	NaN	5.0	2.0	NaN	NaN	NaN	NaN	NaN
617.8811106000003	0.5172	sub-28	1	sequence	interval	dot	NaN	NaN	NaN	NaN	NaN	NaN	NaN	NaN	NaN	NaN	NaN	NaN
618.3983286000002	0.1	sub-28	1	sequence	stimulus	Gesicht	NaN	NaN	512.0	NaN	NaN	1.0	3.0	NaN	NaN	NaN	NaN	NaN
618.4983005000004	0.5173	sub-28	1	sequence	interval	dot	NaN	NaN	NaN	NaN	NaN	NaN	NaN	NaN	NaN	NaN	NaN	NaN
619.0156200000001	0.1	sub-28	1	sequence	stimulus	Schuh	NaN	NaN	512.0	NaN	NaN	4.0	4.0	NaN	NaN	NaN	NaN	NaN
619.1155851000003	0.5172	sub-28	1	sequence	interval	dot	NaN	NaN	NaN	NaN	NaN	NaN	NaN	NaN	NaN	NaN	NaN	NaN
619.6327491000002	0.1001	sub-28	1	sequence	stimulus	Katze	NaN	NaN	512.0	NaN	NaN	3.0	5.0	NaN	NaN	NaN	NaN	NaN
619.7328269	0.517	sub-28	1	sequence	interval	dot	NaN	NaN	NaN	NaN	NaN	NaN	NaN	NaN	NaN	NaN	NaN	NaN
620.2498109000007	6.1531	sub-28	1	sequence	delay	dot	NaN	NaN	NaN	NaN	NaN	NaN	NaN	NaN	NaN	NaN	NaN	NaN
626.3727889000002	0.8828	sub-28	1	sequence	choice	choice	right	NaN	NaN	0.8452549000003273	True	NaN	NaN	right	True	4.0	3.0	3.0
627.2558632999999	0.5002	sub-28	1	sequence	feedback	NaN	NaN	NaN	NaN	NaN	NaN	NaN	NaN	NaN	NaN	NaN	NaN	NaN
627.7561688000005	1.0005	sub-28	1	sequence	cue	Schuh	NaN	NaN	NaN	NaN	NaN	NaN	NaN	NaN	NaN	NaN	NaN	NaN
628.7567007000007	2.0017	sub-28	1	sequence	blank	blank	NaN	NaN	NaN	NaN	NaN	NaN	NaN	NaN	NaN	NaN	NaN	NaN
630.7584102999999	0.3	sub-28	1	sequence	fixation	dot	NaN	NaN	NaN	NaN	NaN	NaN	NaN	NaN	NaN	NaN	NaN	NaN
631.0762881	0.1156	sub-28	1	sequence	stimulus	Haus	NaN	NaN	64.0	NaN	NaN	2.0	1.0	NaN	NaN	NaN	NaN	NaN
631.1919100000005	0.067	sub-28	1	sequence	interval	dot	NaN	NaN	NaN	NaN	NaN	NaN	NaN	NaN	NaN	NaN	NaN	NaN
631.2588971000005	0.0998	sub-28	1	sequence	stimulus	Gesicht	NaN	NaN	64.0	NaN	NaN	1.0	2.0	NaN	NaN	NaN	NaN	NaN
631.3586709000001	0.0669	sub-28	1	sequence	interval	dot	NaN	NaN	NaN	NaN	NaN	NaN	NaN	NaN	NaN	NaN	NaN	NaN
631.4255708000001	0.1	sub-28	1	sequence	stimulus	Stuhl	NaN	NaN	64.0	NaN	NaN	5.0	3.0	NaN	NaN	NaN	NaN	NaN
631.5255790000001	0.0668	sub-28	1	sequence	interval	dot	NaN	NaN	NaN	NaN	NaN	NaN	NaN	NaN	NaN	NaN	NaN	NaN
631.5924028	0.0998	sub-28	1	sequence	stimulus	Schuh	NaN	NaN	64.0	NaN	NaN	4.0	4.0	NaN	NaN	NaN	NaN	NaN
631.6922330000007	0.067	sub-28	1	sequence	interval	dot	NaN	NaN	NaN	NaN	NaN	NaN	NaN	NaN	NaN	NaN	NaN	NaN
631.7592052	0.1	sub-28	1	sequence	stimulus	Katze	NaN	NaN	64.0	NaN	NaN	3.0	5.0	NaN	NaN	NaN	NaN	NaN
631.8591986000001	0.0667	sub-28	1	sequence	interval	dot	NaN	NaN	NaN	NaN	NaN	NaN	NaN	NaN	NaN	NaN	NaN	NaN
631.9258723000003	8.388	sub-28	1	sequence	delay	dot	NaN	NaN	NaN	NaN	NaN	NaN	NaN	NaN	NaN	NaN	NaN	NaN
640.2821700000004	1.1683	sub-28	1	sequence	choice	choice	left	NaN	NaN	1.1341369000001578	True	NaN	NaN	left	True	4.0	5.0	4.0
641.4507041000006	0.5	sub-28	1	sequence	feedback	NaN	NaN	NaN	NaN	NaN	NaN	NaN	NaN	NaN	NaN	NaN	NaN	NaN
641.9508789000001	1.0005	sub-28	1	sequence	cue	Gesicht	NaN	NaN	NaN	NaN	NaN	NaN	NaN	NaN	NaN	NaN	NaN	NaN
642.9513916000005	2.0016	sub-28	1	sequence	blank	blank	NaN	NaN	NaN	NaN	NaN	NaN	NaN	NaN	NaN	NaN	NaN	NaN
644.9530128000006	0.3002	sub-28	1	sequence	fixation	dot	NaN	NaN	NaN	NaN	NaN	NaN	NaN	NaN	NaN	NaN	NaN	NaN
645.2717311000006	0.1149	sub-28	1	sequence	stimulus	Schuh	NaN	NaN	64.0	NaN	NaN	4.0	1.0	NaN	NaN	NaN	NaN	NaN
645.3866522000008	0.0668	sub-28	1	sequence	interval	dot	NaN	NaN	NaN	NaN	NaN	NaN	NaN	NaN	NaN	NaN	NaN	NaN
645.4534643000006	0.1	sub-28	1	sequence	stimulus	Stuhl	NaN	NaN	64.0	NaN	NaN	5.0	2.0	NaN	NaN	NaN	NaN	NaN
645.5534307000007	0.0669	sub-28	1	sequence	interval	dot	NaN	NaN	NaN	NaN	NaN	NaN	NaN	NaN	NaN	NaN	NaN	NaN
645.6203576000007	0.0999	sub-28	1	sequence	stimulus	Haus	NaN	NaN	64.0	NaN	NaN	2.0	3.0	NaN	NaN	NaN	NaN	NaN
645.7202907999999	0.0668	sub-28	1	sequence	interval	dot	NaN	NaN	NaN	NaN	NaN	NaN	NaN	NaN	NaN	NaN	NaN	NaN
645.7870955000008	0.1	sub-28	1	sequence	stimulus	Gesicht	NaN	NaN	64.0	NaN	NaN	1.0	4.0	NaN	NaN	NaN	NaN	NaN
645.8870769000005	0.0668	sub-28	1	sequence	interval	dot	NaN	NaN	NaN	NaN	NaN	NaN	NaN	NaN	NaN	NaN	NaN	NaN
645.9538903000002	0.1	sub-28	1	sequence	stimulus	Katze	NaN	NaN	64.0	NaN	NaN	3.0	5.0	NaN	NaN	NaN	NaN	NaN
646.0538799000005	0.0667	sub-28	1	sequence	interval	dot	NaN	NaN	NaN	NaN	NaN	NaN	NaN	NaN	NaN	NaN	NaN	NaN
646.1206054000004	8.3714	sub-28	1	sequence	delay	dot	NaN	NaN	NaN	NaN	NaN	NaN	NaN	NaN	NaN	NaN	NaN	NaN
654.4776116000003	1.3345	sub-28	1	sequence	choice	choice	left	NaN	NaN	1.3080737000000229	True	NaN	NaN	left	True	4.0	1.0	4.0
655.8124258000007	0.5	sub-28	1	sequence	feedback	NaN	NaN	NaN	NaN	NaN	NaN	NaN	NaN	NaN	NaN	NaN	NaN	NaN
660.1328840000006	0.4995	sub-28	1	localizer	stimulus	Schuh	NaN	0	2.234886899999765	NaN	True	NaN	NaN	NaN	NaN	NaN	NaN	NaN
660.6159013000006	2.2349	sub-28	1	localizer	blank	interval	NaN	NaN	NaN	NaN	NaN	NaN	NaN	NaN	NaN	NaN	NaN	NaN
663.1519059000002	0.4996	sub-28	1	localizer	stimulus	Schuh	NaN	0	3.402498999999807	NaN	True	NaN	NaN	NaN	NaN	NaN	NaN	NaN
663.6349663000001	3.4025	sub-28	1	localizer	blank	interval	NaN	NaN	NaN	NaN	NaN	NaN	NaN	NaN	NaN	NaN	NaN	NaN
667.3386355000002	0.4996	sub-28	1	localizer	stimulus	Katze	NaN	0	2.0015026000000944	NaN	True	NaN	NaN	NaN	NaN	NaN	NaN	NaN
667.8216974000006	2.0015	sub-28	1	localizer	blank	interval	NaN	NaN	NaN	NaN	NaN	NaN	NaN	NaN	NaN	NaN	NaN	NaN
670.1242403000006	0.4996	sub-28	1	localizer	stimulus	Haus	NaN	180	1.8848702000004778	0.6837783000000854	True	NaN	NaN	NaN	NaN	NaN	NaN	NaN
670.6072586	1.8849	sub-28	1	localizer	blank	interval	NaN	NaN	NaN	NaN	NaN	NaN	NaN	NaN	NaN	NaN	NaN	NaN
672.7931945	0.4994	sub-28	1	localizer	stimulus	Katze	NaN	0	2.7687755999995716	NaN	True	NaN	NaN	NaN	NaN	NaN	NaN	NaN
673.2759669000006	2.7688	sub-28	1	localizer	blank	interval	NaN	NaN	NaN	NaN	NaN	NaN	NaN	NaN	NaN	NaN	NaN	NaN
676.3458976000002	0.4995	sub-28	1	localizer	stimulus	Gesicht	NaN	0	1.9514849999995931	NaN	True	NaN	NaN	NaN	NaN	NaN	NaN	NaN
676.8288666000008	1.9515	sub-28	1	localizer	blank	interval	NaN	NaN	NaN	NaN	NaN	NaN	NaN	NaN	NaN	NaN	NaN	NaN
679.0814402000005	0.4995	sub-28	1	localizer	stimulus	Katze	NaN	180	2.5519375999992917	0.6785651000000144	True	NaN	NaN	NaN	NaN	NaN	NaN	NaN
679.5643874000007	2.5519	sub-28	1	localizer	blank	interval	NaN	NaN	NaN	NaN	NaN	NaN	NaN	NaN	NaN	NaN	NaN	NaN
682.4175222000003	0.4994	sub-28	1	localizer	stimulus	Stuhl	NaN	0	2.9356841999997414	NaN	True	NaN	NaN	NaN	NaN	NaN	NaN	NaN
682.9004309000002	2.9357	sub-28	1	localizer	blank	interval	NaN	NaN	NaN	NaN	NaN	NaN	NaN	NaN	NaN	NaN	NaN	NaN
686.1371717000002	0.4995	sub-28	1	localizer	stimulus	Stuhl	NaN	180	2.6352509999996983	0.5749826999999641	True	NaN	NaN	NaN	NaN	NaN	NaN	NaN
686.6201490000003	2.6353	sub-28	1	localizer	blank	interval	NaN	NaN	NaN	NaN	NaN	NaN	NaN	NaN	NaN	NaN	NaN	NaN
689.5567523	0.4993	sub-28	1	localizer	stimulus	Gesicht	NaN	0	2.118204500000502	NaN	True	NaN	NaN	NaN	NaN	NaN	NaN	NaN
690.0397659	2.1182	sub-28	1	localizer	blank	interval	NaN	NaN	NaN	NaN	NaN	NaN	NaN	NaN	NaN	NaN	NaN	NaN
692.4764100000002	0.4989	sub-28	1	localizer	stimulus	Haus	NaN	0	2.718537599999763	NaN	True	NaN	NaN	NaN	NaN	NaN	NaN	NaN
692.9421365000007	2.7185	sub-28	1	localizer	blank	interval	NaN	NaN	NaN	NaN	NaN	NaN	NaN	NaN	NaN	NaN	NaN	NaN
695.9617197000007	0.4995	sub-28	1	localizer	stimulus	Schuh	NaN	180	2.9855758000003334	0.4701404999996157	True	NaN	NaN	NaN	NaN	NaN	NaN	NaN
696.4447141999999	2.9856	sub-28	1	localizer	blank	interval	NaN	NaN	NaN	NaN	NaN	NaN	NaN	NaN	NaN	NaN	NaN	NaN
699.7314589000007	0.4994	sub-28	1	localizer	stimulus	Gesicht	NaN	0	2.7354491999994934	NaN	True	NaN	NaN	NaN	NaN	NaN	NaN	NaN
700.2144346000005	2.7354	sub-28	1	localizer	blank	interval	NaN	NaN	NaN	NaN	NaN	NaN	NaN	NaN	NaN	NaN	NaN	NaN
703.2509883000002	0.4995	sub-28	1	localizer	stimulus	Schuh	NaN	0	1.7846132000004218	NaN	True	NaN	NaN	NaN	NaN	NaN	NaN	NaN
703.7339848000001	1.7846	sub-28	1	localizer	blank	interval	NaN	NaN	NaN	NaN	NaN	NaN	NaN	NaN	NaN	NaN	NaN	NaN
705.8197359000005	0.4995	sub-28	1	localizer	stimulus	Haus	NaN	0	2.4186406999997416	NaN	True	NaN	NaN	NaN	NaN	NaN	NaN	NaN
706.3026281000002	2.4186	sub-28	1	localizer	blank	interval	NaN	NaN	NaN	NaN	NaN	NaN	NaN	NaN	NaN	NaN	NaN	NaN
709.0223384999999	0.4994	sub-28	1	localizer	stimulus	Haus	NaN	0	2.58546269999988	NaN	True	NaN	NaN	NaN	NaN	NaN	NaN	NaN
709.5052343000007	2.5855	sub-28	1	localizer	blank	interval	NaN	NaN	NaN	NaN	NaN	NaN	NaN	NaN	NaN	NaN	NaN	NaN
712.3917446000005	0.4995	sub-28	1	localizer	stimulus	Gesicht	NaN	180	2.7352492999998503	0.4642927999993844	True	NaN	NaN	NaN	NaN	NaN	NaN	NaN
712.8747965000002	2.7352	sub-28	1	localizer	blank	interval	NaN	NaN	NaN	NaN	NaN	NaN	NaN	NaN	NaN	NaN	NaN	NaN
715.9111458000007	0.4996	sub-28	1	localizer	stimulus	Gesicht	NaN	0	2.6186708999994153	NaN	True	NaN	NaN	NaN	NaN	NaN	NaN	NaN
716.3941686000007	2.6187	sub-28	1	localizer	blank	interval	NaN	NaN	NaN	NaN	NaN	NaN	NaN	NaN	NaN	NaN	NaN	NaN
719.3139375999999	0.4995	sub-28	1	localizer	stimulus	Stuhl	NaN	0	2.5518622999998115	NaN	True	NaN	NaN	NaN	NaN	NaN	NaN	NaN
719.7969484000005	2.5519	sub-28	1	localizer	blank	interval	NaN	NaN	NaN	NaN	NaN	NaN	NaN	NaN	NaN	NaN	NaN	NaN
722.6499751000001	0.4994	sub-28	1	localizer	stimulus	Haus	NaN	0	1.8847906000000876	NaN	True	NaN	NaN	NaN	NaN	NaN	NaN	NaN
723.1329249999999	1.8848	sub-28	1	localizer	blank	interval	NaN	NaN	NaN	NaN	NaN	NaN	NaN	NaN	NaN	NaN	NaN	NaN
725.3187522000007	0.4995	sub-28	1	localizer	stimulus	Stuhl	NaN	0	2.5186781000002156	NaN	True	NaN	NaN	NaN	NaN	NaN	NaN	NaN
725.8016710000002	2.5187	sub-28	1	localizer	blank	interval	NaN	NaN	NaN	NaN	NaN	NaN	NaN	NaN	NaN	NaN	NaN	NaN
728.6214499000007	0.4995	sub-28	1	localizer	stimulus	Katze	NaN	0	2.368495300000177	NaN	True	NaN	NaN	NaN	NaN	NaN	NaN	NaN
729.1045374000005	2.3685	sub-28	1	localizer	blank	interval	NaN	NaN	NaN	NaN	NaN	NaN	NaN	NaN	NaN	NaN	NaN	NaN
731.7741251000007	0.4995	sub-28	1	localizer	stimulus	Katze	NaN	0	2.935781600000155	NaN	True	NaN	NaN	NaN	NaN	NaN	NaN	NaN
732.2571011	2.9358	sub-28	1	localizer	blank	interval	NaN	NaN	NaN	NaN	NaN	NaN	NaN	NaN	NaN	NaN	NaN	NaN
735.4938901000005	0.4993	sub-28	1	localizer	stimulus	Schuh	NaN	0	2.1517233000004126	NaN	True	NaN	NaN	NaN	NaN	NaN	NaN	NaN
735.9766170000003	2.1517	sub-28	1	localizer	blank	interval	NaN	NaN	NaN	NaN	NaN	NaN	NaN	NaN	NaN	NaN	NaN	NaN
738.4293252000007	0.4996	sub-28	1	localizer	stimulus	Stuhl	NaN	0	2.268238399999973	NaN	True	NaN	NaN	NaN	NaN	NaN	NaN	NaN
738.9124251000003	2.2682	sub-28	1	localizer	blank	interval	NaN	NaN	NaN	NaN	NaN	NaN	NaN	NaN	NaN	NaN	NaN	NaN
744.6671463000002	1.0005	sub-28	1	sequence	cue	Katze	NaN	NaN	NaN	NaN	NaN	NaN	NaN	NaN	NaN	NaN	NaN	NaN
745.6676628000005	2.0016	sub-28	1	sequence	blank	blank	NaN	NaN	NaN	NaN	NaN	NaN	NaN	NaN	NaN	NaN	NaN	NaN
747.6693101999999	0.3002	sub-28	1	sequence	fixation	dot	NaN	NaN	NaN	NaN	NaN	NaN	NaN	NaN	NaN	NaN	NaN	NaN
747.9878394000007	0.1151	sub-28	1	sequence	stimulus	Schuh	NaN	NaN	64.0	NaN	NaN	4.0	1.0	NaN	NaN	NaN	NaN	NaN
748.1029122	0.0668	sub-28	1	sequence	interval	dot	NaN	NaN	NaN	NaN	NaN	NaN	NaN	NaN	NaN	NaN	NaN	NaN
748.1697539000006	0.0999	sub-28	1	sequence	stimulus	Stuhl	NaN	NaN	64.0	NaN	NaN	5.0	2.0	NaN	NaN	NaN	NaN	NaN
748.2697006000008	0.0669	sub-28	1	sequence	interval	dot	NaN	NaN	NaN	NaN	NaN	NaN	NaN	NaN	NaN	NaN	NaN	NaN
748.3365954999999	0.1	sub-28	1	sequence	stimulus	Haus	NaN	NaN	64.0	NaN	NaN	2.0	3.0	NaN	NaN	NaN	NaN	NaN
748.4365472	0.0668	sub-28	1	sequence	interval	dot	NaN	NaN	NaN	NaN	NaN	NaN	NaN	NaN	NaN	NaN	NaN	NaN
748.5033668000005	0.0999	sub-28	1	sequence	stimulus	Gesicht	NaN	NaN	64.0	NaN	NaN	1.0	4.0	NaN	NaN	NaN	NaN	NaN
748.6033100000004	0.0669	sub-28	1	sequence	interval	dot	NaN	NaN	NaN	NaN	NaN	NaN	NaN	NaN	NaN	NaN	NaN	NaN
748.6701675000004	0.1	sub-28	1	sequence	stimulus	Katze	NaN	NaN	64.0	NaN	NaN	3.0	5.0	NaN	NaN	NaN	NaN	NaN
748.7701204000005	0.0668	sub-28	1	sequence	interval	dot	NaN	NaN	NaN	NaN	NaN	NaN	NaN	NaN	NaN	NaN	NaN	NaN
748.8369495000006	8.3882	sub-28	1	sequence	delay	dot	NaN	NaN	NaN	NaN	NaN	NaN	NaN	NaN	NaN	NaN	NaN	NaN
757.2011857000007	0.9268	sub-28	1	sequence	choice	choice	left	NaN	NaN	0.8948046999994403	True	NaN	NaN	left	True	5.0	4.0	5.0
758.1283286000007	0.4999	sub-28	1	sequence	feedback	NaN	NaN	NaN	NaN	NaN	NaN	NaN	NaN	NaN	NaN	NaN	NaN	NaN
758.6283211	1.0006	sub-28	1	sequence	cue	Stuhl	NaN	NaN	NaN	NaN	NaN	NaN	NaN	NaN	NaN	NaN	NaN	NaN
759.6289528000007	2.0016	sub-28	1	sequence	blank	blank	NaN	NaN	NaN	NaN	NaN	NaN	NaN	NaN	NaN	NaN	NaN	NaN
761.6305163000006	0.3002	sub-28	1	sequence	fixation	dot	NaN	NaN	NaN	NaN	NaN	NaN	NaN	NaN	NaN	NaN	NaN	NaN
761.9483403000004	0.0991	sub-28	1	sequence	stimulus	Gesicht	NaN	NaN	128.0	NaN	NaN	1.0	1.0	NaN	NaN	NaN	NaN	NaN
762.0474672999999	0.1336	sub-28	1	sequence	interval	dot	NaN	NaN	NaN	NaN	NaN	NaN	NaN	NaN	NaN	NaN	NaN	NaN
762.1810668000007	0.1	sub-28	1	sequence	stimulus	Schuh	NaN	NaN	128.0	NaN	NaN	4.0	2.0	NaN	NaN	NaN	NaN	NaN
762.2810304000004	0.1336	sub-28	1	sequence	interval	dot	NaN	NaN	NaN	NaN	NaN	NaN	NaN	NaN	NaN	NaN	NaN	NaN
762.4146114000005	0.0999	sub-28	1	sequence	stimulus	Haus	NaN	NaN	128.0	NaN	NaN	2.0	3.0	NaN	NaN	NaN	NaN	NaN
762.5145345999999	0.1336	sub-28	1	sequence	interval	dot	NaN	NaN	NaN	NaN	NaN	NaN	NaN	NaN	NaN	NaN	NaN	NaN
762.6481011000005	0.1	sub-28	1	sequence	stimulus	Stuhl	NaN	NaN	128.0	NaN	NaN	5.0	4.0	NaN	NaN	NaN	NaN	NaN
762.7481371000003	0.1336	sub-28	1	sequence	interval	dot	NaN	NaN	NaN	NaN	NaN	NaN	NaN	NaN	NaN	NaN	NaN	NaN
762.8817643000002	0.0998	sub-28	1	sequence	stimulus	Katze	NaN	NaN	128.0	NaN	NaN	3.0	5.0	NaN	NaN	NaN	NaN	NaN
762.9815312000001	0.1335	sub-28	1	sequence	interval	dot	NaN	NaN	NaN	NaN	NaN	NaN	NaN	NaN	NaN	NaN	NaN	NaN
763.1150210000005	8.0716	sub-28	1	sequence	delay	dot	NaN	NaN	NaN	NaN	NaN	NaN	NaN	NaN	NaN	NaN	NaN	NaN
771.1628999000004	0.9929	sub-28	1	sequence	choice	choice	right	NaN	NaN	0.9652243000000452	True	NaN	NaN	right	True	5.0	4.0	4.0
772.1561512000007	0.5001	sub-28	1	sequence	feedback	NaN	NaN	NaN	NaN	NaN	NaN	NaN	NaN	NaN	NaN	NaN	NaN	NaN
772.6563751000003	1.0006	sub-28	1	sequence	cue	Schuh	NaN	NaN	NaN	NaN	NaN	NaN	NaN	NaN	NaN	NaN	NaN	NaN
773.6570019000001	2.0017	sub-28	1	sequence	blank	blank	NaN	NaN	NaN	NaN	NaN	NaN	NaN	NaN	NaN	NaN	NaN	NaN
775.6586764000003	0.2983	sub-28	1	sequence	fixation	dot	NaN	NaN	NaN	NaN	NaN	NaN	NaN	NaN	NaN	NaN	NaN	NaN
775.9774074000006	0.1129	sub-28	1	sequence	stimulus	Haus	NaN	NaN	512.0	NaN	NaN	2.0	1.0	NaN	NaN	NaN	NaN	NaN
776.0902951000007	0.5193	sub-28	1	sequence	interval	dot	NaN	NaN	NaN	NaN	NaN	NaN	NaN	NaN	NaN	NaN	NaN	NaN
776.6096164	0.1	sub-28	1	sequence	stimulus	Stuhl	NaN	NaN	512.0	NaN	NaN	5.0	2.0	NaN	NaN	NaN	NaN	NaN
776.7095884	0.5172	sub-28	1	sequence	interval	dot	NaN	NaN	NaN	NaN	NaN	NaN	NaN	NaN	NaN	NaN	NaN	NaN
777.2267753000006	0.1	sub-28	1	sequence	stimulus	Katze	NaN	NaN	512.0	NaN	NaN	3.0	3.0	NaN	NaN	NaN	NaN	NaN
777.3267406000004	0.517	sub-28	1	sequence	interval	dot	NaN	NaN	NaN	NaN	NaN	NaN	NaN	NaN	NaN	NaN	NaN	NaN
777.8437139000007	0.0999	sub-28	1	sequence	stimulus	Schuh	NaN	NaN	512.0	NaN	NaN	4.0	4.0	NaN	NaN	NaN	NaN	NaN
777.9436578000004	0.5172	sub-28	1	sequence	interval	dot	NaN	NaN	NaN	NaN	NaN	NaN	NaN	NaN	NaN	NaN	NaN	NaN
778.4608753000002	0.1	sub-28	1	sequence	stimulus	Gesicht	NaN	NaN	512.0	NaN	NaN	1.0	5.0	NaN	NaN	NaN	NaN	NaN
778.5608477000005	0.5171	sub-28	1	sequence	interval	dot	NaN	NaN	NaN	NaN	NaN	NaN	NaN	NaN	NaN	NaN	NaN	NaN
779.0779756000002	6.1365	sub-28	1	sequence	delay	dot	NaN	NaN	NaN	NaN	NaN	NaN	NaN	NaN	NaN	NaN	NaN	NaN
785.2025440000007	1.0982	sub-28	1	sequence	choice	choice	left	NaN	NaN	1.0733596000000034	True	NaN	NaN	left	True	4.0	5.0	4.0
786.3009897000002	0.4999	sub-28	1	sequence	feedback	NaN	NaN	NaN	NaN	NaN	NaN	NaN	NaN	NaN	NaN	NaN	NaN	NaN
786.8010223000001	1.0007	sub-28	1	sequence	cue	Gesicht	NaN	NaN	NaN	NaN	NaN	NaN	NaN	NaN	NaN	NaN	NaN	NaN
787.8017418	2.0016	sub-28	1	sequence	blank	blank	NaN	NaN	NaN	NaN	NaN	NaN	NaN	NaN	NaN	NaN	NaN	NaN
789.8033619000007	0.3002	sub-28	1	sequence	fixation	dot	NaN	NaN	NaN	NaN	NaN	NaN	NaN	NaN	NaN	NaN	NaN	NaN
790.1218631000002	0.1151	sub-28	1	sequence	stimulus	Katze	NaN	NaN	128.0	NaN	NaN	3.0	1.0	NaN	NaN	NaN	NaN	NaN
790.2369541000007	0.1338	sub-28	1	sequence	interval	dot	NaN	NaN	NaN	NaN	NaN	NaN	NaN	NaN	NaN	NaN	NaN	NaN
790.3707050000003	0.0998	sub-28	1	sequence	stimulus	Haus	NaN	NaN	128.0	NaN	NaN	2.0	2.0	NaN	NaN	NaN	NaN	NaN
790.4704677	0.1336	sub-28	1	sequence	interval	dot	NaN	NaN	NaN	NaN	NaN	NaN	NaN	NaN	NaN	NaN	NaN	NaN
790.6040392000004	0.1	sub-28	1	sequence	stimulus	Stuhl	NaN	NaN	128.0	NaN	NaN	5.0	3.0	NaN	NaN	NaN	NaN	NaN
790.7039972000002	0.1335	sub-28	1	sequence	interval	dot	NaN	NaN	NaN	NaN	NaN	NaN	NaN	NaN	NaN	NaN	NaN	NaN
790.8375353000001	0.1	sub-28	1	sequence	stimulus	Gesicht	NaN	NaN	128.0	NaN	NaN	1.0	4.0	NaN	NaN	NaN	NaN	NaN
790.9375087000008	0.1336	sub-28	1	sequence	interval	dot	NaN	NaN	NaN	NaN	NaN	NaN	NaN	NaN	NaN	NaN	NaN	NaN
791.0710978000006	0.0999	sub-28	1	sequence	stimulus	Schuh	NaN	NaN	128.0	NaN	NaN	4.0	5.0	NaN	NaN	NaN	NaN	NaN
791.1710141000003	0.1335	sub-28	1	sequence	interval	dot	NaN	NaN	NaN	NaN	NaN	NaN	NaN	NaN	NaN	NaN	NaN	NaN
791.3044691000005	8.0715	sub-28	1	sequence	delay	dot	NaN	NaN	NaN	NaN	NaN	NaN	NaN	NaN	NaN	NaN	NaN	NaN
799.3463994000003	1.0322	sub-28	1	sequence	choice	choice	right	NaN	NaN	0.9918095999992148	True	NaN	NaN	right	True	5.0	4.0	4.0
800.3788944000007	0.5001	sub-28	1	sequence	feedback	NaN	NaN	NaN	NaN	NaN	NaN	NaN	NaN	NaN	NaN	NaN	NaN	NaN
800.8790894000003	1.0006	sub-28	1	sequence	cue	Schuh	NaN	NaN	NaN	NaN	NaN	NaN	NaN	NaN	NaN	NaN	NaN	NaN
801.8797374000005	2.0016	sub-28	1	sequence	blank	blank	NaN	NaN	NaN	NaN	NaN	NaN	NaN	NaN	NaN	NaN	NaN	NaN
803.8813006	0.3003	sub-28	1	sequence	fixation	dot	NaN	NaN	NaN	NaN	NaN	NaN	NaN	NaN	NaN	NaN	NaN	NaN
804.1991459000001	0.0991	sub-28	1	sequence	stimulus	Haus	NaN	NaN	32.0	NaN	NaN	2.0	1.0	NaN	NaN	NaN	NaN	NaN
804.2982841000003	0.0335	sub-28	1	sequence	interval	dot	NaN	NaN	NaN	NaN	NaN	NaN	NaN	NaN	NaN	NaN	NaN	NaN
804.3317503000007	0.1	sub-28	1	sequence	stimulus	Schuh	NaN	NaN	32.0	NaN	NaN	4.0	2.0	NaN	NaN	NaN	NaN	NaN
804.4317157000005	0.0336	sub-28	1	sequence	interval	dot	NaN	NaN	NaN	NaN	NaN	NaN	NaN	NaN	NaN	NaN	NaN	NaN
804.4653091	0.0999	sub-28	1	sequence	stimulus	Katze	NaN	NaN	32.0	NaN	NaN	3.0	3.0	NaN	NaN	NaN	NaN	NaN
804.5651734000003	0.0335	sub-28	1	sequence	interval	dot	NaN	NaN	NaN	NaN	NaN	NaN	NaN	NaN	NaN	NaN	NaN	NaN
804.5986804000004	0.0999	sub-28	1	sequence	stimulus	Gesicht	NaN	NaN	32.0	NaN	NaN	1.0	4.0	NaN	NaN	NaN	NaN	NaN
804.6986117000006	0.0335	sub-28	1	sequence	interval	dot	NaN	NaN	NaN	NaN	NaN	NaN	NaN	NaN	NaN	NaN	NaN	NaN
804.7320882000004	0.1	sub-28	1	sequence	stimulus	Stuhl	NaN	NaN	32.0	NaN	NaN	5.0	5.0	NaN	NaN	NaN	NaN	NaN
804.8320428000006	0.0334	sub-28	1	sequence	interval	dot	NaN	NaN	NaN	NaN	NaN	NaN	NaN	NaN	NaN	NaN	NaN	NaN
804.8654083000001	8.5385	sub-28	1	sequence	delay	dot	NaN	NaN	NaN	NaN	NaN	NaN	NaN	NaN	NaN	NaN	NaN	NaN
813.3858903999999	1.1208	sub-28	1	sequence	choice	choice	left	NaN	NaN	1.0918891999999687	True	NaN	NaN	left	True	2.0	5.0	2.0
814.5070003000001	0.5	sub-28	1	sequence	feedback	NaN	NaN	NaN	NaN	NaN	NaN	NaN	NaN	NaN	NaN	NaN	NaN	NaN
815.0072275000002	1.0007	sub-28	1	sequence	cue	Katze	NaN	NaN	NaN	NaN	NaN	NaN	NaN	NaN	NaN	NaN	NaN	NaN
816.0079171000007	1.9996	sub-28	1	sequence	blank	blank	NaN	NaN	NaN	NaN	NaN	NaN	NaN	NaN	NaN	NaN	NaN	NaN
818.0075672000003	0.3023	sub-28	1	sequence	fixation	dot	NaN	NaN	NaN	NaN	NaN	NaN	NaN	NaN	NaN	NaN	NaN	NaN
818.3275999000007	0.099	sub-28	1	sequence	stimulus	Haus	NaN	NaN	64.0	NaN	NaN	2.0	1.0	NaN	NaN	NaN	NaN	NaN
818.4266019000006	0.0669	sub-28	1	sequence	interval	dot	NaN	NaN	NaN	NaN	NaN	NaN	NaN	NaN	NaN	NaN	NaN	NaN
818.4934771000007	0.1	sub-28	1	sequence	stimulus	Gesicht	NaN	NaN	64.0	NaN	NaN	1.0	2.0	NaN	NaN	NaN	NaN	NaN
818.5934483999999	0.0668	sub-28	1	sequence	interval	dot	NaN	NaN	NaN	NaN	NaN	NaN	NaN	NaN	NaN	NaN	NaN	NaN
818.6602751999999	0.1	sub-28	1	sequence	stimulus	Stuhl	NaN	NaN	64.0	NaN	NaN	5.0	3.0	NaN	NaN	NaN	NaN	NaN
818.7602645000006	0.0668	sub-28	1	sequence	interval	dot	NaN	NaN	NaN	NaN	NaN	NaN	NaN	NaN	NaN	NaN	NaN	NaN
818.8271070999999	0.0999	sub-28	1	sequence	stimulus	Schuh	NaN	NaN	64.0	NaN	NaN	4.0	4.0	NaN	NaN	NaN	NaN	NaN
818.9270443000005	0.0668	sub-28	1	sequence	interval	dot	NaN	NaN	NaN	NaN	NaN	NaN	NaN	NaN	NaN	NaN	NaN	NaN
818.9938670000001	0.1	sub-28	1	sequence	stimulus	Katze	NaN	NaN	64.0	NaN	NaN	3.0	5.0	NaN	NaN	NaN	NaN	NaN
819.0938366999999	0.0667	sub-28	1	sequence	interval	dot	NaN	NaN	NaN	NaN	NaN	NaN	NaN	NaN	NaN	NaN	NaN	NaN
819.1605565	8.3882	sub-28	1	sequence	delay	dot	NaN	NaN	NaN	NaN	NaN	NaN	NaN	NaN	NaN	NaN	NaN	NaN
827.5299209000004	0.9381	sub-28	1	sequence	choice	choice	right	NaN	NaN	0.9070996999998896	True	NaN	NaN	right	True	3.0	5.0	5.0
828.4682897000002	0.5	sub-28	1	sequence	feedback	NaN	NaN	NaN	NaN	NaN	NaN	NaN	NaN	NaN	NaN	NaN	NaN	NaN
828.9683878000005	1.0007	sub-28	1	sequence	cue	Gesicht	NaN	NaN	NaN	NaN	NaN	NaN	NaN	NaN	NaN	NaN	NaN	NaN
829.9690966000007	2.0016	sub-28	1	sequence	blank	blank	NaN	NaN	NaN	NaN	NaN	NaN	NaN	NaN	NaN	NaN	NaN	NaN
831.9706765999999	0.3002	sub-28	1	sequence	fixation	dot	NaN	NaN	NaN	NaN	NaN	NaN	NaN	NaN	NaN	NaN	NaN	NaN
832.2892552000003	0.1151	sub-28	1	sequence	stimulus	Haus	NaN	NaN	512.0	NaN	NaN	2.0	1.0	NaN	NaN	NaN	NaN	NaN
832.4043090000005	0.5172	sub-28	1	sequence	interval	dot	NaN	NaN	NaN	NaN	NaN	NaN	NaN	NaN	NaN	NaN	NaN	NaN
832.9215142000003	0.0999	sub-28	1	sequence	stimulus	Stuhl	NaN	NaN	512.0	NaN	NaN	5.0	2.0	NaN	NaN	NaN	NaN	NaN
833.0214560000004	0.5173	sub-28	1	sequence	interval	dot	NaN	NaN	NaN	NaN	NaN	NaN	NaN	NaN	NaN	NaN	NaN	NaN
833.5387182000004	0.1	sub-28	1	sequence	stimulus	Gesicht	NaN	NaN	512.0	NaN	NaN	1.0	3.0	NaN	NaN	NaN	NaN	NaN
833.6386851000007	0.5172	sub-28	1	sequence	interval	dot	NaN	NaN	NaN	NaN	NaN	NaN	NaN	NaN	NaN	NaN	NaN	NaN
834.1558365000001	0.1	sub-28	1	sequence	stimulus	Schuh	NaN	NaN	512.0	NaN	NaN	4.0	4.0	NaN	NaN	NaN	NaN	NaN
834.2557878000007	0.5173	sub-28	1	sequence	interval	dot	NaN	NaN	NaN	NaN	NaN	NaN	NaN	NaN	NaN	NaN	NaN	NaN
834.7730422000004	0.0999	sub-28	1	sequence	stimulus	Katze	NaN	NaN	512.0	NaN	NaN	3.0	5.0	NaN	NaN	NaN	NaN	NaN
834.8729776	0.5171	sub-28	1	sequence	interval	dot	NaN	NaN	NaN	NaN	NaN	NaN	NaN	NaN	NaN	NaN	NaN	NaN
835.3900510000003	6.1532	sub-28	1	sequence	delay	dot	NaN	NaN	NaN	NaN	NaN	NaN	NaN	NaN	NaN	NaN	NaN	NaN
841.5172859000004	1.279	sub-28	1	sequence	choice	choice	left	NaN	NaN	1.248534700000164	True	NaN	NaN	left	True	3.0	4.0	3.0
842.7965742000006	0.5	sub-28	1	sequence	feedback	NaN	NaN	NaN	NaN	NaN	NaN	NaN	NaN	NaN	NaN	NaN	NaN	NaN
843.2968326	1.0005	sub-28	1	sequence	cue	Gesicht	NaN	NaN	NaN	NaN	NaN	NaN	NaN	NaN	NaN	NaN	NaN	NaN
844.2972921	2.0015	sub-28	1	sequence	blank	blank	NaN	NaN	NaN	NaN	NaN	NaN	NaN	NaN	NaN	NaN	NaN	NaN
846.2988042000006	0.3004	sub-28	1	sequence	fixation	dot	NaN	NaN	NaN	NaN	NaN	NaN	NaN	NaN	NaN	NaN	NaN	NaN
846.6167011000007	0.0992	sub-28	1	sequence	stimulus	Katze	NaN	NaN	32.0	NaN	NaN	3.0	1.0	NaN	NaN	NaN	NaN	NaN
846.7159044	0.0335	sub-28	1	sequence	interval	dot	NaN	NaN	NaN	NaN	NaN	NaN	NaN	NaN	NaN	NaN	NaN	NaN
846.7493680000007	0.1	sub-28	1	sequence	stimulus	Schuh	NaN	NaN	32.0	NaN	NaN	4.0	2.0	NaN	NaN	NaN	NaN	NaN
846.8493447999999	0.0335	sub-28	1	sequence	interval	dot	NaN	NaN	NaN	NaN	NaN	NaN	NaN	NaN	NaN	NaN	NaN	NaN
846.8828209000003	0.0999	sub-28	1	sequence	stimulus	Stuhl	NaN	NaN	32.0	NaN	NaN	5.0	3.0	NaN	NaN	NaN	NaN	NaN
846.9827553000005	0.0335	sub-28	1	sequence	interval	dot	NaN	NaN	NaN	NaN	NaN	NaN	NaN	NaN	NaN	NaN	NaN	NaN
847.0162565999999	0.1	sub-28	1	sequence	stimulus	Gesicht	NaN	NaN	32.0	NaN	NaN	1.0	4.0	NaN	NaN	NaN	NaN	NaN
847.1162322	0.0335	sub-28	1	sequence	interval	dot	NaN	NaN	NaN	NaN	NaN	NaN	NaN	NaN	NaN	NaN	NaN	NaN
847.1497302000007	0.0999	sub-28	1	sequence	stimulus	Haus	NaN	NaN	32.0	NaN	NaN	2.0	5.0	NaN	NaN	NaN	NaN	NaN
847.2496540000002	0.0334	sub-28	1	sequence	interval	dot	NaN	NaN	NaN	NaN	NaN	NaN	NaN	NaN	NaN	NaN	NaN	NaN
847.2830283000003	8.5218	sub-28	1	sequence	delay	dot	NaN	NaN	NaN	NaN	NaN	NaN	NaN	NaN	NaN	NaN	NaN	NaN
855.7909791000002	1.4837	sub-28	1	sequence	choice	choice	right	NaN	NaN	1.4668578000000707	True	NaN	NaN	right	True	5.0	4.0	4.0
857.2748992000006	0.5001	sub-28	1	sequence	feedback	NaN	NaN	NaN	NaN	NaN	NaN	NaN	NaN	NaN	NaN	NaN	NaN	NaN
857.7753496000005	17.1802	sub-28	1	other	break	break	NaN	NaN	NaN	NaN	NaN	NaN	NaN	NaN	NaN	NaN	NaN	NaN
878.7760914	0.4995	sub-28	1	localizer	stimulus	Gesicht	NaN	0	1.8516460999999254	NaN	True	NaN	NaN	NaN	NaN	NaN	NaN	NaN
879.2756090000003	1.8516	sub-28	1	localizer	blank	interval	NaN	NaN	NaN	NaN	NaN	NaN	NaN	NaN	NaN	NaN	NaN	NaN
881.4284648000003	0.4995	sub-28	1	localizer	stimulus	Haus	NaN	0	3.3022461000000476	NaN	True	NaN	NaN	NaN	NaN	NaN	NaN	NaN
881.9113514000001	3.3022	sub-28	1	localizer	blank	interval	NaN	NaN	NaN	NaN	NaN	NaN	NaN	NaN	NaN	NaN	NaN	NaN
885.5147856000003	0.4995	sub-28	1	localizer	stimulus	Schuh	NaN	0	2.068188100000043	NaN	True	NaN	NaN	NaN	NaN	NaN	NaN	NaN
885.9977220000001	2.0682	sub-28	1	localizer	blank	interval	NaN	NaN	NaN	NaN	NaN	NaN	NaN	NaN	NaN	NaN	NaN	NaN
888.3671131000001	0.4995	sub-28	1	localizer	stimulus	Haus	NaN	180	2.6353878999998415	0.5283650000001217	True	NaN	NaN	NaN	NaN	NaN	NaN	NaN
888.8500148000003	2.6354	sub-28	1	localizer	blank	interval	NaN	NaN	NaN	NaN	NaN	NaN	NaN	NaN	NaN	NaN	NaN	NaN
891.7865280000005	0.4996	sub-28	1	localizer	stimulus	Stuhl	NaN	0	3.0522932000003493	NaN	True	NaN	NaN	NaN	NaN	NaN	NaN	NaN
892.2694884000002	3.0523	sub-28	1	localizer	blank	interval	NaN	NaN	NaN	NaN	NaN	NaN	NaN	NaN	NaN	NaN	NaN	NaN
895.6229688000003	0.4996	sub-28	1	localizer	stimulus	Haus	NaN	0	3.2357367999993585	NaN	True	NaN	NaN	NaN	NaN	NaN	NaN	NaN
896.1060941000005	3.2357	sub-28	1	localizer	blank	interval	NaN	NaN	NaN	NaN	NaN	NaN	NaN	NaN	NaN	NaN	NaN	NaN
899.6430567000007	0.4994	sub-28	1	localizer	stimulus	Haus	NaN	0	2.5354509000000007	NaN	True	NaN	NaN	NaN	NaN	NaN	NaN	NaN
900.1259851000004	2.5355	sub-28	1	localizer	blank	interval	NaN	NaN	NaN	NaN	NaN	NaN	NaN	NaN	NaN	NaN	NaN	NaN
902.9624573	0.4993	sub-28	1	localizer	stimulus	Katze	NaN	180	2.501799100000426	0.5090155999996568	True	NaN	NaN	NaN	NaN	NaN	NaN	NaN
903.4452817	2.5018	sub-28	1	localizer	blank	interval	NaN	NaN	NaN	NaN	NaN	NaN	NaN	NaN	NaN	NaN	NaN	NaN
906.2482009000004	0.4995	sub-28	1	localizer	stimulus	Katze	NaN	0	2.4351085999998077	NaN	True	NaN	NaN	NaN	NaN	NaN	NaN	NaN
906.7311715000004	2.4351	sub-28	1	localizer	blank	interval	NaN	NaN	NaN	NaN	NaN	NaN	NaN	NaN	NaN	NaN	NaN	NaN
909.4674649000008	0.4996	sub-28	1	localizer	stimulus	Gesicht	NaN	0	3.2857426000001624	NaN	True	NaN	NaN	NaN	NaN	NaN	NaN	NaN
909.9504774000006	3.2857	sub-28	1	localizer	blank	interval	NaN	NaN	NaN	NaN	NaN	NaN	NaN	NaN	NaN	NaN	NaN	NaN
913.5373945	0.4996	sub-28	1	localizer	stimulus	Stuhl	NaN	0	2.285354300000222	NaN	True	NaN	NaN	NaN	NaN	NaN	NaN	NaN
914.0203268000004	2.2854	sub-28	1	localizer	blank	interval	NaN	NaN	NaN	NaN	NaN	NaN	NaN	NaN	NaN	NaN	NaN	NaN
916.6065349	0.4995	sub-28	1	localizer	stimulus	Stuhl	NaN	0	3.1024138999999877	NaN	True	NaN	NaN	NaN	NaN	NaN	NaN	NaN
917.0895096000004	3.1024	sub-28	1	localizer	blank	interval	NaN	NaN	NaN	NaN	NaN	NaN	NaN	NaN	NaN	NaN	NaN	NaN
920.4931754	0.4994	sub-28	1	localizer	stimulus	Gesicht	NaN	0	2.5687684000004083	NaN	True	NaN	NaN	NaN	NaN	NaN	NaN	NaN
920.976079	2.5688	sub-28	1	localizer	blank	interval	NaN	NaN	NaN	NaN	NaN	NaN	NaN	NaN	NaN	NaN	NaN	NaN
923.8460063000002	0.4992	sub-28	1	localizer	stimulus	Katze	NaN	0	2.785299899999586	NaN	True	NaN	NaN	NaN	NaN	NaN	NaN	NaN
924.3288464000008	2.7853	sub-28	1	localizer	blank	interval	NaN	NaN	NaN	NaN	NaN	NaN	NaN	NaN	NaN	NaN	NaN	NaN
927.4152632000004	0.4995	sub-28	1	localizer	stimulus	Stuhl	NaN	0	1.8680654999998296	NaN	True	NaN	NaN	NaN	NaN	NaN	NaN	NaN
927.8981995000004	1.8681	sub-28	1	localizer	blank	interval	NaN	NaN	NaN	NaN	NaN	NaN	NaN	NaN	NaN	NaN	NaN	NaN
930.067438	0.4995	sub-28	1	localizer	stimulus	Schuh	NaN	180	2.652020200000038	0.5399419999994279	True	NaN	NaN	NaN	NaN	NaN	NaN	NaN
930.5503753000004	2.652	sub-28	1	localizer	blank	interval	NaN	NaN	NaN	NaN	NaN	NaN	NaN	NaN	NaN	NaN	NaN	NaN
933.5035776000004	0.4999	sub-28	1	localizer	stimulus	Gesicht	NaN	0	2.1015615999993997	NaN	True	NaN	NaN	NaN	NaN	NaN	NaN	NaN
933.9864627000006	2.1016	sub-28	1	localizer	blank	interval	NaN	NaN	NaN	NaN	NaN	NaN	NaN	NaN	NaN	NaN	NaN	NaN
936.3891789	0.4995	sub-28	1	localizer	stimulus	Gesicht	NaN	180	1.8013742000002821	0.5222916000002442	True	NaN	NaN	NaN	NaN	NaN	NaN	NaN
936.8721930000002	1.8014	sub-28	1	localizer	blank	interval	NaN	NaN	NaN	NaN	NaN	NaN	NaN	NaN	NaN	NaN	NaN	NaN
938.9747467000008	0.4993	sub-28	1	localizer	stimulus	Schuh	NaN	0	3.1692421000000195	NaN	True	NaN	NaN	NaN	NaN	NaN	NaN	NaN
939.4575328	3.1692	sub-28	1	localizer	blank	interval	NaN	NaN	NaN	NaN	NaN	NaN	NaN	NaN	NaN	NaN	NaN	NaN
942.9278301000004	0.5142	sub-28	1	localizer	stimulus	Schuh	NaN	0	3.304420700000378	NaN	True	NaN	NaN	NaN	NaN	NaN	NaN	NaN
943.408848	3.3044	sub-28	1	localizer	blank	interval	NaN	NaN	NaN	NaN	NaN	NaN	NaN	NaN	NaN	NaN	NaN	NaN
947.0144372000004	0.4995	sub-28	1	localizer	stimulus	Katze	NaN	0	2.1683367000007365	NaN	True	NaN	NaN	NaN	NaN	NaN	NaN	NaN
947.4973343	2.1683	sub-28	1	localizer	blank	interval	NaN	NaN	NaN	NaN	NaN	NaN	NaN	NaN	NaN	NaN	NaN	NaN
949.9668134000004	0.4996	sub-28	1	localizer	stimulus	Schuh	NaN	0	1.9681271000000606	NaN	True	NaN	NaN	NaN	NaN	NaN	NaN	NaN
950.4497639	1.9681	sub-28	1	localizer	blank	interval	NaN	NaN	NaN	NaN	NaN	NaN	NaN	NaN	NaN	NaN	NaN	NaN
952.7191635	0.4994	sub-28	1	localizer	stimulus	Stuhl	NaN	180	2.3017512999994096	0.5042516000003161	True	NaN	NaN	NaN	NaN	NaN	NaN	NaN
953.2019672000006	2.3018	sub-28	1	localizer	blank	interval	NaN	NaN	NaN	NaN	NaN	NaN	NaN	NaN	NaN	NaN	NaN	NaN
955.8048422000002	0.4995	sub-28	1	localizer	stimulus	Katze	NaN	0	2.38515709999956	NaN	True	NaN	NaN	NaN	NaN	NaN	NaN	NaN
956.2878272000008	2.3852	sub-28	1	localizer	blank	interval	NaN	NaN	NaN	NaN	NaN	NaN	NaN	NaN	NaN	NaN	NaN	NaN
958.9741203000004	0.4993	sub-28	1	localizer	stimulus	Haus	NaN	0	2.468493899999771	NaN	True	NaN	NaN	NaN	NaN	NaN	NaN	NaN
959.4570600000006	2.4685	sub-28	1	localizer	blank	interval	NaN	NaN	NaN	NaN	NaN	NaN	NaN	NaN	NaN	NaN	NaN	NaN
965.4123492	1.0001	sub-28	1	sequence	cue	Stuhl	NaN	NaN	NaN	NaN	NaN	NaN	NaN	NaN	NaN	NaN	NaN	NaN
966.4124778000004	2.0018	sub-28	1	sequence	blank	blank	NaN	NaN	NaN	NaN	NaN	NaN	NaN	NaN	NaN	NaN	NaN	NaN
968.4142444	0.3002	sub-28	1	sequence	fixation	dot	NaN	NaN	NaN	NaN	NaN	NaN	NaN	NaN	NaN	NaN	NaN	NaN
968.7319863000002	0.0992	sub-28	1	sequence	stimulus	Haus	NaN	NaN	64.0	NaN	NaN	2.0	1.0	NaN	NaN	NaN	NaN	NaN
968.8311573	0.0668	sub-28	1	sequence	interval	dot	NaN	NaN	NaN	NaN	NaN	NaN	NaN	NaN	NaN	NaN	NaN	NaN
968.8979845000003	0.1001	sub-28	1	sequence	stimulus	Gesicht	NaN	NaN	64.0	NaN	NaN	1.0	2.0	NaN	NaN	NaN	NaN	NaN
968.9980504000004	0.0668	sub-28	1	sequence	interval	dot	NaN	NaN	NaN	NaN	NaN	NaN	NaN	NaN	NaN	NaN	NaN	NaN
969.0648685000006	0.1	sub-28	1	sequence	stimulus	Stuhl	NaN	NaN	64.0	NaN	NaN	5.0	3.0	NaN	NaN	NaN	NaN	NaN
969.1648706000004	0.0667	sub-28	1	sequence	interval	dot	NaN	NaN	NaN	NaN	NaN	NaN	NaN	NaN	NaN	NaN	NaN	NaN
969.2315802000004	0.1001	sub-28	1	sequence	stimulus	Schuh	NaN	NaN	64.0	NaN	NaN	4.0	4.0	NaN	NaN	NaN	NaN	NaN
969.3316658000005	0.0668	sub-28	1	sequence	interval	dot	NaN	NaN	NaN	NaN	NaN	NaN	NaN	NaN	NaN	NaN	NaN	NaN
969.3985150000008	0.0998	sub-28	1	sequence	stimulus	Katze	NaN	NaN	64.0	NaN	NaN	3.0	5.0	NaN	NaN	NaN	NaN	NaN
969.4983397000004	0.0668	sub-28	1	sequence	interval	dot	NaN	NaN	NaN	NaN	NaN	NaN	NaN	NaN	NaN	NaN	NaN	NaN
969.5651717	8.3883	sub-28	1	sequence	delay	dot	NaN	NaN	NaN	NaN	NaN	NaN	NaN	NaN	NaN	NaN	NaN	NaN
977.9360725000006	1.0702	sub-28	1	sequence	choice	choice	right	NaN	NaN	1.0459412999998676	True	NaN	NaN	right	True	4.0	3.0	3.0
979.0066762000006	0.4998	sub-28	1	sequence	feedback	NaN	NaN	NaN	NaN	NaN	NaN	NaN	NaN	NaN	NaN	NaN	NaN	NaN
979.5066098000008	1.0006	sub-28	1	sequence	cue	Stuhl	NaN	NaN	NaN	NaN	NaN	NaN	NaN	NaN	NaN	NaN	NaN	NaN
980.5072519000004	2.0017	sub-28	1	sequence	blank	blank	NaN	NaN	NaN	NaN	NaN	NaN	NaN	NaN	NaN	NaN	NaN	NaN
982.5089652000006	0.3003	sub-28	1	sequence	fixation	dot	NaN	NaN	NaN	NaN	NaN	NaN	NaN	NaN	NaN	NaN	NaN	NaN
982.8276093000004	0.1151	sub-28	1	sequence	stimulus	Katze	NaN	NaN	128.0	NaN	NaN	3.0	1.0	NaN	NaN	NaN	NaN	NaN
982.9426961	0.1336	sub-28	1	sequence	interval	dot	NaN	NaN	NaN	NaN	NaN	NaN	NaN	NaN	NaN	NaN	NaN	NaN
983.0762911000002	0.0999	sub-28	1	sequence	stimulus	Haus	NaN	NaN	128.0	NaN	NaN	2.0	2.0	NaN	NaN	NaN	NaN	NaN
983.1762378000004	0.1336	sub-28	1	sequence	interval	dot	NaN	NaN	NaN	NaN	NaN	NaN	NaN	NaN	NaN	NaN	NaN	NaN
983.3097972000004	0.0999	sub-28	1	sequence	stimulus	Stuhl	NaN	NaN	128.0	NaN	NaN	5.0	3.0	NaN	NaN	NaN	NaN	NaN
983.4096641000006	0.1337	sub-28	1	sequence	interval	dot	NaN	NaN	NaN	NaN	NaN	NaN	NaN	NaN	NaN	NaN	NaN	NaN
983.5433464000008	0.0999	sub-28	1	sequence	stimulus	Gesicht	NaN	NaN	128.0	NaN	NaN	1.0	4.0	NaN	NaN	NaN	NaN	NaN
983.6432113	0.1337	sub-28	1	sequence	interval	dot	NaN	NaN	NaN	NaN	NaN	NaN	NaN	NaN	NaN	NaN	NaN	NaN
983.7768863	0.0999	sub-28	1	sequence	stimulus	Schuh	NaN	NaN	128.0	NaN	NaN	4.0	5.0	NaN	NaN	NaN	NaN	NaN
983.8768267000004	0.1334	sub-28	1	sequence	interval	dot	NaN	NaN	NaN	NaN	NaN	NaN	NaN	NaN	NaN	NaN	NaN	NaN
984.0102694000008	8.0713	sub-28	1	sequence	delay	dot	NaN	NaN	NaN	NaN	NaN	NaN	NaN	NaN	NaN	NaN	NaN	NaN
992.0538810000008	0.9304	sub-28	1	sequence	choice	choice	left	NaN	NaN	0.901824300000044	True	NaN	NaN	left	True	3.0	4.0	3.0
992.9845184000004	0.4999	sub-28	1	sequence	feedback	NaN	NaN	NaN	NaN	NaN	NaN	NaN	NaN	NaN	NaN	NaN	NaN	NaN
993.4845767000006	1.0006	sub-28	1	sequence	cue	Katze	NaN	NaN	NaN	NaN	NaN	NaN	NaN	NaN	NaN	NaN	NaN	NaN
994.4852180000008	2.0016	sub-28	1	sequence	blank	blank	NaN	NaN	NaN	NaN	NaN	NaN	NaN	NaN	NaN	NaN	NaN	NaN
996.4868160000004	0.3002	sub-28	1	sequence	fixation	dot	NaN	NaN	NaN	NaN	NaN	NaN	NaN	NaN	NaN	NaN	NaN	NaN
996.8053888000004	0.1151	sub-28	1	sequence	stimulus	Schuh	NaN	NaN	64.0	NaN	NaN	4.0	1.0	NaN	NaN	NaN	NaN	NaN
996.9204873	0.0668	sub-28	1	sequence	interval	dot	NaN	NaN	NaN	NaN	NaN	NaN	NaN	NaN	NaN	NaN	NaN	NaN
996.9873073	0.1	sub-28	1	sequence	stimulus	Stuhl	NaN	NaN	64.0	NaN	NaN	5.0	2.0	NaN	NaN	NaN	NaN	NaN
997.087267	0.0669	sub-28	1	sequence	interval	dot	NaN	NaN	NaN	NaN	NaN	NaN	NaN	NaN	NaN	NaN	NaN	NaN
997.1541421000002	0.0999	sub-28	1	sequence	stimulus	Haus	NaN	NaN	64.0	NaN	NaN	2.0	3.0	NaN	NaN	NaN	NaN	NaN
997.2540685000004	0.0668	sub-28	1	sequence	interval	dot	NaN	NaN	NaN	NaN	NaN	NaN	NaN	NaN	NaN	NaN	NaN	NaN
997.3208920000006	0.1	sub-28	1	sequence	stimulus	Gesicht	NaN	NaN	64.0	NaN	NaN	1.0	4.0	NaN	NaN	NaN	NaN	NaN
997.4208638	0.0668	sub-28	1	sequence	interval	dot	NaN	NaN	NaN	NaN	NaN	NaN	NaN	NaN	NaN	NaN	NaN	NaN
997.4877036000008	0.1	sub-28	1	sequence	stimulus	Katze	NaN	NaN	64.0	NaN	NaN	3.0	5.0	NaN	NaN	NaN	NaN	NaN
997.5876647000003	0.0667	sub-28	1	sequence	interval	dot	NaN	NaN	NaN	NaN	NaN	NaN	NaN	NaN	NaN	NaN	NaN	NaN
997.6544093000002	8.3883	sub-28	1	sequence	delay	dot	NaN	NaN	NaN	NaN	NaN	NaN	NaN	NaN	NaN	NaN	NaN	NaN
1006.0157172	0.9299	sub-28	1	sequence	choice	choice	right	NaN	NaN	0.8925450000006094	True	NaN	NaN	right	True	2.0	5.0	5.0
1006.9459021000002	0.5	sub-28	1	sequence	feedback	NaN	NaN	NaN	NaN	NaN	NaN	NaN	NaN	NaN	NaN	NaN	NaN	NaN
1007.4460694	1.0004	sub-28	1	sequence	cue	Stuhl	NaN	NaN	NaN	NaN	NaN	NaN	NaN	NaN	NaN	NaN	NaN	NaN
1008.4464451000003	2.0018	sub-28	1	sequence	blank	blank	NaN	NaN	NaN	NaN	NaN	NaN	NaN	NaN	NaN	NaN	NaN	NaN
1010.4482095000004	0.3001	sub-28	1	sequence	fixation	dot	NaN	NaN	NaN	NaN	NaN	NaN	NaN	NaN	NaN	NaN	NaN	NaN
1010.7658812	0.0992	sub-28	1	sequence	stimulus	Gesicht	NaN	NaN	128.0	NaN	NaN	1.0	1.0	NaN	NaN	NaN	NaN	NaN
1010.8650596000008	0.1335	sub-28	1	sequence	interval	dot	NaN	NaN	NaN	NaN	NaN	NaN	NaN	NaN	NaN	NaN	NaN	NaN
1010.9986041000002	0.1	sub-28	1	sequence	stimulus	Schuh	NaN	NaN	128.0	NaN	NaN	4.0	2.0	NaN	NaN	NaN	NaN	NaN
1011.0986017000004	0.1336	sub-28	1	sequence	interval	dot	NaN	NaN	NaN	NaN	NaN	NaN	NaN	NaN	NaN	NaN	NaN	NaN
1011.2321948	0.0999	sub-28	1	sequence	stimulus	Haus	NaN	NaN	128.0	NaN	NaN	2.0	3.0	NaN	NaN	NaN	NaN	NaN
1011.3321186000004	0.1336	sub-28	1	sequence	interval	dot	NaN	NaN	NaN	NaN	NaN	NaN	NaN	NaN	NaN	NaN	NaN	NaN
1011.4656835000004	0.1	sub-28	1	sequence	stimulus	Stuhl	NaN	NaN	128.0	NaN	NaN	5.0	4.0	NaN	NaN	NaN	NaN	NaN
1011.5656415000004	0.1336	sub-28	1	sequence	interval	dot	NaN	NaN	NaN	NaN	NaN	NaN	NaN	NaN	NaN	NaN	NaN	NaN
1011.6991951	0.1	sub-28	1	sequence	stimulus	Katze	NaN	NaN	128.0	NaN	NaN	3.0	5.0	NaN	NaN	NaN	NaN	NaN
1011.7991626000004	0.1334	sub-28	1	sequence	interval	dot	NaN	NaN	NaN	NaN	NaN	NaN	NaN	NaN	NaN	NaN	NaN	NaN
1011.9326079000002	8.0715	sub-28	1	sequence	delay	dot	NaN	NaN	NaN	NaN	NaN	NaN	NaN	NaN	NaN	NaN	NaN	NaN
1019.9771760000004	1.1299	sub-28	1	sequence	choice	choice	left	NaN	NaN	1.0994615999998132	True	NaN	NaN	left	True	4.0	5.0	4.0
1021.1072937	0.4998	sub-28	1	sequence	feedback	NaN	NaN	NaN	NaN	NaN	NaN	NaN	NaN	NaN	NaN	NaN	NaN	NaN
1021.6072381000004	1.0007	sub-28	1	sequence	cue	Gesicht	NaN	NaN	NaN	NaN	NaN	NaN	NaN	NaN	NaN	NaN	NaN	NaN
1022.6079076000004	1.9997	sub-28	1	sequence	blank	blank	NaN	NaN	NaN	NaN	NaN	NaN	NaN	NaN	NaN	NaN	NaN	NaN
1024.6076175000007	0.3022	sub-28	1	sequence	fixation	dot	NaN	NaN	NaN	NaN	NaN	NaN	NaN	NaN	NaN	NaN	NaN	NaN
1024.9287997	0.1145	sub-28	1	sequence	stimulus	Haus	NaN	NaN	32.0	NaN	NaN	2.0	1.0	NaN	NaN	NaN	NaN	NaN
1025.0432876000004	0.0335	sub-28	1	sequence	interval	dot	NaN	NaN	NaN	NaN	NaN	NaN	NaN	NaN	NaN	NaN	NaN	NaN
1025.0767499000003	0.0999	sub-28	1	sequence	stimulus	Schuh	NaN	NaN	32.0	NaN	NaN	4.0	2.0	NaN	NaN	NaN	NaN	NaN
1025.1766745000004	0.0335	sub-28	1	sequence	interval	dot	NaN	NaN	NaN	NaN	NaN	NaN	NaN	NaN	NaN	NaN	NaN	NaN
1025.2101813	0.1	sub-28	1	sequence	stimulus	Katze	NaN	NaN	32.0	NaN	NaN	3.0	3.0	NaN	NaN	NaN	NaN	NaN
1025.3101354	0.0335	sub-28	1	sequence	interval	dot	NaN	NaN	NaN	NaN	NaN	NaN	NaN	NaN	NaN	NaN	NaN	NaN
1025.3436456	0.1	sub-28	1	sequence	stimulus	Gesicht	NaN	NaN	32.0	NaN	NaN	1.0	4.0	NaN	NaN	NaN	NaN	NaN
1025.4436132	0.0335	sub-28	1	sequence	interval	dot	NaN	NaN	NaN	NaN	NaN	NaN	NaN	NaN	NaN	NaN	NaN	NaN
1025.4771356	0.0999	sub-28	1	sequence	stimulus	Stuhl	NaN	NaN	32.0	NaN	NaN	5.0	5.0	NaN	NaN	NaN	NaN	NaN
1025.5770651000005	0.0333	sub-28	1	sequence	interval	dot	NaN	NaN	NaN	NaN	NaN	NaN	NaN	NaN	NaN	NaN	NaN	NaN
1025.6104132	8.5218	sub-28	1	sequence	delay	dot	NaN	NaN	NaN	NaN	NaN	NaN	NaN	NaN	NaN	NaN	NaN	NaN
1034.1207986	1.2476	sub-28	1	sequence	choice	choice	left	NaN	NaN	1.235121199999412	True	NaN	NaN	left	True	4.0	5.0	4.0
1035.3686176	0.5	sub-28	1	sequence	feedback	NaN	NaN	NaN	NaN	NaN	NaN	NaN	NaN	NaN	NaN	NaN	NaN	NaN
1035.8687724	1.0006	sub-28	1	sequence	cue	Schuh	NaN	NaN	NaN	NaN	NaN	NaN	NaN	NaN	NaN	NaN	NaN	NaN
1036.8694235000005	2.0017	sub-28	1	sequence	blank	blank	NaN	NaN	NaN	NaN	NaN	NaN	NaN	NaN	NaN	NaN	NaN	NaN
1038.8711644000005	0.3001	sub-28	1	sequence	fixation	dot	NaN	NaN	NaN	NaN	NaN	NaN	NaN	NaN	NaN	NaN	NaN	NaN
1039.1896171000008	0.1151	sub-28	1	sequence	stimulus	Haus	NaN	NaN	512.0	NaN	NaN	2.0	1.0	NaN	NaN	NaN	NaN	NaN
1039.3047095000002	0.5172	sub-28	1	sequence	interval	dot	NaN	NaN	NaN	NaN	NaN	NaN	NaN	NaN	NaN	NaN	NaN	NaN
1039.8218711	0.1	sub-28	1	sequence	stimulus	Stuhl	NaN	NaN	512.0	NaN	NaN	5.0	2.0	NaN	NaN	NaN	NaN	NaN
1039.9218390000003	0.5172	sub-28	1	sequence	interval	dot	NaN	NaN	NaN	NaN	NaN	NaN	NaN	NaN	NaN	NaN	NaN	NaN
1040.4390518	0.1	sub-28	1	sequence	stimulus	Katze	NaN	NaN	512.0	NaN	NaN	3.0	3.0	NaN	NaN	NaN	NaN	NaN
1040.5390229000004	0.5172	sub-28	1	sequence	interval	dot	NaN	NaN	NaN	NaN	NaN	NaN	NaN	NaN	NaN	NaN	NaN	NaN
1041.0562187000005	0.1	sub-28	1	sequence	stimulus	Schuh	NaN	NaN	512.0	NaN	NaN	4.0	4.0	NaN	NaN	NaN	NaN	NaN
1041.1561878000002	0.5172	sub-28	1	sequence	interval	dot	NaN	NaN	NaN	NaN	NaN	NaN	NaN	NaN	NaN	NaN	NaN	NaN
1041.6733986	0.1	sub-28	1	sequence	stimulus	Gesicht	NaN	NaN	512.0	NaN	NaN	1.0	5.0	NaN	NaN	NaN	NaN	NaN
1041.7733582	0.5171	sub-28	1	sequence	interval	dot	NaN	NaN	NaN	NaN	NaN	NaN	NaN	NaN	NaN	NaN	NaN	NaN
1042.2904406000007	6.1534	sub-28	1	sequence	delay	dot	NaN	NaN	NaN	NaN	NaN	NaN	NaN	NaN	NaN	NaN	NaN	NaN
1048.4204826000005	0.8429	sub-28	1	sequence	choice	choice	left	NaN	NaN	0.811512400000538	True	NaN	NaN	left	True	4.0	5.0	4.0
1049.2635942000006	0.5	sub-28	1	sequence	feedback	NaN	NaN	NaN	NaN	NaN	NaN	NaN	NaN	NaN	NaN	NaN	NaN	NaN
1049.7636899	1.0003	sub-28	1	sequence	cue	Haus	NaN	NaN	NaN	NaN	NaN	NaN	NaN	NaN	NaN	NaN	NaN	NaN
1050.7639649000002	2.0016	sub-28	1	sequence	blank	blank	NaN	NaN	NaN	NaN	NaN	NaN	NaN	NaN	NaN	NaN	NaN	NaN
1052.7655887	0.3002	sub-28	1	sequence	fixation	dot	NaN	NaN	NaN	NaN	NaN	NaN	NaN	NaN	NaN	NaN	NaN	NaN
1053.0833895000003	0.0992	sub-28	1	sequence	stimulus	Katze	NaN	NaN	32.0	NaN	NaN	3.0	1.0	NaN	NaN	NaN	NaN	NaN
1053.1825843000006	0.0335	sub-28	1	sequence	interval	dot	NaN	NaN	NaN	NaN	NaN	NaN	NaN	NaN	NaN	NaN	NaN	NaN
1053.2161084	0.1	sub-28	1	sequence	stimulus	Schuh	NaN	NaN	32.0	NaN	NaN	4.0	2.0	NaN	NaN	NaN	NaN	NaN
1053.3160933	0.0334	sub-28	1	sequence	interval	dot	NaN	NaN	NaN	NaN	NaN	NaN	NaN	NaN	NaN	NaN	NaN	NaN
1053.3495409000006	0.1	sub-28	1	sequence	stimulus	Stuhl	NaN	NaN	32.0	NaN	NaN	5.0	3.0	NaN	NaN	NaN	NaN	NaN
1053.4495347000002	0.0334	sub-28	1	sequence	interval	dot	NaN	NaN	NaN	NaN	NaN	NaN	NaN	NaN	NaN	NaN	NaN	NaN
1053.4829211000006	0.1	sub-28	1	sequence	stimulus	Gesicht	NaN	NaN	32.0	NaN	NaN	1.0	4.0	NaN	NaN	NaN	NaN	NaN
1053.5828975000004	0.0335	sub-28	1	sequence	interval	dot	NaN	NaN	NaN	NaN	NaN	NaN	NaN	NaN	NaN	NaN	NaN	NaN
1053.6164028000003	0.0999	sub-28	1	sequence	stimulus	Haus	NaN	NaN	32.0	NaN	NaN	2.0	5.0	NaN	NaN	NaN	NaN	NaN
1053.7163362	0.0333	sub-28	1	sequence	interval	dot	NaN	NaN	NaN	NaN	NaN	NaN	NaN	NaN	NaN	NaN	NaN	NaN
1053.7496714	8.5218	sub-28	1	sequence	delay	dot	NaN	NaN	NaN	NaN	NaN	NaN	NaN	NaN	NaN	NaN	NaN	NaN
1062.2523839000005	1.0219	sub-28	1	sequence	choice	choice	right	NaN	NaN	0.9997594999995272	True	NaN	NaN	right	True	3.0	5.0	5.0
1063.274442	0.5001	sub-28	1	sequence	feedback	NaN	NaN	NaN	NaN	NaN	NaN	NaN	NaN	NaN	NaN	NaN	NaN	NaN
1063.7746319000007	1.0007	sub-28	1	sequence	cue	Gesicht	NaN	NaN	NaN	NaN	NaN	NaN	NaN	NaN	NaN	NaN	NaN	NaN
1064.7752956000004	2.0016	sub-28	1	sequence	blank	blank	NaN	NaN	NaN	NaN	NaN	NaN	NaN	NaN	NaN	NaN	NaN	NaN
1066.7769074000007	0.3003	sub-28	1	sequence	fixation	dot	NaN	NaN	NaN	NaN	NaN	NaN	NaN	NaN	NaN	NaN	NaN	NaN
1067.0956413000004	0.115	sub-28	1	sequence	stimulus	Haus	NaN	NaN	512.0	NaN	NaN	2.0	1.0	NaN	NaN	NaN	NaN	NaN
1067.2106297	0.5173	sub-28	1	sequence	interval	dot	NaN	NaN	NaN	NaN	NaN	NaN	NaN	NaN	NaN	NaN	NaN	NaN
1067.7278873000005	0.0999	sub-28	1	sequence	stimulus	Stuhl	NaN	NaN	512.0	NaN	NaN	5.0	2.0	NaN	NaN	NaN	NaN	NaN
1067.8278194000004	0.5172	sub-28	1	sequence	interval	dot	NaN	NaN	NaN	NaN	NaN	NaN	NaN	NaN	NaN	NaN	NaN	NaN
1068.3450486000002	0.0999	sub-28	1	sequence	stimulus	Gesicht	NaN	NaN	512.0	NaN	NaN	1.0	3.0	NaN	NaN	NaN	NaN	NaN
1068.4449924	0.5172	sub-28	1	sequence	interval	dot	NaN	NaN	NaN	NaN	NaN	NaN	NaN	NaN	NaN	NaN	NaN	NaN
1068.9622007000007	0.1	sub-28	1	sequence	stimulus	Schuh	NaN	NaN	512.0	NaN	NaN	4.0	4.0	NaN	NaN	NaN	NaN	NaN
1069.0621818	0.5154	sub-28	1	sequence	interval	dot	NaN	NaN	NaN	NaN	NaN	NaN	NaN	NaN	NaN	NaN	NaN	NaN
1069.5775840000006	0.1018	sub-28	1	sequence	stimulus	Katze	NaN	NaN	512.0	NaN	NaN	3.0	5.0	NaN	NaN	NaN	NaN	NaN
1069.6794318000002	0.5171	sub-28	1	sequence	interval	dot	NaN	NaN	NaN	NaN	NaN	NaN	NaN	NaN	NaN	NaN	NaN	NaN
1070.1965730000002	6.153	sub-28	1	sequence	delay	dot	NaN	NaN	NaN	NaN	NaN	NaN	NaN	NaN	NaN	NaN	NaN	NaN
1076.3183228000007	1.034	sub-28	1	sequence	choice	choice	right	NaN	NaN	1.0017899000004036	True	NaN	NaN	right	True	5.0	3.0	3.0
1077.3525706	0.5	sub-28	1	sequence	feedback	NaN	NaN	NaN	NaN	NaN	NaN	NaN	NaN	NaN	NaN	NaN	NaN	NaN
1081.6731424	0.4995	sub-28	1	localizer	stimulus	Schuh	NaN	0	2.468560499999512	NaN	True	NaN	NaN	NaN	NaN	NaN	NaN	NaN
1082.1560948000006	2.4686	sub-28	1	localizer	blank	interval	NaN	NaN	NaN	NaN	NaN	NaN	NaN	NaN	NaN	NaN	NaN	NaN
1084.9257984000003	0.4994	sub-28	1	localizer	stimulus	Katze	NaN	0	2.451916199999687	NaN	True	NaN	NaN	NaN	NaN	NaN	NaN	NaN
1085.4086911000004	2.4519	sub-28	1	localizer	blank	interval	NaN	NaN	NaN	NaN	NaN	NaN	NaN	NaN	NaN	NaN	NaN	NaN
1088.1618321000003	0.4995	sub-28	1	localizer	stimulus	Katze	NaN	0	2.8523154999993494	NaN	True	NaN	NaN	NaN	NaN	NaN	NaN	NaN
1088.6447731000007	2.8523	sub-28	1	localizer	blank	interval	NaN	NaN	NaN	NaN	NaN	NaN	NaN	NaN	NaN	NaN	NaN	NaN
1091.7982378000006	0.4993	sub-28	1	localizer	stimulus	Haus	NaN	180	2.485359199999948	0.6489805999999589	True	NaN	NaN	NaN	NaN	NaN	NaN	NaN
1092.2809302000005	2.4854	sub-28	1	localizer	blank	interval	NaN	NaN	NaN	NaN	NaN	NaN	NaN	NaN	NaN	NaN	NaN	NaN
1095.0673051000003	0.4996	sub-28	1	localizer	stimulus	Gesicht	NaN	0	2.23500199999944	NaN	True	NaN	NaN	NaN	NaN	NaN	NaN	NaN
1095.5502349000008	2.235	sub-28	1	localizer	blank	interval	NaN	NaN	NaN	NaN	NaN	NaN	NaN	NaN	NaN	NaN	NaN	NaN
1098.0863996000007	0.4995	sub-28	1	localizer	stimulus	Katze	NaN	0	2.6853784000004453	NaN	True	NaN	NaN	NaN	NaN	NaN	NaN	NaN
1098.5693394	2.6854	sub-28	1	localizer	blank	interval	NaN	NaN	NaN	NaN	NaN	NaN	NaN	NaN	NaN	NaN	NaN	NaN
1101.5558611000006	0.4995	sub-28	1	localizer	stimulus	Stuhl	NaN	0	2.902223000000049	NaN	True	NaN	NaN	NaN	NaN	NaN	NaN	NaN
1102.0387848	2.9022	sub-28	1	localizer	blank	interval	NaN	NaN	NaN	NaN	NaN	NaN	NaN	NaN	NaN	NaN	NaN	NaN
1105.2422014000003	0.4995	sub-28	1	localizer	stimulus	Gesicht	NaN	0	2.768741300000329	NaN	True	NaN	NaN	NaN	NaN	NaN	NaN	NaN
1105.725136	2.7687	sub-28	1	localizer	blank	interval	NaN	NaN	NaN	NaN	NaN	NaN	NaN	NaN	NaN	NaN	NaN	NaN
1108.7953518000004	0.4994	sub-28	1	localizer	stimulus	Gesicht	NaN	0	3.0691729000000123	NaN	True	NaN	NaN	NaN	NaN	NaN	NaN	NaN
1109.2781709	3.0692	sub-28	1	localizer	blank	interval	NaN	NaN	NaN	NaN	NaN	NaN	NaN	NaN	NaN	NaN	NaN	NaN
1112.6483736	0.4993	sub-28	1	localizer	stimulus	Stuhl	NaN	180	2.4018203000002813	0.4546702999996341	True	NaN	NaN	NaN	NaN	NaN	NaN	NaN
1113.1310928000005	2.4018	sub-28	1	localizer	blank	interval	NaN	NaN	NaN	NaN	NaN	NaN	NaN	NaN	NaN	NaN	NaN	NaN
1115.8341086	0.4994	sub-28	1	localizer	stimulus	Haus	NaN	0	1.7178931999997076	NaN	True	NaN	NaN	NaN	NaN	NaN	NaN	NaN
1116.3170210000008	1.7179	sub-28	1	localizer	blank	interval	NaN	NaN	NaN	NaN	NaN	NaN	NaN	NaN	NaN	NaN	NaN	NaN
1118.3360908000004	0.4995	sub-28	1	localizer	stimulus	Katze	NaN	0	2.3845758000006754	NaN	True	NaN	NaN	NaN	NaN	NaN	NaN	NaN
1118.8195697	2.3846	sub-28	1	localizer	blank	interval	NaN	NaN	NaN	NaN	NaN	NaN	NaN	NaN	NaN	NaN	NaN	NaN
1121.5053202	0.4995	sub-28	1	localizer	stimulus	Gesicht	NaN	0	2.985610399999814	NaN	True	NaN	NaN	NaN	NaN	NaN	NaN	NaN
1121.9882606	2.9856	sub-28	1	localizer	blank	interval	NaN	NaN	NaN	NaN	NaN	NaN	NaN	NaN	NaN	NaN	NaN	NaN
1125.2750292	0.4995	sub-28	1	localizer	stimulus	Schuh	NaN	0	3.502740700000004	NaN	True	NaN	NaN	NaN	NaN	NaN	NaN	NaN
1125.7579596000005	3.5027	sub-28	1	localizer	blank	interval	NaN	NaN	NaN	NaN	NaN	NaN	NaN	NaN	NaN	NaN	NaN	NaN
1129.5619823000006	0.4994	sub-28	1	localizer	stimulus	Stuhl	NaN	0	2.3184602999999697	0.3971916000000419	False	NaN	NaN	NaN	NaN	NaN	NaN	NaN
1130.0448523000005	2.3185	sub-28	1	localizer	blank	interval	NaN	NaN	NaN	NaN	NaN	NaN	NaN	NaN	NaN	NaN	NaN	NaN
1132.6645630000005	0.4995	sub-28	1	localizer	stimulus	Stuhl	NaN	0	2.034585000000561	NaN	True	NaN	NaN	NaN	NaN	NaN	NaN	NaN
