onset	duration	subject	session	condition	trial_type	stim_label	key_down	orientation	interval_time	response_time	accuracy	stim_index	serial_position	key_expected	key_pressed	choice_left	choice_right	choice_correct
1.2977431000008437	1.0918	sub-17	1	instruction	instruction	language_selection	german	NaN	NaN	NaN	NaN	NaN	NaN	NaN	NaN	NaN	NaN	NaN
36.68429640000068	0.4995	sub-17	1	localizer	stimulus	Schuh	NaN	0	2.935530199999441	0.468	0.0	NaN	NaN	NaN	NaN	NaN	NaN	NaN
37.16726460000064	2.9355	sub-17	1	localizer	blank	interval	NaN	NaN	NaN	NaN	NaN	NaN	NaN	NaN	NaN	NaN	NaN	NaN
40.40402810000069	0.4994	sub-17	1	localizer	stimulus	Stuhl	NaN	0	2.0016587000000143	NaN	True	NaN	NaN	NaN	NaN	NaN	NaN	NaN
40.88691250000011	2.0017	sub-17	1	localizer	blank	interval	NaN	NaN	NaN	NaN	NaN	NaN	NaN	NaN	NaN	NaN	NaN	NaN
43.18953050000073	0.4996	sub-17	1	localizer	stimulus	Stuhl	NaN	0	1.9516051000000516	NaN	True	NaN	NaN	NaN	NaN	NaN	NaN	NaN
43.67258650000076	1.9516	sub-17	1	localizer	blank	interval	NaN	NaN	NaN	NaN	NaN	NaN	NaN	NaN	NaN	NaN	NaN	NaN
45.92507540000042	0.4994	sub-17	1	localizer	stimulus	Katze	NaN	0	2.0014369000000443	NaN	True	NaN	NaN	NaN	NaN	NaN	NaN	NaN
46.40803750000032	2.0014	sub-17	1	localizer	blank	interval	NaN	NaN	NaN	NaN	NaN	NaN	NaN	NaN	NaN	NaN	NaN	NaN
48.71063670000058	0.4994	sub-17	1	localizer	stimulus	Haus	NaN	0	1.434454100000039	NaN	True	NaN	NaN	NaN	NaN	NaN	NaN	NaN
49.19356870000047	1.4345	sub-17	1	localizer	blank	interval	NaN	NaN	NaN	NaN	NaN	NaN	NaN	NaN	NaN	NaN	NaN	NaN
50.929112100000566	0.4994	sub-17	1	localizer	stimulus	Katze	NaN	180	3.202561899999637	0.5675	True	NaN	NaN	NaN	NaN	NaN	NaN	NaN
51.41202130000056	3.2026	sub-17	1	localizer	blank	interval	NaN	NaN	NaN	NaN	NaN	NaN	NaN	NaN	NaN	NaN	NaN	NaN
54.91577810000035	0.4997	sub-17	1	localizer	stimulus	Gesicht	NaN	0	2.084636900000085	NaN	True	NaN	NaN	NaN	NaN	NaN	NaN	NaN
55.39891970000008	2.0846	sub-17	1	localizer	blank	interval	NaN	NaN	NaN	NaN	NaN	NaN	NaN	NaN	NaN	NaN	NaN	NaN
57.78462430000036	0.4996	sub-17	1	localizer	stimulus	Gesicht	NaN	0	2.0848918000001504	NaN	True	NaN	NaN	NaN	NaN	NaN	NaN	NaN
58.26755800000046	2.0849	sub-17	1	localizer	blank	interval	NaN	NaN	NaN	NaN	NaN	NaN	NaN	NaN	NaN	NaN	NaN	NaN
60.65362670000013	0.4995	sub-17	1	localizer	stimulus	Haus	NaN	180	2.7854942999993	0.534	True	NaN	NaN	NaN	NaN	NaN	NaN	NaN
61.13668840000082	2.7855	sub-17	1	localizer	blank	interval	NaN	NaN	NaN	NaN	NaN	NaN	NaN	NaN	NaN	NaN	NaN	NaN
64.22325080000064	0.4995	sub-17	1	localizer	stimulus	Gesicht	NaN	0	3.1022845999996207	NaN	True	NaN	NaN	NaN	NaN	NaN	NaN	NaN
64.70622470000035	3.1023	sub-17	1	localizer	blank	interval	NaN	NaN	NaN	NaN	NaN	NaN	NaN	NaN	NaN	NaN	NaN	NaN
68.10967300000084	0.4995	sub-17	1	localizer	stimulus	Stuhl	NaN	180	2.1183052999995198	0.5174	True	NaN	NaN	NaN	NaN	NaN	NaN	NaN
68.59255520000079	2.1183	sub-17	1	localizer	blank	interval	NaN	NaN	NaN	NaN	NaN	NaN	NaN	NaN	NaN	NaN	NaN	NaN
71.01202720000038	0.4995	sub-17	1	localizer	stimulus	Haus	NaN	0	2.168434800000796	NaN	True	NaN	NaN	NaN	NaN	NaN	NaN	NaN
71.49493110000003	2.1684	sub-17	1	localizer	blank	interval	NaN	NaN	NaN	NaN	NaN	NaN	NaN	NaN	NaN	NaN	NaN	NaN
73.96438460000081	0.4996	sub-17	1	localizer	stimulus	Haus	NaN	0	3.419184399999722	NaN	True	NaN	NaN	NaN	NaN	NaN	NaN	NaN
74.44744640000044	3.4192	sub-17	1	localizer	blank	interval	NaN	NaN	NaN	NaN	NaN	NaN	NaN	NaN	NaN	NaN	NaN	NaN
78.16779730000053	0.4994	sub-17	1	localizer	stimulus	Stuhl	NaN	0	2.802150700000311	NaN	True	NaN	NaN	NaN	NaN	NaN	NaN	NaN
78.6507044	2.8022	sub-17	1	localizer	blank	interval	NaN	NaN	NaN	NaN	NaN	NaN	NaN	NaN	NaN	NaN	NaN	NaN
81.75402210000084	0.4995	sub-17	1	localizer	stimulus	Gesicht	NaN	180	3.235968299999513	0.5841	True	NaN	NaN	NaN	NaN	NaN	NaN	NaN
82.23693570000069	3.236	sub-17	1	localizer	blank	interval	NaN	NaN	NaN	NaN	NaN	NaN	NaN	NaN	NaN	NaN	NaN	NaN
85.77396820000013	0.4996	sub-17	1	localizer	stimulus	Katze	NaN	0	2.468369399999574	NaN	True	NaN	NaN	NaN	NaN	NaN	NaN	NaN
86.25702190000084	2.4684	sub-17	1	localizer	blank	interval	NaN	NaN	NaN	NaN	NaN	NaN	NaN	NaN	NaN	NaN	NaN	NaN
89.02657610000006	0.4995	sub-17	1	localizer	stimulus	Katze	NaN	0	1.901415399999678	NaN	True	NaN	NaN	NaN	NaN	NaN	NaN	NaN
89.50949290000062	1.9014	sub-17	1	localizer	blank	interval	NaN	NaN	NaN	NaN	NaN	NaN	NaN	NaN	NaN	NaN	NaN	NaN
91.71222510000008	0.4994	sub-17	1	localizer	stimulus	Schuh	NaN	0	2.4519999000003594	NaN	True	NaN	NaN	NaN	NaN	NaN	NaN	NaN
92.19509970000036	2.452	sub-17	1	localizer	blank	interval	NaN	NaN	NaN	NaN	NaN	NaN	NaN	NaN	NaN	NaN	NaN	NaN
94.9481082000002	0.4996	sub-17	1	localizer	stimulus	Katze	NaN	0	2.601759600000136	NaN	True	NaN	NaN	NaN	NaN	NaN	NaN	NaN
95.43116650000049	2.6018	sub-17	1	localizer	blank	interval	NaN	NaN	NaN	NaN	NaN	NaN	NaN	NaN	NaN	NaN	NaN	NaN
98.3341132000005	0.4995	sub-17	1	localizer	stimulus	Stuhl	NaN	0	2.968928199999908	NaN	True	NaN	NaN	NaN	NaN	NaN	NaN	NaN
98.8170280000004	2.9689	sub-17	1	localizer	blank	interval	NaN	NaN	NaN	NaN	NaN	NaN	NaN	NaN	NaN	NaN	NaN	NaN
102.08725810000033	0.4993	sub-17	1	localizer	stimulus	Schuh	NaN	180	3.3360734999996566	0.7006	True	NaN	NaN	NaN	NaN	NaN	NaN	NaN
102.57006270000056	3.3361	sub-17	1	localizer	blank	interval	NaN	NaN	NaN	NaN	NaN	NaN	NaN	NaN	NaN	NaN	NaN	NaN
106.20717200000036	0.4996	sub-17	1	localizer	stimulus	Haus	NaN	0	2.3517670000000948	NaN	True	NaN	NaN	NaN	NaN	NaN	NaN	NaN
106.6902022000004	2.3518	sub-17	1	localizer	blank	interval	NaN	NaN	NaN	NaN	NaN	NaN	NaN	NaN	NaN	NaN	NaN	NaN
109.34309070000018	0.4994	sub-17	1	localizer	stimulus	Schuh	NaN	0	2.7521151999999205	NaN	True	NaN	NaN	NaN	NaN	NaN	NaN	NaN
109.82605280000008	2.7521	sub-17	1	localizer	blank	interval	NaN	NaN	NaN	NaN	NaN	NaN	NaN	NaN	NaN	NaN	NaN	NaN
112.87924890000068	0.4996	sub-17	1	localizer	stimulus	Gesicht	NaN	0	2.835470899999578	NaN	True	NaN	NaN	NaN	NaN	NaN	NaN	NaN
113.36237670000082	2.8355	sub-17	1	localizer	blank	interval	NaN	NaN	NaN	NaN	NaN	NaN	NaN	NaN	NaN	NaN	NaN	NaN
116.49897750000036	0.4993	sub-17	1	localizer	stimulus	Schuh	NaN	0	2.618639799999997	NaN	True	NaN	NaN	NaN	NaN	NaN	NaN	NaN
116.98172040000009	2.6186	sub-17	1	localizer	blank	interval	NaN	NaN	NaN	NaN	NaN	NaN	NaN	NaN	NaN	NaN	NaN	NaN
123.0868747000004	1.0005	sub-17	1	sequence	cue	Katze	NaN	NaN	NaN	NaN	NaN	NaN	NaN	NaN	NaN	NaN	NaN	NaN
124.08740140000008	2.0018	sub-17	1	sequence	blank	blank	NaN	NaN	NaN	NaN	NaN	NaN	NaN	NaN	NaN	NaN	NaN	NaN
126.0892257000005	0.3004	sub-17	1	sequence	fixation	dot	NaN	NaN	NaN	NaN	NaN	NaN	NaN	NaN	NaN	NaN	NaN	NaN
126.43765900000017	0.1019	sub-17	1	sequence	stimulus	Schuh	NaN	NaN	64.0	NaN	NaN	4.0	1.0	NaN	NaN	NaN	NaN	NaN
126.53953790000014	0.0669	sub-17	1	sequence	interval	dot	NaN	NaN	NaN	NaN	NaN	NaN	NaN	NaN	NaN	NaN	NaN	NaN
126.6064780000006	0.0999	sub-17	1	sequence	stimulus	Stuhl	NaN	NaN	64.0	NaN	NaN	5.0	2.0	NaN	NaN	NaN	NaN	NaN
126.70633400000042	0.0668	sub-17	1	sequence	interval	dot	NaN	NaN	NaN	NaN	NaN	NaN	NaN	NaN	NaN	NaN	NaN	NaN
126.77314990000012	0.1001	sub-17	1	sequence	stimulus	Gesicht	NaN	NaN	64.0	NaN	NaN	1.0	3.0	NaN	NaN	NaN	NaN	NaN
126.87323580000066	0.0668	sub-17	1	sequence	interval	dot	NaN	NaN	NaN	NaN	NaN	NaN	NaN	NaN	NaN	NaN	NaN	NaN
126.94001370000024	0.0999	sub-17	1	sequence	stimulus	Haus	NaN	NaN	64.0	NaN	NaN	2.0	4.0	NaN	NaN	NaN	NaN	NaN
127.03993050000008	0.0669	sub-17	1	sequence	interval	dot	NaN	NaN	NaN	NaN	NaN	NaN	NaN	NaN	NaN	NaN	NaN	NaN
127.10686700000042	0.1	sub-17	1	sequence	stimulus	Katze	NaN	NaN	64.0	NaN	NaN	3.0	5.0	NaN	NaN	NaN	NaN	NaN
127.2068244000002	0.0666	sub-17	1	sequence	interval	dot	NaN	NaN	NaN	NaN	NaN	NaN	NaN	NaN	NaN	NaN	NaN	NaN
127.27339770000071	8.3884	sub-17	1	sequence	delay	dot	NaN	NaN	NaN	NaN	NaN	NaN	NaN	NaN	NaN	NaN	NaN	NaN
135.64283810000052	0.6384	sub-17	1	sequence	choice	choice	right	NaN	NaN	0.6205	True	NaN	NaN	right	1.0	2.0	5.0	5.0
136.28146730000026	0.4998	sub-17	1	sequence	feedback	NaN	NaN	NaN	NaN	NaN	NaN	NaN	NaN	NaN	NaN	NaN	NaN	NaN
136.78153400000065	1.0003	sub-17	1	sequence	cue	Stuhl	NaN	NaN	NaN	NaN	NaN	NaN	NaN	NaN	NaN	NaN	NaN	NaN
137.7817961000001	2.0016	sub-17	1	sequence	blank	blank	NaN	NaN	NaN	NaN	NaN	NaN	NaN	NaN	NaN	NaN	NaN	NaN
139.78341480000017	0.3004	sub-17	1	sequence	fixation	dot	NaN	NaN	NaN	NaN	NaN	NaN	NaN	NaN	NaN	NaN	NaN	NaN
140.1013571000003	0.0992	sub-17	1	sequence	stimulus	Gesicht	NaN	NaN	512.0	NaN	NaN	1.0	1.0	NaN	NaN	NaN	NaN	NaN
140.2005222000007	0.5175	sub-17	1	sequence	interval	dot	NaN	NaN	NaN	NaN	NaN	NaN	NaN	NaN	NaN	NaN	NaN	NaN
140.71797630000037	0.0996	sub-17	1	sequence	stimulus	Schuh	NaN	NaN	512.0	NaN	NaN	4.0	2.0	NaN	NaN	NaN	NaN	NaN
140.81759090000014	0.5173	sub-17	1	sequence	interval	dot	NaN	NaN	NaN	NaN	NaN	NaN	NaN	NaN	NaN	NaN	NaN	NaN
141.3348416000008	0.1	sub-17	1	sequence	stimulus	Katze	NaN	NaN	512.0	NaN	NaN	3.0	3.0	NaN	NaN	NaN	NaN	NaN
141.43484200000057	0.5172	sub-17	1	sequence	interval	dot	NaN	NaN	NaN	NaN	NaN	NaN	NaN	NaN	NaN	NaN	NaN	NaN
141.95202980000067	0.1	sub-17	1	sequence	stimulus	Stuhl	NaN	NaN	512.0	NaN	NaN	5.0	4.0	NaN	NaN	NaN	NaN	NaN
142.05204030000004	0.5172	sub-17	1	sequence	interval	dot	NaN	NaN	NaN	NaN	NaN	NaN	NaN	NaN	NaN	NaN	NaN	NaN
142.56924120000076	0.0999	sub-17	1	sequence	stimulus	Haus	NaN	NaN	512.0	NaN	NaN	2.0	5.0	NaN	NaN	NaN	NaN	NaN
142.66913000000022	0.5171	sub-17	1	sequence	interval	dot	NaN	NaN	NaN	NaN	NaN	NaN	NaN	NaN	NaN	NaN	NaN	NaN
143.18627360000028	6.1533	sub-17	1	sequence	delay	dot	NaN	NaN	NaN	NaN	NaN	NaN	NaN	NaN	NaN	NaN	NaN	NaN
149.3184927000002	0.6074	sub-17	1	sequence	choice	choice	left	NaN	NaN	0.5883	True	NaN	NaN	left	True	4.0	5.0	4.0
149.92619490000016	0.4996	sub-17	1	sequence	feedback	NaN	NaN	NaN	NaN	NaN	NaN	NaN	NaN	NaN	NaN	NaN	NaN	NaN
150.4259361000004	1.0004	sub-17	1	sequence	cue	Schuh	NaN	NaN	NaN	NaN	NaN	NaN	NaN	NaN	NaN	NaN	NaN	NaN
151.42638720000014	2.0022	sub-17	1	sequence	blank	blank	NaN	NaN	NaN	NaN	NaN	NaN	NaN	NaN	NaN	NaN	NaN	NaN
153.42863770000076	0.2997	sub-17	1	sequence	fixation	dot	NaN	NaN	NaN	NaN	NaN	NaN	NaN	NaN	NaN	NaN	NaN	NaN
153.76199010000073	0.0997	sub-17	1	sequence	stimulus	Katze	NaN	NaN	64.0	NaN	NaN	3.0	1.0	NaN	NaN	NaN	NaN	NaN
153.86171040000045	0.0669	sub-17	1	sequence	interval	dot	NaN	NaN	NaN	NaN	NaN	NaN	NaN	NaN	NaN	NaN	NaN	NaN
153.92861410000023	0.1	sub-17	1	sequence	stimulus	Gesicht	NaN	NaN	64.0	NaN	NaN	1.0	2.0	NaN	NaN	NaN	NaN	NaN
154.02861030000076	0.0668	sub-17	1	sequence	interval	dot	NaN	NaN	NaN	NaN	NaN	NaN	NaN	NaN	NaN	NaN	NaN	NaN
154.09540170000037	0.1	sub-17	1	sequence	stimulus	Haus	NaN	NaN	64.0	NaN	NaN	2.0	3.0	NaN	NaN	NaN	NaN	NaN
154.19540400000005	0.0668	sub-17	1	sequence	interval	dot	NaN	NaN	NaN	NaN	NaN	NaN	NaN	NaN	NaN	NaN	NaN	NaN
154.26221250000071	0.0999	sub-17	1	sequence	stimulus	Schuh	NaN	NaN	64.0	NaN	NaN	4.0	4.0	NaN	NaN	NaN	NaN	NaN
154.36212950000026	0.0668	sub-17	1	sequence	interval	dot	NaN	NaN	NaN	NaN	NaN	NaN	NaN	NaN	NaN	NaN	NaN	NaN
154.4289557000002	0.0999	sub-17	1	sequence	stimulus	Stuhl	NaN	NaN	64.0	NaN	NaN	5.0	5.0	NaN	NaN	NaN	NaN	NaN
154.5288941000008	0.0667	sub-17	1	sequence	interval	dot	NaN	NaN	NaN	NaN	NaN	NaN	NaN	NaN	NaN	NaN	NaN	NaN
154.59564330000012	8.3882	sub-17	1	sequence	delay	dot	NaN	NaN	NaN	NaN	NaN	NaN	NaN	NaN	NaN	NaN	NaN	NaN
162.9682242000008	0.6357	sub-17	1	sequence	choice	choice	right	NaN	NaN	0.622	True	NaN	NaN	right	True	3.0	4.0	4.0
163.60425530000066	0.4992	sub-17	1	sequence	feedback	NaN	NaN	NaN	NaN	NaN	NaN	NaN	NaN	NaN	NaN	NaN	NaN	NaN
164.10371040000064	1.0006	sub-17	1	sequence	cue	Katze	NaN	NaN	NaN	NaN	NaN	NaN	NaN	NaN	NaN	NaN	NaN	NaN
165.10432949999995	2.0013	sub-17	1	sequence	blank	blank	NaN	NaN	NaN	NaN	NaN	NaN	NaN	NaN	NaN	NaN	NaN	NaN
167.1056378000003	0.3002	sub-17	1	sequence	fixation	dot	NaN	NaN	NaN	NaN	NaN	NaN	NaN	NaN	NaN	NaN	NaN	NaN
167.43930290000026	0.1	sub-17	1	sequence	stimulus	Stuhl	NaN	NaN	128.0	NaN	NaN	5.0	1.0	NaN	NaN	NaN	NaN	NaN
167.53927720000047	0.1338	sub-17	1	sequence	interval	dot	NaN	NaN	NaN	NaN	NaN	NaN	NaN	NaN	NaN	NaN	NaN	NaN
167.6730275	0.0999	sub-17	1	sequence	stimulus	Schuh	NaN	NaN	128.0	NaN	NaN	4.0	2.0	NaN	NaN	NaN	NaN	NaN
167.7729736000001	0.1335	sub-17	1	sequence	interval	dot	NaN	NaN	NaN	NaN	NaN	NaN	NaN	NaN	NaN	NaN	NaN	NaN
167.90651770000022	0.1	sub-17	1	sequence	stimulus	Gesicht	NaN	NaN	128.0	NaN	NaN	1.0	3.0	NaN	NaN	NaN	NaN	NaN
168.0065093000003	0.1336	sub-17	1	sequence	interval	dot	NaN	NaN	NaN	NaN	NaN	NaN	NaN	NaN	NaN	NaN	NaN	NaN
168.14011260000007	0.0999	sub-17	1	sequence	stimulus	Katze	NaN	NaN	128.0	NaN	NaN	3.0	4.0	NaN	NaN	NaN	NaN	NaN
168.2400376000005	0.1335	sub-17	1	sequence	interval	dot	NaN	NaN	NaN	NaN	NaN	NaN	NaN	NaN	NaN	NaN	NaN	NaN
168.37356270000055	0.1	sub-17	1	sequence	stimulus	Haus	NaN	NaN	128.0	NaN	NaN	2.0	5.0	NaN	NaN	NaN	NaN	NaN
168.47352040000078	0.1335	sub-17	1	sequence	interval	dot	NaN	NaN	NaN	NaN	NaN	NaN	NaN	NaN	NaN	NaN	NaN	NaN
168.60700680000082	8.0549	sub-17	1	sequence	delay	dot	NaN	NaN	NaN	NaN	NaN	NaN	NaN	NaN	NaN	NaN	NaN	NaN
176.64394410000023	0.5872	sub-17	1	sequence	choice	choice	right	NaN	NaN	0.571	True	NaN	NaN	right	True	5.0	4.0	4.0
177.23143590000018	0.4997	sub-17	1	sequence	feedback	NaN	NaN	NaN	NaN	NaN	NaN	NaN	NaN	NaN	NaN	NaN	NaN	NaN
177.73137000000042	1.0004	sub-17	1	sequence	cue	Stuhl	NaN	NaN	NaN	NaN	NaN	NaN	NaN	NaN	NaN	NaN	NaN	NaN
178.73176390000026	2.0016	sub-17	1	sequence	blank	blank	NaN	NaN	NaN	NaN	NaN	NaN	NaN	NaN	NaN	NaN	NaN	NaN
180.73333020000064	0.3002	sub-17	1	sequence	fixation	dot	NaN	NaN	NaN	NaN	NaN	NaN	NaN	NaN	NaN	NaN	NaN	NaN
181.0661179000008	0.1009	sub-17	1	sequence	stimulus	Katze	NaN	NaN	128.0	NaN	NaN	3.0	1.0	NaN	NaN	NaN	NaN	NaN
181.16698670000005	0.1336	sub-17	1	sequence	interval	dot	NaN	NaN	NaN	NaN	NaN	NaN	NaN	NaN	NaN	NaN	NaN	NaN
181.30053840000076	0.1	sub-17	1	sequence	stimulus	Haus	NaN	NaN	128.0	NaN	NaN	2.0	2.0	NaN	NaN	NaN	NaN	NaN
181.40051480000056	0.1335	sub-17	1	sequence	interval	dot	NaN	NaN	NaN	NaN	NaN	NaN	NaN	NaN	NaN	NaN	NaN	NaN
181.5340302000004	0.1	sub-17	1	sequence	stimulus	Stuhl	NaN	NaN	128.0	NaN	NaN	5.0	3.0	NaN	NaN	NaN	NaN	NaN
181.63401340000016	0.1336	sub-17	1	sequence	interval	dot	NaN	NaN	NaN	NaN	NaN	NaN	NaN	NaN	NaN	NaN	NaN	NaN
181.7675708000006	0.1	sub-17	1	sequence	stimulus	Schuh	NaN	NaN	128.0	NaN	NaN	4.0	4.0	NaN	NaN	NaN	NaN	NaN
181.86753750000025	0.1334	sub-17	1	sequence	interval	dot	NaN	NaN	NaN	NaN	NaN	NaN	NaN	NaN	NaN	NaN	NaN	NaN
182.0009790000004	0.1	sub-17	1	sequence	stimulus	Gesicht	NaN	NaN	128.0	NaN	NaN	1.0	5.0	NaN	NaN	NaN	NaN	NaN
182.1009602000004	0.1334	sub-17	1	sequence	interval	dot	NaN	NaN	NaN	NaN	NaN	NaN	NaN	NaN	NaN	NaN	NaN	NaN
182.2343862000007	8.0717	sub-17	1	sequence	delay	dot	NaN	NaN	NaN	NaN	NaN	NaN	NaN	NaN	NaN	NaN	NaN	NaN
190.2936432000006	0.6485	sub-17	1	sequence	choice	choice	left	NaN	NaN	0.6378	True	NaN	NaN	left	True	3.0	5.0	3.0
190.9424113000005	0.5	sub-17	1	sequence	feedback	NaN	NaN	NaN	NaN	NaN	NaN	NaN	NaN	NaN	NaN	NaN	NaN	NaN
191.4426542000001	1.0002	sub-17	1	sequence	cue	Katze	NaN	NaN	NaN	NaN	NaN	NaN	NaN	NaN	NaN	NaN	NaN	NaN
192.4428844000004	2.0017	sub-17	1	sequence	blank	blank	NaN	NaN	NaN	NaN	NaN	NaN	NaN	NaN	NaN	NaN	NaN	NaN
194.44462890000068	0.3002	sub-17	1	sequence	fixation	dot	NaN	NaN	NaN	NaN	NaN	NaN	NaN	NaN	NaN	NaN	NaN	NaN
194.76291990000027	0.1152	sub-17	1	sequence	stimulus	Stuhl	NaN	NaN	512.0	NaN	NaN	5.0	1.0	NaN	NaN	NaN	NaN	NaN
194.8781355000001	0.5172	sub-17	1	sequence	interval	dot	NaN	NaN	NaN	NaN	NaN	NaN	NaN	NaN	NaN	NaN	NaN	NaN
195.39536730000052	0.0998	sub-17	1	sequence	stimulus	Schuh	NaN	NaN	512.0	NaN	NaN	4.0	2.0	NaN	NaN	NaN	NaN	NaN
195.49521340000047	0.5172	sub-17	1	sequence	interval	dot	NaN	NaN	NaN	NaN	NaN	NaN	NaN	NaN	NaN	NaN	NaN	NaN
196.0124110000006	0.1	sub-17	1	sequence	stimulus	Gesicht	NaN	NaN	512.0	NaN	NaN	1.0	3.0	NaN	NaN	NaN	NaN	NaN
196.1123850000004	0.5173	sub-17	1	sequence	interval	dot	NaN	NaN	NaN	NaN	NaN	NaN	NaN	NaN	NaN	NaN	NaN	NaN
196.6296908000004	0.1001	sub-17	1	sequence	stimulus	Haus	NaN	NaN	512.0	NaN	NaN	2.0	4.0	NaN	NaN	NaN	NaN	NaN
196.72976840000047	0.5172	sub-17	1	sequence	interval	dot	NaN	NaN	NaN	NaN	NaN	NaN	NaN	NaN	NaN	NaN	NaN	NaN
197.24697860000012	0.0998	sub-17	1	sequence	stimulus	Katze	NaN	NaN	512.0	NaN	NaN	3.0	5.0	NaN	NaN	NaN	NaN	NaN
197.34677460000057	0.5169	sub-17	1	sequence	interval	dot	NaN	NaN	NaN	NaN	NaN	NaN	NaN	NaN	NaN	NaN	NaN	NaN
197.86370700000043	6.1536	sub-17	1	sequence	delay	dot	NaN	NaN	NaN	NaN	NaN	NaN	NaN	NaN	NaN	NaN	NaN	NaN
203.9953464	0.7246	sub-17	1	sequence	choice	choice	left	NaN	NaN	0.7044	True	NaN	NaN	left	True	5.0	4.0	5.0
204.7201984000003	0.4997	sub-17	1	sequence	feedback	NaN	NaN	NaN	NaN	NaN	NaN	NaN	NaN	NaN	NaN	NaN	NaN	NaN
205.2201582000007	1.0005	sub-17	1	sequence	cue	Stuhl	NaN	NaN	NaN	NaN	NaN	NaN	NaN	NaN	NaN	NaN	NaN	NaN
206.2206701000005	2.0014	sub-17	1	sequence	blank	blank	NaN	NaN	NaN	NaN	NaN	NaN	NaN	NaN	NaN	NaN	NaN	NaN
208.2221154000008	0.3003	sub-17	1	sequence	fixation	dot	NaN	NaN	NaN	NaN	NaN	NaN	NaN	NaN	NaN	NaN	NaN	NaN
208.5407720000003	0.1153	sub-17	1	sequence	stimulus	Schuh	NaN	NaN	32.0	NaN	NaN	4.0	1.0	NaN	NaN	NaN	NaN	NaN
208.65604040000017	0.0336	sub-17	1	sequence	interval	dot	NaN	NaN	NaN	NaN	NaN	NaN	NaN	NaN	NaN	NaN	NaN	NaN
208.68968900000075	0.0996	sub-17	1	sequence	stimulus	Stuhl	NaN	NaN	32.0	NaN	NaN	5.0	2.0	NaN	NaN	NaN	NaN	NaN
208.78926150000007	0.0335	sub-17	1	sequence	interval	dot	NaN	NaN	NaN	NaN	NaN	NaN	NaN	NaN	NaN	NaN	NaN	NaN
208.8227695000005	0.1	sub-17	1	sequence	stimulus	Katze	NaN	NaN	32.0	NaN	NaN	3.0	3.0	NaN	NaN	NaN	NaN	NaN
208.92274200000065	0.0335	sub-17	1	sequence	interval	dot	NaN	NaN	NaN	NaN	NaN	NaN	NaN	NaN	NaN	NaN	NaN	NaN
208.95624270000008	0.0999	sub-17	1	sequence	stimulus	Gesicht	NaN	NaN	32.0	NaN	NaN	1.0	4.0	NaN	NaN	NaN	NaN	NaN
209.0561118000005	0.0336	sub-17	1	sequence	interval	dot	NaN	NaN	NaN	NaN	NaN	NaN	NaN	NaN	NaN	NaN	NaN	NaN
209.08974390000003	0.1	sub-17	1	sequence	stimulus	Haus	NaN	NaN	32.0	NaN	NaN	2.0	5.0	NaN	NaN	NaN	NaN	NaN
209.1897175000004	0.0333	sub-17	1	sequence	interval	dot	NaN	NaN	NaN	NaN	NaN	NaN	NaN	NaN	NaN	NaN	NaN	NaN
209.2230458000004	8.522	sub-17	1	sequence	delay	dot	NaN	NaN	NaN	NaN	NaN	NaN	NaN	NaN	NaN	NaN	NaN	NaN
217.72305100000085	0.6913	sub-17	1	sequence	choice	choice	left	NaN	NaN	0.671	True	NaN	NaN	left	True	2.0	4.0	2.0
218.41462590000083	0.4999	sub-17	1	sequence	feedback	NaN	NaN	NaN	NaN	NaN	NaN	NaN	NaN	NaN	NaN	NaN	NaN	NaN
218.9147457000008	1.0003	sub-17	1	sequence	cue	Haus	NaN	NaN	NaN	NaN	NaN	NaN	NaN	NaN	NaN	NaN	NaN	NaN
219.9150892000007	2.0016	sub-17	1	sequence	blank	blank	NaN	NaN	NaN	NaN	NaN	NaN	NaN	NaN	NaN	NaN	NaN	NaN
221.91668819999995	0.3003	sub-17	1	sequence	fixation	dot	NaN	NaN	NaN	NaN	NaN	NaN	NaN	NaN	NaN	NaN	NaN	NaN
222.2491155000007	0.1011	sub-17	1	sequence	stimulus	Stuhl	NaN	NaN	32.0	NaN	NaN	5.0	1.0	NaN	NaN	NaN	NaN	NaN
222.35023249999995	0.0337	sub-17	1	sequence	interval	dot	NaN	NaN	NaN	NaN	NaN	NaN	NaN	NaN	NaN	NaN	NaN	NaN
222.38389180000013	0.0998	sub-17	1	sequence	stimulus	Gesicht	NaN	NaN	32.0	NaN	NaN	1.0	2.0	NaN	NaN	NaN	NaN	NaN
222.48372330000075	0.0335	sub-17	1	sequence	interval	dot	NaN	NaN	NaN	NaN	NaN	NaN	NaN	NaN	NaN	NaN	NaN	NaN
222.5171761000001	0.1	sub-17	1	sequence	stimulus	Katze	NaN	NaN	32.0	NaN	NaN	3.0	3.0	NaN	NaN	NaN	NaN	NaN
222.61718870000004	0.0335	sub-17	1	sequence	interval	dot	NaN	NaN	NaN	NaN	NaN	NaN	NaN	NaN	NaN	NaN	NaN	NaN
222.6506420000005	0.1	sub-17	1	sequence	stimulus	Schuh	NaN	NaN	32.0	NaN	NaN	4.0	4.0	NaN	NaN	NaN	NaN	NaN
222.75065220000036	0.0335	sub-17	1	sequence	interval	dot	NaN	NaN	NaN	NaN	NaN	NaN	NaN	NaN	NaN	NaN	NaN	NaN
222.7841113000004	0.1	sub-17	1	sequence	stimulus	Haus	NaN	NaN	32.0	NaN	NaN	2.0	5.0	NaN	NaN	NaN	NaN	NaN
222.8840953000008	0.0334	sub-17	1	sequence	interval	dot	NaN	NaN	NaN	NaN	NaN	NaN	NaN	NaN	NaN	NaN	NaN	NaN
222.91746880000028	8.522	sub-17	1	sequence	delay	dot	NaN	NaN	NaN	NaN	NaN	NaN	NaN	NaN	NaN	NaN	NaN	NaN
231.42478680000025	0.6174	sub-17	1	sequence	choice	choice	right	NaN	NaN	0.6046	True	NaN	NaN	right	True	4.0	5.0	5.0
232.0424199000008	0.4997	sub-17	1	sequence	feedback	NaN	NaN	NaN	NaN	NaN	NaN	NaN	NaN	NaN	NaN	NaN	NaN	NaN
236.36261170000037	0.4996	sub-17	1	localizer	stimulus	Gesicht	NaN	0	1.7011314000000937	NaN	True	NaN	NaN	NaN	NaN	NaN	NaN	NaN
236.84560220000003	1.7011	sub-17	1	localizer	blank	interval	NaN	NaN	NaN	NaN	NaN	NaN	NaN	NaN	NaN	NaN	NaN	NaN
238.84774770000055	0.4995	sub-17	1	localizer	stimulus	Schuh	NaN	0	2.3685073999995723	NaN	True	NaN	NaN	NaN	NaN	NaN	NaN	NaN
239.33081100000072	2.3685	sub-17	1	localizer	blank	interval	NaN	NaN	NaN	NaN	NaN	NaN	NaN	NaN	NaN	NaN	NaN	NaN
242.00032890000057	0.4996	sub-17	1	localizer	stimulus	Katze	NaN	0	2.4185295999996015	NaN	True	NaN	NaN	NaN	NaN	NaN	NaN	NaN
242.4832677000004	2.4185	sub-17	1	localizer	blank	interval	NaN	NaN	NaN	NaN	NaN	NaN	NaN	NaN	NaN	NaN	NaN	NaN
245.2028955000005	0.4996	sub-17	1	localizer	stimulus	Katze	NaN	0	2.318562899999961	NaN	True	NaN	NaN	NaN	NaN	NaN	NaN	NaN
245.68584520000056	2.3186	sub-17	1	localizer	blank	interval	NaN	NaN	NaN	NaN	NaN	NaN	NaN	NaN	NaN	NaN	NaN	NaN
248.30547710000064	0.4996	sub-17	1	localizer	stimulus	Haus	NaN	0	2.9524818000000153	NaN	True	NaN	NaN	NaN	NaN	NaN	NaN	NaN
248.78842990000064	2.9525	sub-17	1	localizer	blank	interval	NaN	NaN	NaN	NaN	NaN	NaN	NaN	NaN	NaN	NaN	NaN	NaN
252.04184500000065	0.4996	sub-17	1	localizer	stimulus	Haus	NaN	180	1.7346956999999463	0.5006	True	NaN	NaN	NaN	NaN	NaN	NaN	NaN
252.52503070000057	1.7347	sub-17	1	localizer	blank	interval	NaN	NaN	NaN	NaN	NaN	NaN	NaN	NaN	NaN	NaN	NaN	NaN
254.56068660000076	0.4998	sub-17	1	localizer	stimulus	Katze	NaN	0	2.0678916999995636	NaN	True	NaN	NaN	NaN	NaN	NaN	NaN	NaN
255.04392590000043	2.0679	sub-17	1	localizer	blank	interval	NaN	NaN	NaN	NaN	NaN	NaN	NaN	NaN	NaN	NaN	NaN	NaN
257.4130122000006	0.4994	sub-17	1	localizer	stimulus	Gesicht	NaN	180	2.101394700000128	0.5673	True	NaN	NaN	NaN	NaN	NaN	NaN	NaN
257.8958982000004	2.1014	sub-17	1	localizer	blank	interval	NaN	NaN	NaN	NaN	NaN	NaN	NaN	NaN	NaN	NaN	NaN	NaN
260.2984613000008	0.4996	sub-17	1	localizer	stimulus	Haus	NaN	0	2.4185152000000016	NaN	True	NaN	NaN	NaN	NaN	NaN	NaN	NaN
260.7814229000005	2.4185	sub-17	1	localizer	blank	interval	NaN	NaN	NaN	NaN	NaN	NaN	NaN	NaN	NaN	NaN	NaN	NaN
263.5011836000004	0.4995	sub-17	1	localizer	stimulus	Stuhl	NaN	180	1.8513756000002672	0.4676	True	NaN	NaN	NaN	NaN	NaN	NaN	NaN
263.9839670000001	1.8514	sub-17	1	localizer	blank	interval	NaN	NaN	NaN	NaN	NaN	NaN	NaN	NaN	NaN	NaN	NaN	NaN
266.1364730000005	0.4995	sub-17	1	localizer	stimulus	Stuhl	NaN	0	2.501907800000481	NaN	True	NaN	NaN	NaN	NaN	NaN	NaN	NaN
266.61943880000035	2.5019	sub-17	1	localizer	blank	interval	NaN	NaN	NaN	NaN	NaN	NaN	NaN	NaN	NaN	NaN	NaN	NaN
269.4225311	0.4996	sub-17	1	localizer	stimulus	Gesicht	NaN	0	2.9858808999996995	NaN	True	NaN	NaN	NaN	NaN	NaN	NaN	NaN
269.9054539000008	2.9859	sub-17	1	localizer	blank	interval	NaN	NaN	NaN	NaN	NaN	NaN	NaN	NaN	NaN	NaN	NaN	NaN
273.1929903	0.4989	sub-17	1	localizer	stimulus	Katze	NaN	0	2.45198259999961	NaN	True	NaN	NaN	NaN	NaN	NaN	NaN	NaN
273.6753112000006	2.452	sub-17	1	localizer	blank	interval	NaN	NaN	NaN	NaN	NaN	NaN	NaN	NaN	NaN	NaN	NaN	NaN
276.42819340000005	0.4996	sub-17	1	localizer	stimulus	Schuh	NaN	0	3.052153100000396	NaN	True	NaN	NaN	NaN	NaN	NaN	NaN	NaN
276.9112937	3.0522	sub-17	1	localizer	blank	interval	NaN	NaN	NaN	NaN	NaN	NaN	NaN	NaN	NaN	NaN	NaN	NaN
280.2646241000002	0.4995	sub-17	1	localizer	stimulus	Schuh	NaN	0	2.6520325000000753	NaN	True	NaN	NaN	NaN	NaN	NaN	NaN	NaN
280.7475279	2.652	sub-17	1	localizer	blank	interval	NaN	NaN	NaN	NaN	NaN	NaN	NaN	NaN	NaN	NaN	NaN	NaN
283.7007093000002	0.4998	sub-17	1	localizer	stimulus	Gesicht	NaN	0	2.9854943000000276	NaN	True	NaN	NaN	NaN	NaN	NaN	NaN	NaN
284.18377670000064	2.9855	sub-17	1	localizer	blank	interval	NaN	NaN	NaN	NaN	NaN	NaN	NaN	NaN	NaN	NaN	NaN	NaN
287.47042880000026	0.4996	sub-17	1	localizer	stimulus	Stuhl	NaN	0	2.4016256000004432	NaN	True	NaN	NaN	NaN	NaN	NaN	NaN	NaN
287.9535394000004	2.4016	sub-17	1	localizer	blank	interval	NaN	NaN	NaN	NaN	NaN	NaN	NaN	NaN	NaN	NaN	NaN	NaN
290.6562463	0.4995	sub-17	1	localizer	stimulus	Katze	NaN	180	3.1526456000001417	0.5173	True	NaN	NaN	NaN	NaN	NaN	NaN	NaN
291.1392620000006	3.1526	sub-17	1	localizer	blank	interval	NaN	NaN	NaN	NaN	NaN	NaN	NaN	NaN	NaN	NaN	NaN	NaN
294.5929696000003	0.4998	sub-17	1	localizer	stimulus	Stuhl	NaN	0	2.5352513000007093	NaN	True	NaN	NaN	NaN	NaN	NaN	NaN	NaN
295.0760805	2.5353	sub-17	1	localizer	blank	interval	NaN	NaN	NaN	NaN	NaN	NaN	NaN	NaN	NaN	NaN	NaN	NaN
297.9124346000008	0.4995	sub-17	1	localizer	stimulus	Haus	NaN	0	2.4349867999999333	NaN	True	NaN	NaN	NaN	NaN	NaN	NaN	NaN
298.3953311000005	2.435	sub-17	1	localizer	blank	interval	NaN	NaN	NaN	NaN	NaN	NaN	NaN	NaN	NaN	NaN	NaN	NaN
301.1314702	0.4996	sub-17	1	localizer	stimulus	Schuh	NaN	180	1.9014239000007365	0.5007	True	NaN	NaN	NaN	NaN	NaN	NaN	NaN
301.6144174000001	1.9014	sub-17	1	localizer	blank	interval	NaN	NaN	NaN	NaN	NaN	NaN	NaN	NaN	NaN	NaN	NaN	NaN
303.8170017000002	0.4996	sub-17	1	localizer	stimulus	Stuhl	NaN	0	2.3516648999993777	NaN	True	NaN	NaN	NaN	NaN	NaN	NaN	NaN
304.3000150000007	2.3517	sub-17	1	localizer	blank	interval	NaN	NaN	NaN	NaN	NaN	NaN	NaN	NaN	NaN	NaN	NaN	NaN
306.9528470000005	0.4996	sub-17	1	localizer	stimulus	Schuh	NaN	0	2.8355190999991464	NaN	True	NaN	NaN	NaN	NaN	NaN	NaN	NaN
307.4359071000008	2.8355	sub-17	1	localizer	blank	interval	NaN	NaN	NaN	NaN	NaN	NaN	NaN	NaN	NaN	NaN	NaN	NaN
310.5725102000006	0.4994	sub-17	1	localizer	stimulus	Haus	NaN	0	2.5685992999997325	NaN	True	NaN	NaN	NaN	NaN	NaN	NaN	NaN
311.0554195000004	2.5686	sub-17	1	localizer	blank	interval	NaN	NaN	NaN	NaN	NaN	NaN	NaN	NaN	NaN	NaN	NaN	NaN
313.9255957000005	0.4993	sub-17	1	localizer	stimulus	Gesicht	NaN	0	2.2351413000005778	NaN	True	NaN	NaN	NaN	NaN	NaN	NaN	NaN
314.4083068	2.2351	sub-17	1	localizer	blank	interval	NaN	NaN	NaN	NaN	NaN	NaN	NaN	NaN	NaN	NaN	NaN	NaN
320.1296058000007	1.0005	sub-17	1	sequence	cue	Gesicht	NaN	NaN	NaN	NaN	NaN	NaN	NaN	NaN	NaN	NaN	NaN	NaN
321.13013020000017	2.0016	sub-17	1	sequence	blank	blank	NaN	NaN	NaN	NaN	NaN	NaN	NaN	NaN	NaN	NaN	NaN	NaN
323.13172850000046	0.3003	sub-17	1	sequence	fixation	dot	NaN	NaN	NaN	NaN	NaN	NaN	NaN	NaN	NaN	NaN	NaN	NaN
323.4509811000007	0.1145	sub-17	1	sequence	stimulus	Stuhl	NaN	NaN	128.0	NaN	NaN	5.0	1.0	NaN	NaN	NaN	NaN	NaN
323.5655011000008	0.1336	sub-17	1	sequence	interval	dot	NaN	NaN	NaN	NaN	NaN	NaN	NaN	NaN	NaN	NaN	NaN	NaN
323.6991018000008	0.1	sub-17	1	sequence	stimulus	Schuh	NaN	NaN	128.0	NaN	NaN	4.0	2.0	NaN	NaN	NaN	NaN	NaN
323.7990666000005	0.1336	sub-17	1	sequence	interval	dot	NaN	NaN	NaN	NaN	NaN	NaN	NaN	NaN	NaN	NaN	NaN	NaN
323.93264050000016	0.1	sub-17	1	sequence	stimulus	Gesicht	NaN	NaN	128.0	NaN	NaN	1.0	3.0	NaN	NaN	NaN	NaN	NaN
324.0326034	0.1336	sub-17	1	sequence	interval	dot	NaN	NaN	NaN	NaN	NaN	NaN	NaN	NaN	NaN	NaN	NaN	NaN
324.16615400000046	0.1	sub-17	1	sequence	stimulus	Katze	NaN	NaN	128.0	NaN	NaN	3.0	4.0	NaN	NaN	NaN	NaN	NaN
324.2661205000004	0.1336	sub-17	1	sequence	interval	dot	NaN	NaN	NaN	NaN	NaN	NaN	NaN	NaN	NaN	NaN	NaN	NaN
324.3997096000003	0.0999	sub-17	1	sequence	stimulus	Haus	NaN	NaN	128.0	NaN	NaN	2.0	5.0	NaN	NaN	NaN	NaN	NaN
324.4996588000004	0.1334	sub-17	1	sequence	interval	dot	NaN	NaN	NaN	NaN	NaN	NaN	NaN	NaN	NaN	NaN	NaN	NaN
324.6330788000005	8.0717	sub-17	1	sequence	delay	dot	NaN	NaN	NaN	NaN	NaN	NaN	NaN	NaN	NaN	NaN	NaN	NaN
332.6926059000007	0.6981	sub-17	1	sequence	choice	choice	right	NaN	NaN	0.6877	True	NaN	NaN	right	True	5.0	3.0	3.0
333.3910639000005	0.4997	sub-17	1	sequence	feedback	NaN	NaN	NaN	NaN	NaN	NaN	NaN	NaN	NaN	NaN	NaN	NaN	NaN
333.89104430000043	1.0002	sub-17	1	sequence	cue	Gesicht	NaN	NaN	NaN	NaN	NaN	NaN	NaN	NaN	NaN	NaN	NaN	NaN
334.8912553	2.0018	sub-17	1	sequence	blank	blank	NaN	NaN	NaN	NaN	NaN	NaN	NaN	NaN	NaN	NaN	NaN	NaN
336.8930841000001	0.3002	sub-17	1	sequence	fixation	dot	NaN	NaN	NaN	NaN	NaN	NaN	NaN	NaN	NaN	NaN	NaN	NaN
337.2108655000002	0.0992	sub-17	1	sequence	stimulus	Schuh	NaN	NaN	32.0	NaN	NaN	4.0	1.0	NaN	NaN	NaN	NaN	NaN
337.31009130000075	0.0351	sub-17	1	sequence	interval	dot	NaN	NaN	NaN	NaN	NaN	NaN	NaN	NaN	NaN	NaN	NaN	NaN
337.34523790000003	0.0984	sub-17	1	sequence	stimulus	Stuhl	NaN	NaN	32.0	NaN	NaN	5.0	2.0	NaN	NaN	NaN	NaN	NaN
337.44366830000035	0.0335	sub-17	1	sequence	interval	dot	NaN	NaN	NaN	NaN	NaN	NaN	NaN	NaN	NaN	NaN	NaN	NaN
337.4771757000008	0.0999	sub-17	1	sequence	stimulus	Katze	NaN	NaN	32.0	NaN	NaN	3.0	3.0	NaN	NaN	NaN	NaN	NaN
337.57708770000045	0.0335	sub-17	1	sequence	interval	dot	NaN	NaN	NaN	NaN	NaN	NaN	NaN	NaN	NaN	NaN	NaN	NaN
337.6106193000005	0.0999	sub-17	1	sequence	stimulus	Gesicht	NaN	NaN	32.0	NaN	NaN	1.0	4.0	NaN	NaN	NaN	NaN	NaN
337.7105485000002	0.0347	sub-17	1	sequence	interval	dot	NaN	NaN	NaN	NaN	NaN	NaN	NaN	NaN	NaN	NaN	NaN	NaN
337.7452641	0.0988	sub-17	1	sequence	stimulus	Haus	NaN	NaN	32.0	NaN	NaN	2.0	5.0	NaN	NaN	NaN	NaN	NaN
337.84403120000025	0.0335	sub-17	1	sequence	interval	dot	NaN	NaN	NaN	NaN	NaN	NaN	NaN	NaN	NaN	NaN	NaN	NaN
337.87749450000047	8.5383	sub-17	1	sequence	delay	dot	NaN	NaN	NaN	NaN	NaN	NaN	NaN	NaN	NaN	NaN	NaN	NaN
346.39437700000053	0.5739	sub-17	1	sequence	choice	choice	right	NaN	NaN	0.5543	True	NaN	NaN	right	True	5.0	4.0	4.0
346.9686313000002	0.4998	sub-17	1	sequence	feedback	NaN	NaN	NaN	NaN	NaN	NaN	NaN	NaN	NaN	NaN	NaN	NaN	NaN
347.46872990000065	1.0002	sub-17	1	sequence	cue	Haus	NaN	NaN	NaN	NaN	NaN	NaN	NaN	NaN	NaN	NaN	NaN	NaN
348.46889080000074	2.0016	sub-17	1	sequence	blank	blank	NaN	NaN	NaN	NaN	NaN	NaN	NaN	NaN	NaN	NaN	NaN	NaN
350.47050090000084	0.3002	sub-17	1	sequence	fixation	dot	NaN	NaN	NaN	NaN	NaN	NaN	NaN	NaN	NaN	NaN	NaN	NaN
350.78908000000047	0.1153	sub-17	1	sequence	stimulus	Katze	NaN	NaN	128.0	NaN	NaN	3.0	1.0	NaN	NaN	NaN	NaN	NaN
350.9043333	0.1334	sub-17	1	sequence	interval	dot	NaN	NaN	NaN	NaN	NaN	NaN	NaN	NaN	NaN	NaN	NaN	NaN
351.0377474000006	0.0999	sub-17	1	sequence	stimulus	Haus	NaN	NaN	128.0	NaN	NaN	2.0	2.0	NaN	NaN	NaN	NaN	NaN
351.1376552000001	0.1336	sub-17	1	sequence	interval	dot	NaN	NaN	NaN	NaN	NaN	NaN	NaN	NaN	NaN	NaN	NaN	NaN
351.2712468	0.1001	sub-17	1	sequence	stimulus	Stuhl	NaN	NaN	128.0	NaN	NaN	5.0	3.0	NaN	NaN	NaN	NaN	NaN
351.3713413000005	0.1334	sub-17	1	sequence	interval	dot	NaN	NaN	NaN	NaN	NaN	NaN	NaN	NaN	NaN	NaN	NaN	NaN
351.5047557000007	0.1001	sub-17	1	sequence	stimulus	Schuh	NaN	NaN	128.0	NaN	NaN	4.0	4.0	NaN	NaN	NaN	NaN	NaN
351.6048520000004	0.1334	sub-17	1	sequence	interval	dot	NaN	NaN	NaN	NaN	NaN	NaN	NaN	NaN	NaN	NaN	NaN	NaN
351.7382947000005	0.1	sub-17	1	sequence	stimulus	Gesicht	NaN	NaN	128.0	NaN	NaN	1.0	5.0	NaN	NaN	NaN	NaN	NaN
351.8382511	0.1334	sub-17	1	sequence	interval	dot	NaN	NaN	NaN	NaN	NaN	NaN	NaN	NaN	NaN	NaN	NaN	NaN
351.971673	8.0717	sub-17	1	sequence	delay	dot	NaN	NaN	NaN	NaN	NaN	NaN	NaN	NaN	NaN	NaN	NaN	NaN
360.01809200000025	0.7447	sub-17	1	sequence	choice	choice	left	NaN	NaN	0.7212	True	NaN	NaN	left	True	2.0	1.0	2.0
360.7631033000007	0.4998	sub-17	1	sequence	feedback	NaN	NaN	NaN	NaN	NaN	NaN	NaN	NaN	NaN	NaN	NaN	NaN	NaN
361.26316270000007	1.0002	sub-17	1	sequence	cue	Haus	NaN	NaN	NaN	NaN	NaN	NaN	NaN	NaN	NaN	NaN	NaN	NaN
362.2634009000003	2.0017	sub-17	1	sequence	blank	blank	NaN	NaN	NaN	NaN	NaN	NaN	NaN	NaN	NaN	NaN	NaN	NaN
364.26515780000045	0.3001	sub-17	1	sequence	fixation	dot	NaN	NaN	NaN	NaN	NaN	NaN	NaN	NaN	NaN	NaN	NaN	NaN
364.5827788000006	0.0993	sub-17	1	sequence	stimulus	Stuhl	NaN	NaN	32.0	NaN	NaN	5.0	1.0	NaN	NaN	NaN	NaN	NaN
364.6820903000007	0.0336	sub-17	1	sequence	interval	dot	NaN	NaN	NaN	NaN	NaN	NaN	NaN	NaN	NaN	NaN	NaN	NaN
364.71567810000033	0.0999	sub-17	1	sequence	stimulus	Gesicht	NaN	NaN	32.0	NaN	NaN	1.0	2.0	NaN	NaN	NaN	NaN	NaN
364.8155507000001	0.0335	sub-17	1	sequence	interval	dot	NaN	NaN	NaN	NaN	NaN	NaN	NaN	NaN	NaN	NaN	NaN	NaN
364.84903810000014	0.0999	sub-17	1	sequence	stimulus	Katze	NaN	NaN	32.0	NaN	NaN	3.0	3.0	NaN	NaN	NaN	NaN	NaN
364.94894230000045	0.0335	sub-17	1	sequence	interval	dot	NaN	NaN	NaN	NaN	NaN	NaN	NaN	NaN	NaN	NaN	NaN	NaN
364.98244410000007	0.0999	sub-17	1	sequence	stimulus	Schuh	NaN	NaN	32.0	NaN	NaN	4.0	4.0	NaN	NaN	NaN	NaN	NaN
365.0823420000006	0.0336	sub-17	1	sequence	interval	dot	NaN	NaN	NaN	NaN	NaN	NaN	NaN	NaN	NaN	NaN	NaN	NaN
365.1158962	0.0999	sub-17	1	sequence	stimulus	Haus	NaN	NaN	32.0	NaN	NaN	2.0	5.0	NaN	NaN	NaN	NaN	NaN
365.21579590000056	0.0334	sub-17	1	sequence	interval	dot	NaN	NaN	NaN	NaN	NaN	NaN	NaN	NaN	NaN	NaN	NaN	NaN
365.2491878000001	8.5387	sub-17	1	sequence	delay	dot	NaN	NaN	NaN	NaN	NaN	NaN	NaN	NaN	NaN	NaN	NaN	NaN
373.7718521000006	0.5518	sub-17	1	sequence	choice	choice	right	NaN	NaN	0.5375	True	NaN	NaN	right	True	4.0	5.0	5.0
374.3239414	0.4999	sub-17	1	sequence	feedback	NaN	NaN	NaN	NaN	NaN	NaN	NaN	NaN	NaN	NaN	NaN	NaN	NaN
374.8240802	1.0005	sub-17	1	sequence	cue	Stuhl	NaN	NaN	NaN	NaN	NaN	NaN	NaN	NaN	NaN	NaN	NaN	NaN
375.8245677000005	2.0017	sub-17	1	sequence	blank	blank	NaN	NaN	NaN	NaN	NaN	NaN	NaN	NaN	NaN	NaN	NaN	NaN
377.8262507	0.3004	sub-17	1	sequence	fixation	dot	NaN	NaN	NaN	NaN	NaN	NaN	NaN	NaN	NaN	NaN	NaN	NaN
378.1448571000001	0.1151	sub-17	1	sequence	stimulus	Gesicht	NaN	NaN	512.0	NaN	NaN	1.0	1.0	NaN	NaN	NaN	NaN	NaN
378.25995630000034	0.5172	sub-17	1	sequence	interval	dot	NaN	NaN	NaN	NaN	NaN	NaN	NaN	NaN	NaN	NaN	NaN	NaN
378.7771386000004	0.1	sub-17	1	sequence	stimulus	Schuh	NaN	NaN	512.0	NaN	NaN	4.0	2.0	NaN	NaN	NaN	NaN	NaN
378.877125	0.5172	sub-17	1	sequence	interval	dot	NaN	NaN	NaN	NaN	NaN	NaN	NaN	NaN	NaN	NaN	NaN	NaN
379.3942769000005	0.0999	sub-17	1	sequence	stimulus	Katze	NaN	NaN	512.0	NaN	NaN	3.0	3.0	NaN	NaN	NaN	NaN	NaN
379.4941479000008	0.5173	sub-17	1	sequence	interval	dot	NaN	NaN	NaN	NaN	NaN	NaN	NaN	NaN	NaN	NaN	NaN	NaN
380.0114413000001	0.1	sub-17	1	sequence	stimulus	Stuhl	NaN	NaN	512.0	NaN	NaN	5.0	4.0	NaN	NaN	NaN	NaN	NaN
380.1114011	0.5173	sub-17	1	sequence	interval	dot	NaN	NaN	NaN	NaN	NaN	NaN	NaN	NaN	NaN	NaN	NaN	NaN
380.6286639	0.0999	sub-17	1	sequence	stimulus	Haus	NaN	NaN	512.0	NaN	NaN	2.0	5.0	NaN	NaN	NaN	NaN	NaN
380.7285269000004	0.5169	sub-17	1	sequence	interval	dot	NaN	NaN	NaN	NaN	NaN	NaN	NaN	NaN	NaN	NaN	NaN	NaN
381.2454576	6.1367	sub-17	1	sequence	delay	dot	NaN	NaN	NaN	NaN	NaN	NaN	NaN	NaN	NaN	NaN	NaN	NaN
387.36949490000006	0.6652	sub-17	1	sequence	choice	choice	left	NaN	NaN	0.6541	True	NaN	NaN	left	True	4.0	3.0	4.0
388.0349184000006	0.5	sub-17	1	sequence	feedback	NaN	NaN	NaN	NaN	NaN	NaN	NaN	NaN	NaN	NaN	NaN	NaN	NaN
388.5350790000002	1.0004	sub-17	1	sequence	cue	Schuh	NaN	NaN	NaN	NaN	NaN	NaN	NaN	NaN	NaN	NaN	NaN	NaN
389.5354593000002	2.0017	sub-17	1	sequence	blank	blank	NaN	NaN	NaN	NaN	NaN	NaN	NaN	NaN	NaN	NaN	NaN	NaN
391.5371582000007	0.3003	sub-17	1	sequence	fixation	dot	NaN	NaN	NaN	NaN	NaN	NaN	NaN	NaN	NaN	NaN	NaN	NaN
391.8556563000002	0.1153	sub-17	1	sequence	stimulus	Katze	NaN	NaN	64.0	NaN	NaN	3.0	1.0	NaN	NaN	NaN	NaN	NaN
391.9709418000002	0.0667	sub-17	1	sequence	interval	dot	NaN	NaN	NaN	NaN	NaN	NaN	NaN	NaN	NaN	NaN	NaN	NaN
392.0376734000001	0.0999	sub-17	1	sequence	stimulus	Gesicht	NaN	NaN	64.0	NaN	NaN	1.0	2.0	NaN	NaN	NaN	NaN	NaN
392.13761220000015	0.0668	sub-17	1	sequence	interval	dot	NaN	NaN	NaN	NaN	NaN	NaN	NaN	NaN	NaN	NaN	NaN	NaN
392.2044584000005	0.1	sub-17	1	sequence	stimulus	Haus	NaN	NaN	64.0	NaN	NaN	2.0	3.0	NaN	NaN	NaN	NaN	NaN
392.3044524000006	0.0669	sub-17	1	sequence	interval	dot	NaN	NaN	NaN	NaN	NaN	NaN	NaN	NaN	NaN	NaN	NaN	NaN
392.3713127000001	0.1	sub-17	1	sequence	stimulus	Schuh	NaN	NaN	64.0	NaN	NaN	4.0	4.0	NaN	NaN	NaN	NaN	NaN
392.4712759000004	0.0668	sub-17	1	sequence	interval	dot	NaN	NaN	NaN	NaN	NaN	NaN	NaN	NaN	NaN	NaN	NaN	NaN
392.5380685	0.0999	sub-17	1	sequence	stimulus	Stuhl	NaN	NaN	64.0	NaN	NaN	5.0	5.0	NaN	NaN	NaN	NaN	NaN
392.6380060000001	0.0668	sub-17	1	sequence	interval	dot	NaN	NaN	NaN	NaN	NaN	NaN	NaN	NaN	NaN	NaN	NaN	NaN
392.7048426000001	8.3886	sub-17	1	sequence	delay	dot	NaN	NaN	NaN	NaN	NaN	NaN	NaN	NaN	NaN	NaN	NaN	NaN
401.07124530000056	0.725	sub-17	1	sequence	choice	choice	right	NaN	NaN	0.7047	True	NaN	NaN	right	True	5.0	4.0	4.0
401.79647810000006	0.4997	sub-17	1	sequence	feedback	NaN	NaN	NaN	NaN	NaN	NaN	NaN	NaN	NaN	NaN	NaN	NaN	NaN
402.2964621000001	1.0002	sub-17	1	sequence	cue	Katze	NaN	NaN	NaN	NaN	NaN	NaN	NaN	NaN	NaN	NaN	NaN	NaN
403.2967114000003	2.0015	sub-17	1	sequence	blank	blank	NaN	NaN	NaN	NaN	NaN	NaN	NaN	NaN	NaN	NaN	NaN	NaN
405.2982158000004	0.3003	sub-17	1	sequence	fixation	dot	NaN	NaN	NaN	NaN	NaN	NaN	NaN	NaN	NaN	NaN	NaN	NaN
405.6159872000008	0.0992	sub-17	1	sequence	stimulus	Schuh	NaN	NaN	64.0	NaN	NaN	4.0	1.0	NaN	NaN	NaN	NaN	NaN
405.71523680000064	0.0669	sub-17	1	sequence	interval	dot	NaN	NaN	NaN	NaN	NaN	NaN	NaN	NaN	NaN	NaN	NaN	NaN
405.7821199	0.0999	sub-17	1	sequence	stimulus	Stuhl	NaN	NaN	64.0	NaN	NaN	5.0	2.0	NaN	NaN	NaN	NaN	NaN
405.88197690000015	0.0669	sub-17	1	sequence	interval	dot	NaN	NaN	NaN	NaN	NaN	NaN	NaN	NaN	NaN	NaN	NaN	NaN
405.9488826000006	0.0999	sub-17	1	sequence	stimulus	Gesicht	NaN	NaN	64.0	NaN	NaN	1.0	3.0	NaN	NaN	NaN	NaN	NaN
406.0487741000006	0.067	sub-17	1	sequence	interval	dot	NaN	NaN	NaN	NaN	NaN	NaN	NaN	NaN	NaN	NaN	NaN	NaN
406.1157350000003	0.0999	sub-17	1	sequence	stimulus	Haus	NaN	NaN	64.0	NaN	NaN	2.0	4.0	NaN	NaN	NaN	NaN	NaN
406.2156415	0.0669	sub-17	1	sequence	interval	dot	NaN	NaN	NaN	NaN	NaN	NaN	NaN	NaN	NaN	NaN	NaN	NaN
406.2824960000007	0.0998	sub-17	1	sequence	stimulus	Katze	NaN	NaN	64.0	NaN	NaN	3.0	5.0	NaN	NaN	NaN	NaN	NaN
406.38230770000064	0.0669	sub-17	1	sequence	interval	dot	NaN	NaN	NaN	NaN	NaN	NaN	NaN	NaN	NaN	NaN	NaN	NaN
406.44918750000033	8.3886	sub-17	1	sequence	delay	dot	NaN	NaN	NaN	NaN	NaN	NaN	NaN	NaN	NaN	NaN	NaN	NaN
414.82500100000016	0.7322	sub-17	1	sequence	choice	choice	left	NaN	NaN	0.7213	True	NaN	NaN	left	True	5.0	3.0	5.0
415.5574701000005	0.5001	sub-17	1	sequence	feedback	NaN	NaN	NaN	NaN	NaN	NaN	NaN	NaN	NaN	NaN	NaN	NaN	NaN
416.0577920000005	1.0001	sub-17	1	sequence	cue	Haus	NaN	NaN	NaN	NaN	NaN	NaN	NaN	NaN	NaN	NaN	NaN	NaN
417.0578890000006	2.0019	sub-17	1	sequence	blank	blank	NaN	NaN	NaN	NaN	NaN	NaN	NaN	NaN	NaN	NaN	NaN	NaN
419.0598088000006	0.3003	sub-17	1	sequence	fixation	dot	NaN	NaN	NaN	NaN	NaN	NaN	NaN	NaN	NaN	NaN	NaN	NaN
419.3775913	0.0992	sub-17	1	sequence	stimulus	Stuhl	NaN	NaN	512.0	NaN	NaN	5.0	1.0	NaN	NaN	NaN	NaN	NaN
419.47676690000026	0.517	sub-17	1	sequence	interval	dot	NaN	NaN	NaN	NaN	NaN	NaN	NaN	NaN	NaN	NaN	NaN	NaN
419.9937598000006	0.1	sub-17	1	sequence	stimulus	Schuh	NaN	NaN	512.0	NaN	NaN	4.0	2.0	NaN	NaN	NaN	NaN	NaN
420.0937472000005	0.5172	sub-17	1	sequence	interval	dot	NaN	NaN	NaN	NaN	NaN	NaN	NaN	NaN	NaN	NaN	NaN	NaN
420.61093340000025	0.0999	sub-17	1	sequence	stimulus	Gesicht	NaN	NaN	512.0	NaN	NaN	1.0	3.0	NaN	NaN	NaN	NaN	NaN
420.7108114000002	0.5174	sub-17	1	sequence	interval	dot	NaN	NaN	NaN	NaN	NaN	NaN	NaN	NaN	NaN	NaN	NaN	NaN
421.2281791000005	0.0998	sub-17	1	sequence	stimulus	Haus	NaN	NaN	512.0	NaN	NaN	2.0	4.0	NaN	NaN	NaN	NaN	NaN
421.3279815000005	0.5172	sub-17	1	sequence	interval	dot	NaN	NaN	NaN	NaN	NaN	NaN	NaN	NaN	NaN	NaN	NaN	NaN
421.8452289000006	0.1001	sub-17	1	sequence	stimulus	Katze	NaN	NaN	512.0	NaN	NaN	3.0	5.0	NaN	NaN	NaN	NaN	NaN
421.9453217	0.517	sub-17	1	sequence	interval	dot	NaN	NaN	NaN	NaN	NaN	NaN	NaN	NaN	NaN	NaN	NaN	NaN
422.4622946	6.1532	sub-17	1	sequence	delay	dot	NaN	NaN	NaN	NaN	NaN	NaN	NaN	NaN	NaN	NaN	NaN	NaN
428.6046280000001	0.7805	sub-17	1	sequence	choice	choice	left	NaN	NaN	0.7713	True	NaN	NaN	left	True	4.0	3.0	4.0
429.38536230000045	0.4997	sub-17	1	sequence	feedback	NaN	NaN	NaN	NaN	NaN	NaN	NaN	NaN	NaN	NaN	NaN	NaN	NaN
429.8855294000005	13.4609	sub-17	1	other	break	break	NaN	NaN	NaN	NaN	NaN	NaN	NaN	NaN	NaN	NaN	NaN	NaN
447.1829660000003	0.4995	sub-17	1	localizer	stimulus	Stuhl	NaN	180	2.4853179999999497	0.6677	True	NaN	NaN	NaN	NaN	NaN	NaN	NaN
447.6658970000008	2.4853	sub-17	1	localizer	blank	interval	NaN	NaN	NaN	NaN	NaN	NaN	NaN	NaN	NaN	NaN	NaN	NaN
450.4523307	0.4995	sub-17	1	localizer	stimulus	Haus	NaN	0	2.2349887000000876	NaN	True	NaN	NaN	NaN	NaN	NaN	NaN	NaN
450.9353306000002	2.235	sub-17	1	localizer	blank	interval	NaN	NaN	NaN	NaN	NaN	NaN	NaN	NaN	NaN	NaN	NaN	NaN
453.4713891000001	0.4995	sub-17	1	localizer	stimulus	Haus	NaN	180	1.8178771000003167	0.5006	True	NaN	NaN	NaN	NaN	NaN	NaN	NaN
453.9544501	1.8179	sub-17	1	localizer	blank	interval	NaN	NaN	NaN	NaN	NaN	NaN	NaN	NaN	NaN	NaN	NaN	NaN
456.0737516000008	0.4994	sub-17	1	localizer	stimulus	Schuh	NaN	0	1.4009194999999295	NaN	True	NaN	NaN	NaN	NaN	NaN	NaN	NaN
456.5566082000005	1.4009	sub-17	1	localizer	blank	interval	NaN	NaN	NaN	NaN	NaN	NaN	NaN	NaN	NaN	NaN	NaN	NaN
458.2586175000006	0.4996	sub-17	1	localizer	stimulus	Gesicht	NaN	0	2.8021975000001476	NaN	True	NaN	NaN	NaN	NaN	NaN	NaN	NaN
458.7416389	2.8022	sub-17	1	localizer	blank	interval	NaN	NaN	NaN	NaN	NaN	NaN	NaN	NaN	NaN	NaN	NaN	NaN
461.84482000000025	0.4997	sub-17	1	localizer	stimulus	Schuh	NaN	180	2.0016263999996227	0.5841	True	NaN	NaN	NaN	NaN	NaN	NaN	NaN
462.32790660000046	2.0016	sub-17	1	localizer	blank	interval	NaN	NaN	NaN	NaN	NaN	NaN	NaN	NaN	NaN	NaN	NaN	NaN
464.6305609000001	0.4994	sub-17	1	localizer	stimulus	Katze	NaN	0	3.6695122999998944	NaN	True	NaN	NaN	NaN	NaN	NaN	NaN	NaN
465.1133489000004	3.6695	sub-17	1	localizer	blank	interval	NaN	NaN	NaN	NaN	NaN	NaN	NaN	NaN	NaN	NaN	NaN	NaN
469.0840019000007	0.4995	sub-17	1	localizer	stimulus	Stuhl	NaN	0	3.0022351999996317	NaN	True	NaN	NaN	NaN	NaN	NaN	NaN	NaN
469.5670217000006	3.0022	sub-17	1	localizer	blank	interval	NaN	NaN	NaN	NaN	NaN	NaN	NaN	NaN	NaN	NaN	NaN	NaN
472.87041320000026	0.4995	sub-17	1	localizer	stimulus	Schuh	NaN	0	3.135628199999701	NaN	True	NaN	NaN	NaN	NaN	NaN	NaN	NaN
473.3534401000006	3.1356	sub-17	1	localizer	blank	interval	NaN	NaN	NaN	NaN	NaN	NaN	NaN	NaN	NaN	NaN	NaN	NaN
476.7902836000003	0.4996	sub-17	1	localizer	stimulus	Schuh	NaN	0	3.0689315999998144	NaN	True	NaN	NaN	NaN	NaN	NaN	NaN	NaN
477.2733741000002	3.0689	sub-17	1	localizer	blank	interval	NaN	NaN	NaN	NaN	NaN	NaN	NaN	NaN	NaN	NaN	NaN	NaN
480.6433891000006	0.4995	sub-17	1	localizer	stimulus	Haus	NaN	0	3.152611900000011	NaN	True	NaN	NaN	NaN	NaN	NaN	NaN	NaN
481.1263299000002	3.1526	sub-17	1	localizer	blank	interval	NaN	NaN	NaN	NaN	NaN	NaN	NaN	NaN	NaN	NaN	NaN	NaN
484.5800792	0.4996	sub-17	1	localizer	stimulus	Katze	NaN	0	1.967959300000075	NaN	True	NaN	NaN	NaN	NaN	NaN	NaN	NaN
485.0630359000006	1.968	sub-17	1	localizer	blank	interval	NaN	NaN	NaN	NaN	NaN	NaN	NaN	NaN	NaN	NaN	NaN	NaN
487.3321259000004	0.4995	sub-17	1	localizer	stimulus	Katze	NaN	180	1.7346663999996963	0.5173	True	NaN	NaN	NaN	NaN	NaN	NaN	NaN
487.8150886000003	1.7347	sub-17	1	localizer	blank	interval	NaN	NaN	NaN	NaN	NaN	NaN	NaN	NaN	NaN	NaN	NaN	NaN
489.8508061000002	0.4995	sub-17	1	localizer	stimulus	Schuh	NaN	0	1.6345855999998093	NaN	True	NaN	NaN	NaN	NaN	NaN	NaN	NaN
490.3337610000008	1.6346	sub-17	1	localizer	blank	interval	NaN	NaN	NaN	NaN	NaN	NaN	NaN	NaN	NaN	NaN	NaN	NaN
492.2694311000005	0.4995	sub-17	1	localizer	stimulus	Stuhl	NaN	0	2.652106700000388	NaN	True	NaN	NaN	NaN	NaN	NaN	NaN	NaN
492.7523729000004	2.6521	sub-17	1	localizer	blank	interval	NaN	NaN	NaN	NaN	NaN	NaN	NaN	NaN	NaN	NaN	NaN	NaN
495.7055778000004	0.4995	sub-17	1	localizer	stimulus	Katze	NaN	0	2.952511100000322	NaN	True	NaN	NaN	NaN	NaN	NaN	NaN	NaN
496.1884841000001	2.9525	sub-17	1	localizer	blank	interval	NaN	NaN	NaN	NaN	NaN	NaN	NaN	NaN	NaN	NaN	NaN	NaN
499.4420909	0.4995	sub-17	1	localizer	stimulus	Haus	NaN	0	1.884444600000279	NaN	True	NaN	NaN	NaN	NaN	NaN	NaN	NaN
499.9251197000003	1.8844	sub-17	1	localizer	blank	interval	NaN	NaN	NaN	NaN	NaN	NaN	NaN	NaN	NaN	NaN	NaN	NaN
502.1109302000005	0.4994	sub-17	1	localizer	stimulus	Stuhl	NaN	0	2.55198490000015	NaN	True	NaN	NaN	NaN	NaN	NaN	NaN	NaN
502.59371660000033	2.552	sub-17	1	localizer	blank	interval	NaN	NaN	NaN	NaN	NaN	NaN	NaN	NaN	NaN	NaN	NaN	NaN
505.4468746000002	0.4996	sub-17	1	localizer	stimulus	Stuhl	NaN	0	3.10219429999961	NaN	True	NaN	NaN	NaN	NaN	NaN	NaN	NaN
505.9299471000004	3.1022	sub-17	1	localizer	blank	interval	NaN	NaN	NaN	NaN	NaN	NaN	NaN	NaN	NaN	NaN	NaN	NaN
509.3332626000001	0.4994	sub-17	1	localizer	stimulus	Gesicht	NaN	180	3.069008500000564	0.5842	True	NaN	NaN	NaN	NaN	NaN	NaN	NaN
509.81621110000015	3.069	sub-17	1	localizer	blank	interval	NaN	NaN	NaN	NaN	NaN	NaN	NaN	NaN	NaN	NaN	NaN	NaN
513.1863832000008	0.4995	sub-17	1	localizer	stimulus	Katze	NaN	0	2.118091899999854	NaN	True	NaN	NaN	NaN	NaN	NaN	NaN	NaN
513.6694187000003	2.1181	sub-17	1	localizer	blank	interval	NaN	NaN	NaN	NaN	NaN	NaN	NaN	NaN	NaN	NaN	NaN	NaN
516.0889068000006	0.4993	sub-17	1	localizer	stimulus	Gesicht	NaN	0	3.202075500000319	NaN	True	NaN	NaN	NaN	NaN	NaN	NaN	NaN
516.5721934000003	3.2021	sub-17	1	localizer	blank	interval	NaN	NaN	NaN	NaN	NaN	NaN	NaN	NaN	NaN	NaN	NaN	NaN
520.0754575000001	0.4995	sub-17	1	localizer	stimulus	Gesicht	NaN	0	1.8678336000002673	NaN	True	NaN	NaN	NaN	NaN	NaN	NaN	NaN
520.5584014000005	1.8678	sub-17	1	localizer	blank	interval	NaN	NaN	NaN	NaN	NaN	NaN	NaN	NaN	NaN	NaN	NaN	NaN
522.7276022000005	0.4993	sub-17	1	localizer	stimulus	Haus	NaN	0	3.3860878999994384	NaN	True	NaN	NaN	NaN	NaN	NaN	NaN	NaN
523.2103687000008	3.3861	sub-17	1	localizer	blank	interval	NaN	NaN	NaN	NaN	NaN	NaN	NaN	NaN	NaN	NaN	NaN	NaN
526.8976615000001	0.4994	sub-17	1	localizer	stimulus	Gesicht	NaN	0	3.018172600000071	NaN	True	NaN	NaN	NaN	NaN	NaN	NaN	NaN
527.3811775000004	3.0182	sub-17	1	localizer	blank	interval	NaN	NaN	NaN	NaN	NaN	NaN	NaN	NaN	NaN	NaN	NaN	NaN
533.8858235000007	1.0006	sub-17	1	sequence	cue	Gesicht	NaN	NaN	NaN	NaN	NaN	NaN	NaN	NaN	NaN	NaN	NaN	NaN
534.8864090000006	2.0015	sub-17	1	sequence	blank	blank	NaN	NaN	NaN	NaN	NaN	NaN	NaN	NaN	NaN	NaN	NaN	NaN
536.8879603000005	0.3003	sub-17	1	sequence	fixation	dot	NaN	NaN	NaN	NaN	NaN	NaN	NaN	NaN	NaN	NaN	NaN	NaN
537.2059675	0.0991	sub-17	1	sequence	stimulus	Schuh	NaN	NaN	32.0	NaN	NaN	4.0	1.0	NaN	NaN	NaN	NaN	NaN
537.3050946000003	0.0336	sub-17	1	sequence	interval	dot	NaN	NaN	NaN	NaN	NaN	NaN	NaN	NaN	NaN	NaN	NaN	NaN
537.3386962000004	0.0999	sub-17	1	sequence	stimulus	Stuhl	NaN	NaN	32.0	NaN	NaN	5.0	2.0	NaN	NaN	NaN	NaN	NaN
537.4386212	0.0336	sub-17	1	sequence	interval	dot	NaN	NaN	NaN	NaN	NaN	NaN	NaN	NaN	NaN	NaN	NaN	NaN
537.472248	0.0999	sub-17	1	sequence	stimulus	Katze	NaN	NaN	32.0	NaN	NaN	3.0	3.0	NaN	NaN	NaN	NaN	NaN
537.5721287000006	0.0335	sub-17	1	sequence	interval	dot	NaN	NaN	NaN	NaN	NaN	NaN	NaN	NaN	NaN	NaN	NaN	NaN
537.6056215000008	0.1	sub-17	1	sequence	stimulus	Gesicht	NaN	NaN	32.0	NaN	NaN	1.0	4.0	NaN	NaN	NaN	NaN	NaN
537.7056028000006	0.0335	sub-17	1	sequence	interval	dot	NaN	NaN	NaN	NaN	NaN	NaN	NaN	NaN	NaN	NaN	NaN	NaN
537.7391353000003	0.0999	sub-17	1	sequence	stimulus	Haus	NaN	NaN	32.0	NaN	NaN	2.0	5.0	NaN	NaN	NaN	NaN	NaN
537.8390838000005	0.0332	sub-17	1	sequence	interval	dot	NaN	NaN	NaN	NaN	NaN	NaN	NaN	NaN	NaN	NaN	NaN	NaN
537.8722903000007	8.5218	sub-17	1	sequence	delay	dot	NaN	NaN	NaN	NaN	NaN	NaN	NaN	NaN	NaN	NaN	NaN	NaN
546.3820377000002	0.6481	sub-17	1	sequence	choice	choice	left	NaN	NaN	0.6205	True	NaN	NaN	left	True	4.0	5.0	4.0
547.0304747	0.5	sub-17	1	sequence	feedback	NaN	NaN	NaN	NaN	NaN	NaN	NaN	NaN	NaN	NaN	NaN	NaN	NaN
547.5306806000008	1.0002	sub-17	1	sequence	cue	Stuhl	NaN	NaN	NaN	NaN	NaN	NaN	NaN	NaN	NaN	NaN	NaN	NaN
548.5308991000002	2.0014	sub-17	1	sequence	blank	blank	NaN	NaN	NaN	NaN	NaN	NaN	NaN	NaN	NaN	NaN	NaN	NaN
550.5323366000002	0.3003	sub-17	1	sequence	fixation	dot	NaN	NaN	NaN	NaN	NaN	NaN	NaN	NaN	NaN	NaN	NaN	NaN
550.8509287000006	0.1151	sub-17	1	sequence	stimulus	Gesicht	NaN	NaN	512.0	NaN	NaN	1.0	1.0	NaN	NaN	NaN	NaN	NaN
550.9659920000004	0.5172	sub-17	1	sequence	interval	dot	NaN	NaN	NaN	NaN	NaN	NaN	NaN	NaN	NaN	NaN	NaN	NaN
551.4831994000006	0.1	sub-17	1	sequence	stimulus	Schuh	NaN	NaN	512.0	NaN	NaN	4.0	2.0	NaN	NaN	NaN	NaN	NaN
551.5831649000002	0.5172	sub-17	1	sequence	interval	dot	NaN	NaN	NaN	NaN	NaN	NaN	NaN	NaN	NaN	NaN	NaN	NaN
552.1003740000006	0.1	sub-17	1	sequence	stimulus	Katze	NaN	NaN	512.0	NaN	NaN	3.0	3.0	NaN	NaN	NaN	NaN	NaN
552.2003338000004	0.5173	sub-17	1	sequence	interval	dot	NaN	NaN	NaN	NaN	NaN	NaN	NaN	NaN	NaN	NaN	NaN	NaN
552.7176290000007	0.0999	sub-17	1	sequence	stimulus	Stuhl	NaN	NaN	512.0	NaN	NaN	5.0	4.0	NaN	NaN	NaN	NaN	NaN
552.8175503000002	0.5173	sub-17	1	sequence	interval	dot	NaN	NaN	NaN	NaN	NaN	NaN	NaN	NaN	NaN	NaN	NaN	NaN
553.3348145	0.0999	sub-17	1	sequence	stimulus	Haus	NaN	NaN	512.0	NaN	NaN	2.0	5.0	NaN	NaN	NaN	NaN	NaN
553.4347521	0.5171	sub-17	1	sequence	interval	dot	NaN	NaN	NaN	NaN	NaN	NaN	NaN	NaN	NaN	NaN	NaN	NaN
553.9518519000003	6.1535	sub-17	1	sequence	delay	dot	NaN	NaN	NaN	NaN	NaN	NaN	NaN	NaN	NaN	NaN	NaN	NaN
560.0837726	0.6408	sub-17	1	sequence	choice	choice	left	NaN	NaN	0.6208	True	NaN	NaN	left	True	4.0	3.0	4.0
560.7248408000005	0.4998	sub-17	1	sequence	feedback	NaN	NaN	NaN	NaN	NaN	NaN	NaN	NaN	NaN	NaN	NaN	NaN	NaN
561.2248941000007	1.0003	sub-17	1	sequence	cue	Schuh	NaN	NaN	NaN	NaN	NaN	NaN	NaN	NaN	NaN	NaN	NaN	NaN
562.2251516000006	2.0017	sub-17	1	sequence	blank	blank	NaN	NaN	NaN	NaN	NaN	NaN	NaN	NaN	NaN	NaN	NaN	NaN
564.2268308000002	0.3002	sub-17	1	sequence	fixation	dot	NaN	NaN	NaN	NaN	NaN	NaN	NaN	NaN	NaN	NaN	NaN	NaN
564.5445220000001	0.0993	sub-17	1	sequence	stimulus	Stuhl	NaN	NaN	128.0	NaN	NaN	5.0	1.0	NaN	NaN	NaN	NaN	NaN
564.6438624000002	0.1335	sub-17	1	sequence	interval	dot	NaN	NaN	NaN	NaN	NaN	NaN	NaN	NaN	NaN	NaN	NaN	NaN
564.7773359000003	0.1	sub-17	1	sequence	stimulus	Schuh	NaN	NaN	128.0	NaN	NaN	4.0	2.0	NaN	NaN	NaN	NaN	NaN
564.8773675000002	0.1335	sub-17	1	sequence	interval	dot	NaN	NaN	NaN	NaN	NaN	NaN	NaN	NaN	NaN	NaN	NaN	NaN
565.0109092000002	0.1	sub-17	1	sequence	stimulus	Gesicht	NaN	NaN	128.0	NaN	NaN	1.0	3.0	NaN	NaN	NaN	NaN	NaN
565.1109045000003	0.1336	sub-17	1	sequence	interval	dot	NaN	NaN	NaN	NaN	NaN	NaN	NaN	NaN	NaN	NaN	NaN	NaN
565.2445163000002	0.0999	sub-17	1	sequence	stimulus	Katze	NaN	NaN	128.0	NaN	NaN	3.0	4.0	NaN	NaN	NaN	NaN	NaN
565.3443747000001	0.1336	sub-17	1	sequence	interval	dot	NaN	NaN	NaN	NaN	NaN	NaN	NaN	NaN	NaN	NaN	NaN	NaN
565.4779714000006	0.0999	sub-17	1	sequence	stimulus	Haus	NaN	NaN	128.0	NaN	NaN	2.0	5.0	NaN	NaN	NaN	NaN	NaN
565.5779212000007	0.1336	sub-17	1	sequence	interval	dot	NaN	NaN	NaN	NaN	NaN	NaN	NaN	NaN	NaN	NaN	NaN	NaN
565.7115160000003	8.0714	sub-17	1	sequence	delay	dot	NaN	NaN	NaN	NaN	NaN	NaN	NaN	NaN	NaN	NaN	NaN	NaN
573.7594947000007	0.6425	sub-17	1	sequence	choice	choice	left	NaN	NaN	0.6204	True	NaN	NaN	left	True	2.0	4.0	2.0
574.4023082000003	0.5	sub-17	1	sequence	feedback	NaN	NaN	NaN	NaN	NaN	NaN	NaN	NaN	NaN	NaN	NaN	NaN	NaN
574.9024331	1.0005	sub-17	1	sequence	cue	Schuh	NaN	NaN	NaN	NaN	NaN	NaN	NaN	NaN	NaN	NaN	NaN	NaN
575.9029390000005	2.0018	sub-17	1	sequence	blank	blank	NaN	NaN	NaN	NaN	NaN	NaN	NaN	NaN	NaN	NaN	NaN	NaN
577.9047484000002	0.3002	sub-17	1	sequence	fixation	dot	NaN	NaN	NaN	NaN	NaN	NaN	NaN	NaN	NaN	NaN	NaN	NaN
578.2224144000002	0.0993	sub-17	1	sequence	stimulus	Katze	NaN	NaN	64.0	NaN	NaN	3.0	1.0	NaN	NaN	NaN	NaN	NaN
578.3217420000001	0.0694	sub-17	1	sequence	interval	dot	NaN	NaN	NaN	NaN	NaN	NaN	NaN	NaN	NaN	NaN	NaN	NaN
578.3911533	0.1141	sub-17	1	sequence	stimulus	Gesicht	NaN	NaN	64.0	NaN	NaN	1.0	2.0	NaN	NaN	NaN	NaN	NaN
578.5052600000008	0.0668	sub-17	1	sequence	interval	dot	NaN	NaN	NaN	NaN	NaN	NaN	NaN	NaN	NaN	NaN	NaN	NaN
578.5720661000005	0.1	sub-17	1	sequence	stimulus	Haus	NaN	NaN	64.0	NaN	NaN	2.0	3.0	NaN	NaN	NaN	NaN	NaN
578.6720202000006	0.0669	sub-17	1	sequence	interval	dot	NaN	NaN	NaN	NaN	NaN	NaN	NaN	NaN	NaN	NaN	NaN	NaN
578.7389069000001	0.0999	sub-17	1	sequence	stimulus	Schuh	NaN	NaN	64.0	NaN	NaN	4.0	4.0	NaN	NaN	NaN	NaN	NaN
578.8387853000004	0.0669	sub-17	1	sequence	interval	dot	NaN	NaN	NaN	NaN	NaN	NaN	NaN	NaN	NaN	NaN	NaN	NaN
578.9056792000001	0.1	sub-17	1	sequence	stimulus	Stuhl	NaN	NaN	64.0	NaN	NaN	5.0	5.0	NaN	NaN	NaN	NaN	NaN
579.0056425000002	0.0667	sub-17	1	sequence	interval	dot	NaN	NaN	NaN	NaN	NaN	NaN	NaN	NaN	NaN	NaN	NaN	NaN
579.0723326000007	8.3884	sub-17	1	sequence	delay	dot	NaN	NaN	NaN	NaN	NaN	NaN	NaN	NaN	NaN	NaN	NaN	NaN
587.4352731000008	0.5781	sub-17	1	sequence	choice	choice	right	NaN	NaN	0.5553	True	NaN	NaN	right	True	3.0	4.0	4.0
588.0136595000004	0.4998	sub-17	1	sequence	feedback	NaN	NaN	NaN	NaN	NaN	NaN	NaN	NaN	NaN	NaN	NaN	NaN	NaN
588.5137021	1.0003	sub-17	1	sequence	cue	Stuhl	NaN	NaN	NaN	NaN	NaN	NaN	NaN	NaN	NaN	NaN	NaN	NaN
589.5140502000004	2.0014	sub-17	1	sequence	blank	blank	NaN	NaN	NaN	NaN	NaN	NaN	NaN	NaN	NaN	NaN	NaN	NaN
591.5154734000007	0.3003	sub-17	1	sequence	fixation	dot	NaN	NaN	NaN	NaN	NaN	NaN	NaN	NaN	NaN	NaN	NaN	NaN
591.8341042000002	0.1159	sub-17	1	sequence	stimulus	Stuhl	NaN	NaN	32.0	NaN	NaN	5.0	1.0	NaN	NaN	NaN	NaN	NaN
591.9499978000003	0.0327	sub-17	1	sequence	interval	dot	NaN	NaN	NaN	NaN	NaN	NaN	NaN	NaN	NaN	NaN	NaN	NaN
591.9827157	0.1	sub-17	1	sequence	stimulus	Gesicht	NaN	NaN	32.0	NaN	NaN	1.0	2.0	NaN	NaN	NaN	NaN	NaN
592.0827485	0.0335	sub-17	1	sequence	interval	dot	NaN	NaN	NaN	NaN	NaN	NaN	NaN	NaN	NaN	NaN	NaN	NaN
592.1162016000007	0.0999	sub-17	1	sequence	stimulus	Katze	NaN	NaN	32.0	NaN	NaN	3.0	3.0	NaN	NaN	NaN	NaN	NaN
592.2161396000001	0.0335	sub-17	1	sequence	interval	dot	NaN	NaN	NaN	NaN	NaN	NaN	NaN	NaN	NaN	NaN	NaN	NaN
592.2496151000005	0.0999	sub-17	1	sequence	stimulus	Schuh	NaN	NaN	32.0	NaN	NaN	4.0	4.0	NaN	NaN	NaN	NaN	NaN
592.3495169000007	0.0336	sub-17	1	sequence	interval	dot	NaN	NaN	NaN	NaN	NaN	NaN	NaN	NaN	NaN	NaN	NaN	NaN
592.3830980000002	0.0999	sub-17	1	sequence	stimulus	Haus	NaN	NaN	32.0	NaN	NaN	2.0	5.0	NaN	NaN	NaN	NaN	NaN
592.4830430000002	0.0333	sub-17	1	sequence	interval	dot	NaN	NaN	NaN	NaN	NaN	NaN	NaN	NaN	NaN	NaN	NaN	NaN
592.5163078000005	8.5388	sub-17	1	sequence	delay	dot	NaN	NaN	NaN	NaN	NaN	NaN	NaN	NaN	NaN	NaN	NaN	NaN
601.0329243999995	0.7914	sub-17	1	sequence	choice	choice	left	NaN	NaN	0.771	True	NaN	NaN	left	True	1.0	2.0	1.0
601.8246107000004	0.4998	sub-17	1	sequence	feedback	NaN	NaN	NaN	NaN	NaN	NaN	NaN	NaN	NaN	NaN	NaN	NaN	NaN
602.3246549000005	1.0004	sub-17	1	sequence	cue	Gesicht	NaN	NaN	NaN	NaN	NaN	NaN	NaN	NaN	NaN	NaN	NaN	NaN
603.3250834	2.0016	sub-17	1	sequence	blank	blank	NaN	NaN	NaN	NaN	NaN	NaN	NaN	NaN	NaN	NaN	NaN	NaN
605.3266700000013	0.3003	sub-17	1	sequence	fixation	dot	NaN	NaN	NaN	NaN	NaN	NaN	NaN	NaN	NaN	NaN	NaN	NaN
605.6445786000013	0.0991	sub-17	1	sequence	stimulus	Katze	NaN	NaN	128.0	NaN	NaN	3.0	1.0	NaN	NaN	NaN	NaN	NaN
605.7437164000012	0.1337	sub-17	1	sequence	interval	dot	NaN	NaN	NaN	NaN	NaN	NaN	NaN	NaN	NaN	NaN	NaN	NaN
605.8773869000006	0.1	sub-17	1	sequence	stimulus	Haus	NaN	NaN	128.0	NaN	NaN	2.0	2.0	NaN	NaN	NaN	NaN	NaN
605.9773383000002	0.1334	sub-17	1	sequence	interval	dot	NaN	NaN	NaN	NaN	NaN	NaN	NaN	NaN	NaN	NaN	NaN	NaN
606.110757200001	0.1001	sub-17	1	sequence	stimulus	Stuhl	NaN	NaN	128.0	NaN	NaN	5.0	3.0	NaN	NaN	NaN	NaN	NaN
606.2108189	0.1336	sub-17	1	sequence	interval	dot	NaN	NaN	NaN	NaN	NaN	NaN	NaN	NaN	NaN	NaN	NaN	NaN
606.3444229000006	0.0999	sub-17	1	sequence	stimulus	Schuh	NaN	NaN	128.0	NaN	NaN	4.0	4.0	NaN	NaN	NaN	NaN	NaN
606.4443459000004	0.1336	sub-17	1	sequence	interval	dot	NaN	NaN	NaN	NaN	NaN	NaN	NaN	NaN	NaN	NaN	NaN	NaN
606.5779176999995	0.0999	sub-17	1	sequence	stimulus	Gesicht	NaN	NaN	128.0	NaN	NaN	1.0	5.0	NaN	NaN	NaN	NaN	NaN
606.6778138	0.1335	sub-17	1	sequence	interval	dot	NaN	NaN	NaN	NaN	NaN	NaN	NaN	NaN	NaN	NaN	NaN	NaN
606.8112788999997	8.0717	sub-17	1	sequence	delay	dot	NaN	NaN	NaN	NaN	NaN	NaN	NaN	NaN	NaN	NaN	NaN	NaN
614.8647615	0.5873	sub-17	1	sequence	choice	choice	right	NaN	NaN	0.5708	True	NaN	NaN	right	True	2.0	5.0	5.0
615.4523524999995	0.4997	sub-17	1	sequence	feedback	NaN	NaN	NaN	NaN	NaN	NaN	NaN	NaN	NaN	NaN	NaN	NaN	NaN
615.9522028000001	1.0005	sub-17	1	sequence	cue	Haus	NaN	NaN	NaN	NaN	NaN	NaN	NaN	NaN	NaN	NaN	NaN	NaN
616.9527401000005	2.0018	sub-17	1	sequence	blank	blank	NaN	NaN	NaN	NaN	NaN	NaN	NaN	NaN	NaN	NaN	NaN	NaN
618.9545368000008	0.3003	sub-17	1	sequence	fixation	dot	NaN	NaN	NaN	NaN	NaN	NaN	NaN	NaN	NaN	NaN	NaN	NaN
619.272375900001	0.0991	sub-17	1	sequence	stimulus	Schuh	NaN	NaN	64.0	NaN	NaN	4.0	1.0	NaN	NaN	NaN	NaN	NaN
619.3714495000013	0.067	sub-17	1	sequence	interval	dot	NaN	NaN	NaN	NaN	NaN	NaN	NaN	NaN	NaN	NaN	NaN	NaN
619.4384230000005	0.0999	sub-17	1	sequence	stimulus	Stuhl	NaN	NaN	64.0	NaN	NaN	5.0	2.0	NaN	NaN	NaN	NaN	NaN
619.538298800001	0.0668	sub-17	1	sequence	interval	dot	NaN	NaN	NaN	NaN	NaN	NaN	NaN	NaN	NaN	NaN	NaN	NaN
619.6050946000005	0.0999	sub-17	1	sequence	stimulus	Gesicht	NaN	NaN	64.0	NaN	NaN	1.0	3.0	NaN	NaN	NaN	NaN	NaN
619.705034900001	0.0668	sub-17	1	sequence	interval	dot	NaN	NaN	NaN	NaN	NaN	NaN	NaN	NaN	NaN	NaN	NaN	NaN
619.7718811000004	0.1	sub-17	1	sequence	stimulus	Haus	NaN	NaN	64.0	NaN	NaN	2.0	4.0	NaN	NaN	NaN	NaN	NaN
619.871835500001	0.0668	sub-17	1	sequence	interval	dot	NaN	NaN	NaN	NaN	NaN	NaN	NaN	NaN	NaN	NaN	NaN	NaN
619.9386771	0.1	sub-17	1	sequence	stimulus	Katze	NaN	NaN	64.0	NaN	NaN	3.0	5.0	NaN	NaN	NaN	NaN	NaN
620.038713500001	0.0667	sub-17	1	sequence	interval	dot	NaN	NaN	NaN	NaN	NaN	NaN	NaN	NaN	NaN	NaN	NaN	NaN
620.1053696999998	8.3717	sub-17	1	sequence	delay	dot	NaN	NaN	NaN	NaN	NaN	NaN	NaN	NaN	NaN	NaN	NaN	NaN
628.4625323000009	0.6847	sub-17	1	sequence	choice	choice	right	NaN	NaN	0.6718	True	NaN	NaN	right	True	5.0	4.0	4.0
629.1475306000002	0.4993	sub-17	1	sequence	feedback	NaN	NaN	NaN	NaN	NaN	NaN	NaN	NaN	NaN	NaN	NaN	NaN	NaN
629.6470099999997	1.0004	sub-17	1	sequence	cue	Katze	NaN	NaN	NaN	NaN	NaN	NaN	NaN	NaN	NaN	NaN	NaN	NaN
630.6474661000002	2.0013	sub-17	1	sequence	blank	blank	NaN	NaN	NaN	NaN	NaN	NaN	NaN	NaN	NaN	NaN	NaN	NaN
632.6487575000001	0.3002	sub-17	1	sequence	fixation	dot	NaN	NaN	NaN	NaN	NaN	NaN	NaN	NaN	NaN	NaN	NaN	NaN
632.9673357000001	0.1153	sub-17	1	sequence	stimulus	Stuhl	NaN	NaN	512.0	NaN	NaN	5.0	1.0	NaN	NaN	NaN	NaN	NaN
633.0826449999995	0.5171	sub-17	1	sequence	interval	dot	NaN	NaN	NaN	NaN	NaN	NaN	NaN	NaN	NaN	NaN	NaN	NaN
633.5997041	0.1	sub-17	1	sequence	stimulus	Schuh	NaN	NaN	512.0	NaN	NaN	4.0	2.0	NaN	NaN	NaN	NaN	NaN
633.6997281000013	0.5172	sub-17	1	sequence	interval	dot	NaN	NaN	NaN	NaN	NaN	NaN	NaN	NaN	NaN	NaN	NaN	NaN
634.2168818	0.1	sub-17	1	sequence	stimulus	Gesicht	NaN	NaN	512.0	NaN	NaN	1.0	3.0	NaN	NaN	NaN	NaN	NaN
634.3168467000005	0.5173	sub-17	1	sequence	interval	dot	NaN	NaN	NaN	NaN	NaN	NaN	NaN	NaN	NaN	NaN	NaN	NaN
634.834127000001	0.0999	sub-17	1	sequence	stimulus	Haus	NaN	NaN	512.0	NaN	NaN	2.0	4.0	NaN	NaN	NaN	NaN	NaN
634.9340006000011	0.5172	sub-17	1	sequence	interval	dot	NaN	NaN	NaN	NaN	NaN	NaN	NaN	NaN	NaN	NaN	NaN	NaN
635.4512246000004	0.0999	sub-17	1	sequence	stimulus	Katze	NaN	NaN	512.0	NaN	NaN	3.0	5.0	NaN	NaN	NaN	NaN	NaN
635.5511462000004	0.5171	sub-17	1	sequence	interval	dot	NaN	NaN	NaN	NaN	NaN	NaN	NaN	NaN	NaN	NaN	NaN	NaN
636.0682686999999	6.1367	sub-17	1	sequence	delay	dot	NaN	NaN	NaN	NaN	NaN	NaN	NaN	NaN	NaN	NaN	NaN	NaN
642.1901029999999	0.7343	sub-17	1	sequence	choice	choice	right	NaN	NaN	0.7212	True	NaN	NaN	right	True	2.0	5.0	5.0
642.9246594000006	0.4998	sub-17	1	sequence	feedback	NaN	NaN	NaN	NaN	NaN	NaN	NaN	NaN	NaN	NaN	NaN	NaN	NaN
647.244837700001	0.4999	sub-17	1	localizer	stimulus	Haus	NaN	0	1.3342115000014019	NaN	True	NaN	NaN	NaN	NaN	NaN	NaN	NaN
647.7277992999998	1.3342	sub-17	1	localizer	blank	interval	NaN	NaN	NaN	NaN	NaN	NaN	NaN	NaN	NaN	NaN	NaN	NaN
649.3632461999996	0.4998	sub-17	1	localizer	stimulus	Stuhl	NaN	0	1.7512291000002733	NaN	True	NaN	NaN	NaN	NaN	NaN	NaN	NaN
649.8463058000007	1.7512	sub-17	1	localizer	blank	interval	NaN	NaN	NaN	NaN	NaN	NaN	NaN	NaN	NaN	NaN	NaN	NaN
651.8986706000005	0.4995	sub-17	1	localizer	stimulus	Katze	NaN	0	4.052932300000975	NaN	True	NaN	NaN	NaN	NaN	NaN	NaN	NaN
652.3817110999998	4.0529	sub-17	1	localizer	blank	interval	NaN	NaN	NaN	NaN	NaN	NaN	NaN	NaN	NaN	NaN	NaN	NaN
656.7358974999997	0.4994	sub-17	1	localizer	stimulus	Gesicht	NaN	0	1.8849494000005507	NaN	True	NaN	NaN	NaN	NaN	NaN	NaN	NaN
657.2187330999996	1.8849	sub-17	1	localizer	blank	interval	NaN	NaN	NaN	NaN	NaN	NaN	NaN	NaN	NaN	NaN	NaN	NaN
659.4045979000011	0.4996	sub-17	1	localizer	stimulus	Schuh	NaN	0	2.952154900000096	NaN	True	NaN	NaN	NaN	NaN	NaN	NaN	NaN
659.8876910999998	2.9522	sub-17	1	localizer	blank	interval	NaN	NaN	NaN	NaN	NaN	NaN	NaN	NaN	NaN	NaN	NaN	NaN
663.1409849000001	0.4995	sub-17	1	localizer	stimulus	Gesicht	NaN	180	2.4686166000010417	0.5339	True	NaN	NaN	NaN	NaN	NaN	NaN	NaN
663.6239864999998	2.4686	sub-17	1	localizer	blank	interval	NaN	NaN	NaN	NaN	NaN	NaN	NaN	NaN	NaN	NaN	NaN	NaN
666.3937264999995	0.4994	sub-17	1	localizer	stimulus	Haus	NaN	0	2.7020425999999134	NaN	True	NaN	NaN	NaN	NaN	NaN	NaN	NaN
666.8765818000002	2.702	sub-17	1	localizer	blank	interval	NaN	NaN	NaN	NaN	NaN	NaN	NaN	NaN	NaN	NaN	NaN	NaN
669.8799855999996	0.4994	sub-17	1	localizer	stimulus	Gesicht	NaN	0	2.9022812000002887	NaN	True	NaN	NaN	NaN	NaN	NaN	NaN	NaN
670.3628388000006	2.9023	sub-17	1	localizer	blank	interval	NaN	NaN	NaN	NaN	NaN	NaN	NaN	NaN	NaN	NaN	NaN	NaN
673.5663093000012	0.4995	sub-17	1	localizer	stimulus	Gesicht	NaN	0	3.118838099999266	NaN	True	NaN	NaN	NaN	NaN	NaN	NaN	NaN
674.0493008000003	3.1188	sub-17	1	localizer	blank	interval	NaN	NaN	NaN	NaN	NaN	NaN	NaN	NaN	NaN	NaN	NaN	NaN
677.4692610000011	0.4996	sub-17	1	localizer	stimulus	Katze	NaN	180	3.019136000000799	0.5507	True	NaN	NaN	NaN	NaN	NaN	NaN	NaN
677.9522186000004	3.0191	sub-17	1	localizer	blank	interval	NaN	NaN	NaN	NaN	NaN	NaN	NaN	NaN	NaN	NaN	NaN	NaN
681.2724707999996	0.4999	sub-17	1	localizer	stimulus	Stuhl	NaN	0	2.084566800000175	NaN	True	NaN	NaN	NaN	NaN	NaN	NaN	NaN
681.7555843	2.0846	sub-17	1	localizer	blank	interval	NaN	NaN	NaN	NaN	NaN	NaN	NaN	NaN	NaN	NaN	NaN	NaN
684.1413199999997	0.4995	sub-17	1	localizer	stimulus	Gesicht	NaN	0	1.3843280999990384	NaN	True	NaN	NaN	NaN	NaN	NaN	NaN	NaN
684.6242387000011	1.3843	sub-17	1	localizer	blank	interval	NaN	NaN	NaN	NaN	NaN	NaN	NaN	NaN	NaN	NaN	NaN	NaN
686.3097203999996	0.4996	sub-17	1	localizer	stimulus	Stuhl	NaN	180	2.168301599998813	0.5509	True	NaN	NaN	NaN	NaN	NaN	NaN	NaN
686.7926539000009	2.1683	sub-17	1	localizer	blank	interval	NaN	NaN	NaN	NaN	NaN	NaN	NaN	NaN	NaN	NaN	NaN	NaN
689.2621568000004	0.4995	sub-17	1	localizer	stimulus	Schuh	NaN	0	2.268625799999427	NaN	True	NaN	NaN	NaN	NaN	NaN	NaN	NaN
689.7450498000007	2.2686	sub-17	1	localizer	blank	interval	NaN	NaN	NaN	NaN	NaN	NaN	NaN	NaN	NaN	NaN	NaN	NaN
692.3146671000004	0.4999	sub-17	1	localizer	stimulus	Schuh	NaN	0	3.0349378999999317	NaN	True	NaN	NaN	NaN	NaN	NaN	NaN	NaN
692.7982570000013	3.0349	sub-17	1	localizer	blank	interval	NaN	NaN	NaN	NaN	NaN	NaN	NaN	NaN	NaN	NaN	NaN	NaN
696.1344336000011	0.4995	sub-17	1	localizer	stimulus	Haus	NaN	0	2.768920700000308	NaN	True	NaN	NaN	NaN	NaN	NaN	NaN	NaN
696.6173229000005	2.7689	sub-17	1	localizer	blank	interval	NaN	NaN	NaN	NaN	NaN	NaN	NaN	NaN	NaN	NaN	NaN	NaN
699.6872223	0.4997	sub-17	1	localizer	stimulus	Schuh	NaN	180	2.4517627000004723	0.5509	True	NaN	NaN	NaN	NaN	NaN	NaN	NaN
700.1703031000006	2.4518	sub-17	1	localizer	blank	interval	NaN	NaN	NaN	NaN	NaN	NaN	NaN	NaN	NaN	NaN	NaN	NaN
702.923185300001	0.4994	sub-17	1	localizer	stimulus	Katze	NaN	0	2.385142099999939	NaN	True	NaN	NaN	NaN	NaN	NaN	NaN	NaN
703.4061014999997	2.3851	sub-17	1	localizer	blank	interval	NaN	NaN	NaN	NaN	NaN	NaN	NaN	NaN	NaN	NaN	NaN	NaN
706.0926215000009	0.4993	sub-17	1	localizer	stimulus	Schuh	NaN	0	2.852212399999189	NaN	True	NaN	NaN	NaN	NaN	NaN	NaN	NaN
706.5753355000006	2.8522	sub-17	1	localizer	blank	interval	NaN	NaN	NaN	NaN	NaN	NaN	NaN	NaN	NaN	NaN	NaN	NaN
709.7286778000007	0.4995	sub-17	1	localizer	stimulus	Stuhl	NaN	0	1.5345336999998835	NaN	True	NaN	NaN	NaN	NaN	NaN	NaN	NaN
710.211602800001	1.5345	sub-17	1	localizer	blank	interval	NaN	NaN	NaN	NaN	NaN	NaN	NaN	NaN	NaN	NaN	NaN	NaN
712.0473959000001	0.4996	sub-17	1	localizer	stimulus	Stuhl	NaN	0	1.7179030000006605	NaN	True	NaN	NaN	NaN	NaN	NaN	NaN	NaN
712.5304497000006	1.7179	sub-17	1	localizer	blank	interval	NaN	NaN	NaN	NaN	NaN	NaN	NaN	NaN	NaN	NaN	NaN	NaN
714.5493444000012	0.4995	sub-17	1	localizer	stimulus	Haus	NaN	180	2.168196900000112	0.5842	True	NaN	NaN	NaN	NaN	NaN	NaN	NaN
715.032337900001	2.1682	sub-17	1	localizer	blank	interval	NaN	NaN	NaN	NaN	NaN	NaN	NaN	NaN	NaN	NaN	NaN	NaN
717.5017655000001	0.4994	sub-17	1	localizer	stimulus	Haus	NaN	0	2.819014299999253	NaN	True	NaN	NaN	NaN	NaN	NaN	NaN	NaN
717.9845542000012	2.819	sub-17	1	localizer	blank	interval	NaN	NaN	NaN	NaN	NaN	NaN	NaN	NaN	NaN	NaN	NaN	NaN
721.1045980000008	0.4996	sub-17	1	localizer	stimulus	Katze	NaN	0	2.485160399999586	NaN	True	NaN	NaN	NaN	NaN	NaN	NaN	NaN
721.5876273000003	2.4852	sub-17	1	localizer	blank	interval	NaN	NaN	NaN	NaN	NaN	NaN	NaN	NaN	NaN	NaN	NaN	NaN
724.3738507999997	0.4997	sub-17	1	localizer	stimulus	Katze	NaN	0	3.018902400001025	NaN	True	NaN	NaN	NaN	NaN	NaN	NaN	NaN
724.8569004999999	3.0189	sub-17	1	localizer	blank	interval	NaN	NaN	NaN	NaN	NaN	NaN	NaN	NaN	NaN	NaN	NaN	NaN
731.3622623000001	1.0005	sub-17	1	sequence	cue	Schuh	NaN	NaN	NaN	NaN	NaN	NaN	NaN	NaN	NaN	NaN	NaN	NaN
732.3627755999996	2.0018	sub-17	1	sequence	blank	blank	NaN	NaN	NaN	NaN	NaN	NaN	NaN	NaN	NaN	NaN	NaN	NaN
734.364567900001	0.3002	sub-17	1	sequence	fixation	dot	NaN	NaN	NaN	NaN	NaN	NaN	NaN	NaN	NaN	NaN	NaN	NaN
734.6829862000004	0.1153	sub-17	1	sequence	stimulus	Gesicht	NaN	NaN	512.0	NaN	NaN	1.0	1.0	NaN	NaN	NaN	NaN	NaN
734.7982762000001	0.5172	sub-17	1	sequence	interval	dot	NaN	NaN	NaN	NaN	NaN	NaN	NaN	NaN	NaN	NaN	NaN	NaN
735.3154956000008	0.0999	sub-17	1	sequence	stimulus	Schuh	NaN	NaN	512.0	NaN	NaN	4.0	2.0	NaN	NaN	NaN	NaN	NaN
735.4153739000003	0.5172	sub-17	1	sequence	interval	dot	NaN	NaN	NaN	NaN	NaN	NaN	NaN	NaN	NaN	NaN	NaN	NaN
735.9325649000011	0.1001	sub-17	1	sequence	stimulus	Katze	NaN	NaN	512.0	NaN	NaN	3.0	3.0	NaN	NaN	NaN	NaN	NaN
736.0326511000012	0.5171	sub-17	1	sequence	interval	dot	NaN	NaN	NaN	NaN	NaN	NaN	NaN	NaN	NaN	NaN	NaN	NaN
736.549780100001	0.1001	sub-17	1	sequence	stimulus	Stuhl	NaN	NaN	512.0	NaN	NaN	5.0	4.0	NaN	NaN	NaN	NaN	NaN
736.6498664000001	0.5171	sub-17	1	sequence	interval	dot	NaN	NaN	NaN	NaN	NaN	NaN	NaN	NaN	NaN	NaN	NaN	NaN
737.1669733999997	0.0999	sub-17	1	sequence	stimulus	Haus	NaN	NaN	512.0	NaN	NaN	2.0	5.0	NaN	NaN	NaN	NaN	NaN
737.2668383000009	0.517	sub-17	1	sequence	interval	dot	NaN	NaN	NaN	NaN	NaN	NaN	NaN	NaN	NaN	NaN	NaN	NaN
737.7838528000002	6.1534	sub-17	1	sequence	delay	dot	NaN	NaN	NaN	NaN	NaN	NaN	NaN	NaN	NaN	NaN	NaN	NaN
743.9260800000002	0.864	sub-17	1	sequence	choice	choice	left	NaN	NaN	0.8546	True	NaN	NaN	left	True	2.0	3.0	2.0
744.790450200001	0.4997	sub-17	1	sequence	feedback	NaN	NaN	NaN	NaN	NaN	NaN	NaN	NaN	NaN	NaN	NaN	NaN	NaN
745.2902863999998	1.0006	sub-17	1	sequence	cue	Katze	NaN	NaN	NaN	NaN	NaN	NaN	NaN	NaN	NaN	NaN	NaN	NaN
746.2908483000001	2.0016	sub-17	1	sequence	blank	blank	NaN	NaN	NaN	NaN	NaN	NaN	NaN	NaN	NaN	NaN	NaN	NaN
748.2924153000013	0.3003	sub-17	1	sequence	fixation	dot	NaN	NaN	NaN	NaN	NaN	NaN	NaN	NaN	NaN	NaN	NaN	NaN
748.610110300001	0.0994	sub-17	1	sequence	stimulus	Schuh	NaN	NaN	64.0	NaN	NaN	4.0	1.0	NaN	NaN	NaN	NaN	NaN
748.7094834000009	0.0668	sub-17	1	sequence	interval	dot	NaN	NaN	NaN	NaN	NaN	NaN	NaN	NaN	NaN	NaN	NaN	NaN
748.7763009	0.0999	sub-17	1	sequence	stimulus	Stuhl	NaN	NaN	64.0	NaN	NaN	5.0	2.0	NaN	NaN	NaN	NaN	NaN
748.8761721000001	0.0668	sub-17	1	sequence	interval	dot	NaN	NaN	NaN	NaN	NaN	NaN	NaN	NaN	NaN	NaN	NaN	NaN
748.9430112	0.1	sub-17	1	sequence	stimulus	Gesicht	NaN	NaN	64.0	NaN	NaN	1.0	3.0	NaN	NaN	NaN	NaN	NaN
749.0429630999997	0.0669	sub-17	1	sequence	interval	dot	NaN	NaN	NaN	NaN	NaN	NaN	NaN	NaN	NaN	NaN	NaN	NaN
749.1098649000005	0.1	sub-17	1	sequence	stimulus	Haus	NaN	NaN	64.0	NaN	NaN	2.0	4.0	NaN	NaN	NaN	NaN	NaN
749.209818100001	0.0668	sub-17	1	sequence	interval	dot	NaN	NaN	NaN	NaN	NaN	NaN	NaN	NaN	NaN	NaN	NaN	NaN
749.2766285999996	0.1	sub-17	1	sequence	stimulus	Katze	NaN	NaN	64.0	NaN	NaN	3.0	5.0	NaN	NaN	NaN	NaN	NaN
749.3765786000013	0.0667	sub-17	1	sequence	interval	dot	NaN	NaN	NaN	NaN	NaN	NaN	NaN	NaN	NaN	NaN	NaN	NaN
749.443287000001	8.3886	sub-17	1	sequence	delay	dot	NaN	NaN	NaN	NaN	NaN	NaN	NaN	NaN	NaN	NaN	NaN	NaN
757.8097186000005	0.7081	sub-17	1	sequence	choice	choice	left	NaN	NaN	0.6876	True	NaN	NaN	left	True	5.0	4.0	5.0
758.5181082999998	0.4998	sub-17	1	sequence	feedback	NaN	NaN	NaN	NaN	NaN	NaN	NaN	NaN	NaN	NaN	NaN	NaN	NaN
759.0180781999998	1.0006	sub-17	1	sequence	cue	Gesicht	NaN	NaN	NaN	NaN	NaN	NaN	NaN	NaN	NaN	NaN	NaN	NaN
760.0186777000008	2.0017	sub-17	1	sequence	blank	blank	NaN	NaN	NaN	NaN	NaN	NaN	NaN	NaN	NaN	NaN	NaN	NaN
762.0203711000004	0.3001	sub-17	1	sequence	fixation	dot	NaN	NaN	NaN	NaN	NaN	NaN	NaN	NaN	NaN	NaN	NaN	NaN
762.3390833000003	0.1149	sub-17	1	sequence	stimulus	Katze	NaN	NaN	128.0	NaN	NaN	3.0	1.0	NaN	NaN	NaN	NaN	NaN
762.4539859999995	0.1336	sub-17	1	sequence	interval	dot	NaN	NaN	NaN	NaN	NaN	NaN	NaN	NaN	NaN	NaN	NaN	NaN
762.5875563	0.1	sub-17	1	sequence	stimulus	Haus	NaN	NaN	128.0	NaN	NaN	2.0	2.0	NaN	NaN	NaN	NaN	NaN
762.6875317000004	0.1336	sub-17	1	sequence	interval	dot	NaN	NaN	NaN	NaN	NaN	NaN	NaN	NaN	NaN	NaN	NaN	NaN
762.8210840000002	0.0999	sub-17	1	sequence	stimulus	Stuhl	NaN	NaN	128.0	NaN	NaN	5.0	3.0	NaN	NaN	NaN	NaN	NaN
762.9210121000006	0.1335	sub-17	1	sequence	interval	dot	NaN	NaN	NaN	NaN	NaN	NaN	NaN	NaN	NaN	NaN	NaN	NaN
763.0545331000003	0.1	sub-17	1	sequence	stimulus	Schuh	NaN	NaN	128.0	NaN	NaN	4.0	4.0	NaN	NaN	NaN	NaN	NaN
763.1545551000008	0.1335	sub-17	1	sequence	interval	dot	NaN	NaN	NaN	NaN	NaN	NaN	NaN	NaN	NaN	NaN	NaN	NaN
763.2880796	0.0998	sub-17	1	sequence	stimulus	Gesicht	NaN	NaN	128.0	NaN	NaN	1.0	5.0	NaN	NaN	NaN	NaN	NaN
763.3878993999997	0.1334	sub-17	1	sequence	interval	dot	NaN	NaN	NaN	NaN	NaN	NaN	NaN	NaN	NaN	NaN	NaN	NaN
763.5213451000009	8.0549	sub-17	1	sequence	delay	dot	NaN	NaN	NaN	NaN	NaN	NaN	NaN	NaN	NaN	NaN	NaN	NaN
771.5634454000001	0.7155	sub-17	1	sequence	choice	choice	right	NaN	NaN	0.7044	True	NaN	NaN	right	True	3.0	5.0	5.0
772.2792250000011	0.4998	sub-17	1	sequence	feedback	NaN	NaN	NaN	NaN	NaN	NaN	NaN	NaN	NaN	NaN	NaN	NaN	NaN
772.7791994000008	1.0004	sub-17	1	sequence	cue	Katze	NaN	NaN	NaN	NaN	NaN	NaN	NaN	NaN	NaN	NaN	NaN	NaN
773.7796225000011	2.0019	sub-17	1	sequence	blank	blank	NaN	NaN	NaN	NaN	NaN	NaN	NaN	NaN	NaN	NaN	NaN	NaN
775.7815490000003	0.3002	sub-17	1	sequence	fixation	dot	NaN	NaN	NaN	NaN	NaN	NaN	NaN	NaN	NaN	NaN	NaN	NaN
776.0998468999996	0.1153	sub-17	1	sequence	stimulus	Stuhl	NaN	NaN	128.0	NaN	NaN	5.0	1.0	NaN	NaN	NaN	NaN	NaN
776.2151099000012	0.1337	sub-17	1	sequence	interval	dot	NaN	NaN	NaN	NaN	NaN	NaN	NaN	NaN	NaN	NaN	NaN	NaN
776.3487671000012	0.0999	sub-17	1	sequence	stimulus	Schuh	NaN	NaN	128.0	NaN	NaN	4.0	2.0	NaN	NaN	NaN	NaN	NaN
776.4486786999996	0.1335	sub-17	1	sequence	interval	dot	NaN	NaN	NaN	NaN	NaN	NaN	NaN	NaN	NaN	NaN	NaN	NaN
776.5821657999995	0.0999	sub-17	1	sequence	stimulus	Gesicht	NaN	NaN	128.0	NaN	NaN	1.0	3.0	NaN	NaN	NaN	NaN	NaN
776.6821107000005	0.1335	sub-17	1	sequence	interval	dot	NaN	NaN	NaN	NaN	NaN	NaN	NaN	NaN	NaN	NaN	NaN	NaN
776.8155981000009	0.1001	sub-17	1	sequence	stimulus	Katze	NaN	NaN	128.0	NaN	NaN	3.0	4.0	NaN	NaN	NaN	NaN	NaN
776.9157306999996	0.1335	sub-17	1	sequence	interval	dot	NaN	NaN	NaN	NaN	NaN	NaN	NaN	NaN	NaN	NaN	NaN	NaN
777.0492122000005	0.1	sub-17	1	sequence	stimulus	Haus	NaN	NaN	128.0	NaN	NaN	2.0	5.0	NaN	NaN	NaN	NaN	NaN
777.1492183	0.1334	sub-17	1	sequence	interval	dot	NaN	NaN	NaN	NaN	NaN	NaN	NaN	NaN	NaN	NaN	NaN	NaN
777.2825913999995	8.0715	sub-17	1	sequence	delay	dot	NaN	NaN	NaN	NaN	NaN	NaN	NaN	NaN	NaN	NaN	NaN	NaN
785.3431229999997	0.6805	sub-17	1	sequence	choice	choice	left	NaN	NaN	0.6712	True	NaN	NaN	left	True	4.0	3.0	4.0
786.0238655000003	0.4999	sub-17	1	sequence	feedback	NaN	NaN	NaN	NaN	NaN	NaN	NaN	NaN	NaN	NaN	NaN	NaN	NaN
786.523967600001	1.0001	sub-17	1	sequence	cue	Katze	NaN	NaN	NaN	NaN	NaN	NaN	NaN	NaN	NaN	NaN	NaN	NaN
787.5241159999996	2.0015	sub-17	1	sequence	blank	blank	NaN	NaN	NaN	NaN	NaN	NaN	NaN	NaN	NaN	NaN	NaN	NaN
789.5256704000012	0.3002	sub-17	1	sequence	fixation	dot	NaN	NaN	NaN	NaN	NaN	NaN	NaN	NaN	NaN	NaN	NaN	NaN
789.8434507000011	0.0994	sub-17	1	sequence	stimulus	Stuhl	NaN	NaN	32.0	NaN	NaN	5.0	1.0	NaN	NaN	NaN	NaN	NaN
789.9428353000012	0.036	sub-17	1	sequence	interval	dot	NaN	NaN	NaN	NaN	NaN	NaN	NaN	NaN	NaN	NaN	NaN	NaN
789.9788820000003	0.1139	sub-17	1	sequence	stimulus	Gesicht	NaN	NaN	32.0	NaN	NaN	1.0	2.0	NaN	NaN	NaN	NaN	NaN
790.0928078999996	0.0335	sub-17	1	sequence	interval	dot	NaN	NaN	NaN	NaN	NaN	NaN	NaN	NaN	NaN	NaN	NaN	NaN
790.1263380000009	0.1	sub-17	1	sequence	stimulus	Katze	NaN	NaN	32.0	NaN	NaN	3.0	3.0	NaN	NaN	NaN	NaN	NaN
790.226364000001	0.0334	sub-17	1	sequence	interval	dot	NaN	NaN	NaN	NaN	NaN	NaN	NaN	NaN	NaN	NaN	NaN	NaN
790.2597242000002	0.1001	sub-17	1	sequence	stimulus	Schuh	NaN	NaN	32.0	NaN	NaN	4.0	4.0	NaN	NaN	NaN	NaN	NaN
790.3597852000012	0.0335	sub-17	1	sequence	interval	dot	NaN	NaN	NaN	NaN	NaN	NaN	NaN	NaN	NaN	NaN	NaN	NaN
790.3932372000008	0.1	sub-17	1	sequence	stimulus	Haus	NaN	NaN	32.0	NaN	NaN	2.0	5.0	NaN	NaN	NaN	NaN	NaN
790.4932185000007	0.0333	sub-17	1	sequence	interval	dot	NaN	NaN	NaN	NaN	NaN	NaN	NaN	NaN	NaN	NaN	NaN	NaN
790.5265260000006	8.5388	sub-17	1	sequence	delay	dot	NaN	NaN	NaN	NaN	NaN	NaN	NaN	NaN	NaN	NaN	NaN	NaN
799.0448776000003	0.9902	sub-17	1	sequence	choice	choice	right	NaN	NaN	0.9714	True	NaN	NaN	right	True	4.0	3.0	3.0
800.0353547000004	0.4999	sub-17	1	sequence	feedback	NaN	NaN	NaN	NaN	NaN	NaN	NaN	NaN	NaN	NaN	NaN	NaN	NaN
800.535455100001	1.0	sub-17	1	sequence	cue	Gesicht	NaN	NaN	NaN	NaN	NaN	NaN	NaN	NaN	NaN	NaN	NaN	NaN
801.5354969999999	2.0017	sub-17	1	sequence	blank	blank	NaN	NaN	NaN	NaN	NaN	NaN	NaN	NaN	NaN	NaN	NaN	NaN
803.5372421000002	0.3001	sub-17	1	sequence	fixation	dot	NaN	NaN	NaN	NaN	NaN	NaN	NaN	NaN	NaN	NaN	NaN	NaN
803.855622	0.1153	sub-17	1	sequence	stimulus	Katze	NaN	NaN	64.0	NaN	NaN	3.0	1.0	NaN	NaN	NaN	NaN	NaN
803.9709044000001	0.0667	sub-17	1	sequence	interval	dot	NaN	NaN	NaN	NaN	NaN	NaN	NaN	NaN	NaN	NaN	NaN	NaN
804.0375797000006	0.1	sub-17	1	sequence	stimulus	Gesicht	NaN	NaN	64.0	NaN	NaN	1.0	2.0	NaN	NaN	NaN	NaN	NaN
804.1376128000002	0.0668	sub-17	1	sequence	interval	dot	NaN	NaN	NaN	NaN	NaN	NaN	NaN	NaN	NaN	NaN	NaN	NaN
804.2043834000006	0.1	sub-17	1	sequence	stimulus	Haus	NaN	NaN	64.0	NaN	NaN	2.0	3.0	NaN	NaN	NaN	NaN	NaN
804.3044209999998	0.0668	sub-17	1	sequence	interval	dot	NaN	NaN	NaN	NaN	NaN	NaN	NaN	NaN	NaN	NaN	NaN	NaN
804.371248800001	0.0999	sub-17	1	sequence	stimulus	Schuh	NaN	NaN	64.0	NaN	NaN	4.0	4.0	NaN	NaN	NaN	NaN	NaN
804.4711868000004	0.0668	sub-17	1	sequence	interval	dot	NaN	NaN	NaN	NaN	NaN	NaN	NaN	NaN	NaN	NaN	NaN	NaN
804.5379798000004	0.1	sub-17	1	sequence	stimulus	Stuhl	NaN	NaN	64.0	NaN	NaN	5.0	5.0	NaN	NaN	NaN	NaN	NaN
804.6379401000004	0.0667	sub-17	1	sequence	interval	dot	NaN	NaN	NaN	NaN	NaN	NaN	NaN	NaN	NaN	NaN	NaN	NaN
804.7046610000007	8.4052	sub-17	1	sequence	delay	dot	NaN	NaN	NaN	NaN	NaN	NaN	NaN	NaN	NaN	NaN	NaN	NaN
813.0845462999996	0.8616	sub-17	1	sequence	choice	choice	right	NaN	NaN	0.8379	True	NaN	NaN	right	True	4.0	2.0	2.0
813.9464044999995	0.4996	sub-17	1	sequence	feedback	NaN	NaN	NaN	NaN	NaN	NaN	NaN	NaN	NaN	NaN	NaN	NaN	NaN
814.4462673000007	1.0004	sub-17	1	sequence	cue	Schuh	NaN	NaN	NaN	NaN	NaN	NaN	NaN	NaN	NaN	NaN	NaN	NaN
815.4466290000009	2.0018	sub-17	1	sequence	blank	blank	NaN	NaN	NaN	NaN	NaN	NaN	NaN	NaN	NaN	NaN	NaN	NaN
817.4484364000009	0.3003	sub-17	1	sequence	fixation	dot	NaN	NaN	NaN	NaN	NaN	NaN	NaN	NaN	NaN	NaN	NaN	NaN
817.7668249999997	0.1168	sub-17	1	sequence	stimulus	Stuhl	NaN	NaN	512.0	NaN	NaN	5.0	1.0	NaN	NaN	NaN	NaN	NaN
817.8836282000002	0.5157	sub-17	1	sequence	interval	dot	NaN	NaN	NaN	NaN	NaN	NaN	NaN	NaN	NaN	NaN	NaN	NaN
818.3993012000001	0.1	sub-17	1	sequence	stimulus	Schuh	NaN	NaN	512.0	NaN	NaN	4.0	2.0	NaN	NaN	NaN	NaN	NaN
818.4992811000002	0.5172	sub-17	1	sequence	interval	dot	NaN	NaN	NaN	NaN	NaN	NaN	NaN	NaN	NaN	NaN	NaN	NaN
819.0164599999998	0.1	sub-17	1	sequence	stimulus	Gesicht	NaN	NaN	512.0	NaN	NaN	1.0	3.0	NaN	NaN	NaN	NaN	NaN
819.1164226999999	0.5173	sub-17	1	sequence	interval	dot	NaN	NaN	NaN	NaN	NaN	NaN	NaN	NaN	NaN	NaN	NaN	NaN
819.6336879	0.0999	sub-17	1	sequence	stimulus	Haus	NaN	NaN	512.0	NaN	NaN	2.0	4.0	NaN	NaN	NaN	NaN	NaN
819.7336249000009	0.5174	sub-17	1	sequence	interval	dot	NaN	NaN	NaN	NaN	NaN	NaN	NaN	NaN	NaN	NaN	NaN	NaN
820.2510467000002	0.1	sub-17	1	sequence	stimulus	Katze	NaN	NaN	512.0	NaN	NaN	3.0	5.0	NaN	NaN	NaN	NaN	NaN
820.3510276000006	0.5171	sub-17	1	sequence	interval	dot	NaN	NaN	NaN	NaN	NaN	NaN	NaN	NaN	NaN	NaN	NaN	NaN
820.8681207	6.153	sub-17	1	sequence	delay	dot	NaN	NaN	NaN	NaN	NaN	NaN	NaN	NaN	NaN	NaN	NaN	NaN
826.9942856999996	0.6629	sub-17	1	sequence	choice	choice	right	NaN	NaN	0.6379	True	NaN	NaN	right	True	5.0	2.0	2.0
827.6574976000002	0.4996	sub-17	1	sequence	feedback	NaN	NaN	NaN	NaN	NaN	NaN	NaN	NaN	NaN	NaN	NaN	NaN	NaN
828.1573381000007	1.0004	sub-17	1	sequence	cue	Gesicht	NaN	NaN	NaN	NaN	NaN	NaN	NaN	NaN	NaN	NaN	NaN	NaN
829.1577352000013	2.0017	sub-17	1	sequence	blank	blank	NaN	NaN	NaN	NaN	NaN	NaN	NaN	NaN	NaN	NaN	NaN	NaN
831.1593928000011	0.3002	sub-17	1	sequence	fixation	dot	NaN	NaN	NaN	NaN	NaN	NaN	NaN	NaN	NaN	NaN	NaN	NaN
831.4771009000006	0.0994	sub-17	1	sequence	stimulus	Schuh	NaN	NaN	32.0	NaN	NaN	4.0	1.0	NaN	NaN	NaN	NaN	NaN
831.5765077000005	0.0341	sub-17	1	sequence	interval	dot	NaN	NaN	NaN	NaN	NaN	NaN	NaN	NaN	NaN	NaN	NaN	NaN
831.6105581000002	0.0994	sub-17	1	sequence	stimulus	Stuhl	NaN	NaN	32.0	NaN	NaN	5.0	2.0	NaN	NaN	NaN	NaN	NaN
831.7099155000005	0.0334	sub-17	1	sequence	interval	dot	NaN	NaN	NaN	NaN	NaN	NaN	NaN	NaN	NaN	NaN	NaN	NaN
831.7432875000004	0.1	sub-17	1	sequence	stimulus	Katze	NaN	NaN	32.0	NaN	NaN	3.0	3.0	NaN	NaN	NaN	NaN	NaN
831.8432461000002	0.0336	sub-17	1	sequence	interval	dot	NaN	NaN	NaN	NaN	NaN	NaN	NaN	NaN	NaN	NaN	NaN	NaN
831.8768169000004	0.0999	sub-17	1	sequence	stimulus	Gesicht	NaN	NaN	32.0	NaN	NaN	1.0	4.0	NaN	NaN	NaN	NaN	NaN
831.9766785000002	0.0335	sub-17	1	sequence	interval	dot	NaN	NaN	NaN	NaN	NaN	NaN	NaN	NaN	NaN	NaN	NaN	NaN
832.0101667000008	0.1	sub-17	1	sequence	stimulus	Haus	NaN	NaN	32.0	NaN	NaN	2.0	5.0	NaN	NaN	NaN	NaN	NaN
832.1101179999996	0.0334	sub-17	1	sequence	interval	dot	NaN	NaN	NaN	NaN	NaN	NaN	NaN	NaN	NaN	NaN	NaN	NaN
832.1435031999999	8.5221	sub-17	1	sequence	delay	dot	NaN	NaN	NaN	NaN	NaN	NaN	NaN	NaN	NaN	NaN	NaN	NaN
840.6441473000004	0.6744	sub-17	1	sequence	choice	choice	left	NaN	NaN	0.6542	True	NaN	NaN	left	True	4.0	5.0	4.0
841.3187769999995	0.4997	sub-17	1	sequence	feedback	NaN	NaN	NaN	NaN	NaN	NaN	NaN	NaN	NaN	NaN	NaN	NaN	NaN
841.818913600001	28.0055	sub-17	1	other	break	break	NaN	NaN	NaN	NaN	NaN	NaN	NaN	NaN	NaN	NaN	NaN	NaN
873.6446255000001	0.4994	sub-17	1	localizer	stimulus	Haus	NaN	0	3.2027415000011388	NaN	True	NaN	NaN	NaN	NaN	NaN	NaN	NaN
874.1440653	3.2027	sub-17	1	localizer	blank	interval	NaN	NaN	NaN	NaN	NaN	NaN	NaN	NaN	NaN	NaN	NaN	NaN
877.6478460000008	0.4996	sub-17	1	localizer	stimulus	Gesicht	NaN	0	2.051846700000169	NaN	True	NaN	NaN	NaN	NaN	NaN	NaN	NaN
878.1307605000011	2.0518	sub-17	1	localizer	blank	interval	NaN	NaN	NaN	NaN	NaN	NaN	NaN	NaN	NaN	NaN	NaN	NaN
880.4835697999997	0.4997	sub-17	1	localizer	stimulus	Schuh	NaN	0	2.7020800999998755	NaN	True	NaN	NaN	NaN	NaN	NaN	NaN	NaN
880.9668360000005	2.7021	sub-17	1	localizer	blank	interval	NaN	NaN	NaN	NaN	NaN	NaN	NaN	NaN	NaN	NaN	NaN	NaN
883.9698446000011	0.4994	sub-17	1	localizer	stimulus	Haus	NaN	0	2.2016030000013416	NaN	True	NaN	NaN	NaN	NaN	NaN	NaN	NaN
884.4526441999997	2.2016	sub-17	1	localizer	blank	interval	NaN	NaN	NaN	NaN	NaN	NaN	NaN	NaN	NaN	NaN	NaN	NaN
886.9553690000002	0.4995	sub-17	1	localizer	stimulus	Katze	NaN	180	2.151571000000331	0.6172	True	NaN	NaN	NaN	NaN	NaN	NaN	NaN
887.4383461999996	2.1516	sub-17	1	localizer	blank	interval	NaN	NaN	NaN	NaN	NaN	NaN	NaN	NaN	NaN	NaN	NaN	NaN
889.8910783000001	0.4996	sub-17	1	localizer	stimulus	Stuhl	NaN	0	2.6519446999991487	NaN	True	NaN	NaN	NaN	NaN	NaN	NaN	NaN
890.3740619000009	2.6519	sub-17	1	localizer	blank	interval	NaN	NaN	NaN	NaN	NaN	NaN	NaN	NaN	NaN	NaN	NaN	NaN
893.3271759999998	0.4996	sub-17	1	localizer	stimulus	Katze	NaN	0	3.252363100000366	NaN	True	NaN	NaN	NaN	NaN	NaN	NaN	NaN
893.8102425999996	3.2524	sub-17	1	localizer	blank	interval	NaN	NaN	NaN	NaN	NaN	NaN	NaN	NaN	NaN	NaN	NaN	NaN
897.3638070000006	0.4995	sub-17	1	localizer	stimulus	Haus	NaN	0	1.6845246000011684	NaN	True	NaN	NaN	NaN	NaN	NaN	NaN	NaN
897.8468616	1.6845	sub-17	1	localizer	blank	interval	NaN	NaN	NaN	NaN	NaN	NaN	NaN	NaN	NaN	NaN	NaN	NaN
899.8326058000011	0.4994	sub-17	1	localizer	stimulus	Haus	NaN	0	2.8357574000002614	NaN	True	NaN	NaN	NaN	NaN	NaN	NaN	NaN
900.315419900001	2.8358	sub-17	1	localizer	blank	interval	NaN	NaN	NaN	NaN	NaN	NaN	NaN	NaN	NaN	NaN	NaN	NaN
903.452378500001	0.4996	sub-17	1	localizer	stimulus	Schuh	NaN	180	2.151261599999998	0.5012	True	NaN	NaN	NaN	NaN	NaN	NaN	NaN
903.9354090000006	2.1513	sub-17	1	localizer	blank	interval	NaN	NaN	NaN	NaN	NaN	NaN	NaN	NaN	NaN	NaN	NaN	NaN
906.3877435000004	0.4996	sub-17	1	localizer	stimulus	Gesicht	NaN	0	3.119074800000817	NaN	True	NaN	NaN	NaN	NaN	NaN	NaN	NaN
906.8706749000004	3.1191	sub-17	1	localizer	blank	interval	NaN	NaN	NaN	NaN	NaN	NaN	NaN	NaN	NaN	NaN	NaN	NaN
910.2909229999996	0.4995	sub-17	1	localizer	stimulus	Haus	NaN	180	2.7520827000008694	0.5176	True	NaN	NaN	NaN	NaN	NaN	NaN	NaN
910.7739482999996	2.7521	sub-17	1	localizer	blank	interval	NaN	NaN	NaN	NaN	NaN	NaN	NaN	NaN	NaN	NaN	NaN	NaN
913.8271139	0.4995	sub-17	1	localizer	stimulus	Stuhl	NaN	0	2.3183920999999827	NaN	True	NaN	NaN	NaN	NaN	NaN	NaN	NaN
914.3100220000006	2.3184	sub-17	1	localizer	blank	interval	NaN	NaN	NaN	NaN	NaN	NaN	NaN	NaN	NaN	NaN	NaN	NaN
916.9295833000006	0.4995	sub-17	1	localizer	stimulus	Schuh	NaN	0	2.2517446000001655	NaN	True	NaN	NaN	NaN	NaN	NaN	NaN	NaN
917.4125324000006	2.2517	sub-17	1	localizer	blank	interval	NaN	NaN	NaN	NaN	NaN	NaN	NaN	NaN	NaN	NaN	NaN	NaN
919.9654024	0.4994	sub-17	1	localizer	stimulus	Schuh	NaN	0	2.6856502000007367	NaN	True	NaN	NaN	NaN	NaN	NaN	NaN	NaN
920.4483678999997	2.6857	sub-17	1	localizer	blank	interval	NaN	NaN	NaN	NaN	NaN	NaN	NaN	NaN	NaN	NaN	NaN	NaN
923.434991000001	0.4996	sub-17	1	localizer	stimulus	Stuhl	NaN	0	2.6851124000004347	NaN	True	NaN	NaN	NaN	NaN	NaN	NaN	NaN
923.9180867000003	2.6851	sub-17	1	localizer	blank	interval	NaN	NaN	NaN	NaN	NaN	NaN	NaN	NaN	NaN	NaN	NaN	NaN
926.9043205999996	0.4996	sub-17	1	localizer	stimulus	Stuhl	NaN	180	1.6511245000000372	0.4842	True	NaN	NaN	NaN	NaN	NaN	NaN	NaN
927.3873491000004	1.6511	sub-17	1	localizer	blank	interval	NaN	NaN	NaN	NaN	NaN	NaN	NaN	NaN	NaN	NaN	NaN	NaN
929.3396321000008	0.4995	sub-17	1	localizer	stimulus	Gesicht	NaN	0	2.4351877999998806	NaN	True	NaN	NaN	NaN	NaN	NaN	NaN	NaN
929.8226186000002	2.4352	sub-17	1	localizer	blank	interval	NaN	NaN	NaN	NaN	NaN	NaN	NaN	NaN	NaN	NaN	NaN	NaN
932.5589284000008	0.4996	sub-17	1	localizer	stimulus	Katze	NaN	0	4.053191200000583	NaN	True	NaN	NaN	NaN	NaN	NaN	NaN	NaN
933.0418971999998	4.0532	sub-17	1	localizer	blank	interval	NaN	NaN	NaN	NaN	NaN	NaN	NaN	NaN	NaN	NaN	NaN	NaN
937.3962163999996	0.4995	sub-17	1	localizer	stimulus	Katze	NaN	0	2.6186813000003895	NaN	True	NaN	NaN	NaN	NaN	NaN	NaN	NaN
937.8791069999996	2.6187	sub-17	1	localizer	blank	interval	NaN	NaN	NaN	NaN	NaN	NaN	NaN	NaN	NaN	NaN	NaN	NaN
940.7991057999998	0.4993	sub-17	1	localizer	stimulus	Schuh	NaN	0	3.6528458999999884	NaN	True	NaN	NaN	NaN	NaN	NaN	NaN	NaN
941.2821039	3.6528	sub-17	1	localizer	blank	interval	NaN	NaN	NaN	NaN	NaN	NaN	NaN	NaN	NaN	NaN	NaN	NaN
945.2359430999996	0.4995	sub-17	1	localizer	stimulus	Katze	NaN	0	2.118161700000428	NaN	True	NaN	NaN	NaN	NaN	NaN	NaN	NaN
945.7189465	2.1182	sub-17	1	localizer	blank	interval	NaN	NaN	NaN	NaN	NaN	NaN	NaN	NaN	NaN	NaN	NaN	NaN
948.1382507999996	0.4995	sub-17	1	localizer	stimulus	Gesicht	NaN	180	2.251610900000742	0.584	True	NaN	NaN	NaN	NaN	NaN	NaN	NaN
948.6211998999996	2.2516	sub-17	1	localizer	blank	interval	NaN	NaN	NaN	NaN	NaN	NaN	NaN	NaN	NaN	NaN	NaN	NaN
951.174148000001	0.4993	sub-17	1	localizer	stimulus	Gesicht	NaN	0	2.3018336000005775	NaN	True	NaN	NaN	NaN	NaN	NaN	NaN	NaN
951.6568847999996	2.3018	sub-17	1	localizer	blank	interval	NaN	NaN	NaN	NaN	NaN	NaN	NaN	NaN	NaN	NaN	NaN	NaN
954.259798600001	0.4995	sub-17	1	localizer	stimulus	Stuhl	NaN	0	3.3859513999996125	NaN	True	NaN	NaN	NaN	NaN	NaN	NaN	NaN
954.7427443000006	3.386	sub-17	1	localizer	blank	interval	NaN	NaN	NaN	NaN	NaN	NaN	NaN	NaN	NaN	NaN	NaN	NaN
961.6153012000004	1.0006	sub-17	1	sequence	cue	Haus	NaN	NaN	NaN	NaN	NaN	NaN	NaN	NaN	NaN	NaN	NaN	NaN
962.6159429000008	2.0018	sub-17	1	sequence	blank	blank	NaN	NaN	NaN	NaN	NaN	NaN	NaN	NaN	NaN	NaN	NaN	NaN
964.6177099000006	0.3002	sub-17	1	sequence	fixation	dot	NaN	NaN	NaN	NaN	NaN	NaN	NaN	NaN	NaN	NaN	NaN	NaN
964.9354121000006	0.0992	sub-17	1	sequence	stimulus	Stuhl	NaN	NaN	512.0	NaN	NaN	5.0	1.0	NaN	NaN	NaN	NaN	NaN
965.034646000001	0.517	sub-17	1	sequence	interval	dot	NaN	NaN	NaN	NaN	NaN	NaN	NaN	NaN	NaN	NaN	NaN	NaN
965.5516610000004	0.0999	sub-17	1	sequence	stimulus	Schuh	NaN	NaN	512.0	NaN	NaN	4.0	2.0	NaN	NaN	NaN	NaN	NaN
965.6515793000008	0.5172	sub-17	1	sequence	interval	dot	NaN	NaN	NaN	NaN	NaN	NaN	NaN	NaN	NaN	NaN	NaN	NaN
966.1687634	0.1001	sub-17	1	sequence	stimulus	Gesicht	NaN	NaN	512.0	NaN	NaN	1.0	3.0	NaN	NaN	NaN	NaN	NaN
966.2688358000004	0.5172	sub-17	1	sequence	interval	dot	NaN	NaN	NaN	NaN	NaN	NaN	NaN	NaN	NaN	NaN	NaN	NaN
966.7859956000002	0.1	sub-17	1	sequence	stimulus	Haus	NaN	NaN	512.0	NaN	NaN	2.0	4.0	NaN	NaN	NaN	NaN	NaN
966.8860386000006	0.5172	sub-17	1	sequence	interval	dot	NaN	NaN	NaN	NaN	NaN	NaN	NaN	NaN	NaN	NaN	NaN	NaN
967.4032326000006	0.0999	sub-17	1	sequence	stimulus	Katze	NaN	NaN	512.0	NaN	NaN	3.0	5.0	NaN	NaN	NaN	NaN	NaN
967.5030871999998	0.5169	sub-17	1	sequence	interval	dot	NaN	NaN	NaN	NaN	NaN	NaN	NaN	NaN	NaN	NaN	NaN	NaN
968.0200037000004	6.1534	sub-17	1	sequence	delay	dot	NaN	NaN	NaN	NaN	NaN	NaN	NaN	NaN	NaN	NaN	NaN	NaN
974.1511529999998	1.142	sub-17	1	sequence	choice	choice	right	NaN	NaN	1.1215	True	NaN	NaN	right	True	3.0	4.0	4.0
975.2935624000012	0.4999	sub-17	1	sequence	feedback	NaN	NaN	NaN	NaN	NaN	NaN	NaN	NaN	NaN	NaN	NaN	NaN	NaN
975.7936434000012	1.0002	sub-17	1	sequence	cue	Haus	NaN	NaN	NaN	NaN	NaN	NaN	NaN	NaN	NaN	NaN	NaN	NaN
976.793818000001	2.0016	sub-17	1	sequence	blank	blank	NaN	NaN	NaN	NaN	NaN	NaN	NaN	NaN	NaN	NaN	NaN	NaN
978.7954735000012	0.3002	sub-17	1	sequence	fixation	dot	NaN	NaN	NaN	NaN	NaN	NaN	NaN	NaN	NaN	NaN	NaN	NaN
979.1141992000004	0.1151	sub-17	1	sequence	stimulus	Schuh	NaN	NaN	32.0	NaN	NaN	4.0	1.0	NaN	NaN	NaN	NaN	NaN
979.2292893000003	0.0333	sub-17	1	sequence	interval	dot	NaN	NaN	NaN	NaN	NaN	NaN	NaN	NaN	NaN	NaN	NaN	NaN
979.2626126000004	0.1	sub-17	1	sequence	stimulus	Stuhl	NaN	NaN	32.0	NaN	NaN	5.0	2.0	NaN	NaN	NaN	NaN	NaN
979.3626429000004	0.0334	sub-17	1	sequence	interval	dot	NaN	NaN	NaN	NaN	NaN	NaN	NaN	NaN	NaN	NaN	NaN	NaN
979.3960409	0.0999	sub-17	1	sequence	stimulus	Katze	NaN	NaN	32.0	NaN	NaN	3.0	3.0	NaN	NaN	NaN	NaN	NaN
979.4959831000006	0.0335	sub-17	1	sequence	interval	dot	NaN	NaN	NaN	NaN	NaN	NaN	NaN	NaN	NaN	NaN	NaN	NaN
979.529485600001	0.0999	sub-17	1	sequence	stimulus	Gesicht	NaN	NaN	32.0	NaN	NaN	1.0	4.0	NaN	NaN	NaN	NaN	NaN
979.629426800001	0.0335	sub-17	1	sequence	interval	dot	NaN	NaN	NaN	NaN	NaN	NaN	NaN	NaN	NaN	NaN	NaN	NaN
979.6629452000006	0.0999	sub-17	1	sequence	stimulus	Haus	NaN	NaN	32.0	NaN	NaN	2.0	5.0	NaN	NaN	NaN	NaN	NaN
979.7628945000006	0.0333	sub-17	1	sequence	interval	dot	NaN	NaN	NaN	NaN	NaN	NaN	NaN	NaN	NaN	NaN	NaN	NaN
979.7962411	8.5388	sub-17	1	sequence	delay	dot	NaN	NaN	NaN	NaN	NaN	NaN	NaN	NaN	NaN	NaN	NaN	NaN
988.3208296000004	0.8171	sub-17	1	sequence	choice	choice	left	NaN	NaN	0.8052	True	NaN	NaN	left	True	5.0	4.0	5.0
989.1381441000004	0.4996	sub-17	1	sequence	feedback	NaN	NaN	NaN	NaN	NaN	NaN	NaN	NaN	NaN	NaN	NaN	NaN	NaN
989.637915100001	1.0004	sub-17	1	sequence	cue	Gesicht	NaN	NaN	NaN	NaN	NaN	NaN	NaN	NaN	NaN	NaN	NaN	NaN
990.6383618999998	2.0017	sub-17	1	sequence	blank	blank	NaN	NaN	NaN	NaN	NaN	NaN	NaN	NaN	NaN	NaN	NaN	NaN
992.6400490000004	0.3003	sub-17	1	sequence	fixation	dot	NaN	NaN	NaN	NaN	NaN	NaN	NaN	NaN	NaN	NaN	NaN	NaN
992.958517600001	0.1151	sub-17	1	sequence	stimulus	Schuh	NaN	NaN	64.0	NaN	NaN	4.0	1.0	NaN	NaN	NaN	NaN	NaN
993.0736575	0.0668	sub-17	1	sequence	interval	dot	NaN	NaN	NaN	NaN	NaN	NaN	NaN	NaN	NaN	NaN	NaN	NaN
993.1404329999996	0.1001	sub-17	1	sequence	stimulus	Stuhl	NaN	NaN	64.0	NaN	NaN	5.0	2.0	NaN	NaN	NaN	NaN	NaN
993.2405418000008	0.0668	sub-17	1	sequence	interval	dot	NaN	NaN	NaN	NaN	NaN	NaN	NaN	NaN	NaN	NaN	NaN	NaN
993.3073677000002	0.1	sub-17	1	sequence	stimulus	Gesicht	NaN	NaN	64.0	NaN	NaN	1.0	3.0	NaN	NaN	NaN	NaN	NaN
993.4073392	0.0668	sub-17	1	sequence	interval	dot	NaN	NaN	NaN	NaN	NaN	NaN	NaN	NaN	NaN	NaN	NaN	NaN
993.4741710999996	0.1	sub-17	1	sequence	stimulus	Haus	NaN	NaN	64.0	NaN	NaN	2.0	4.0	NaN	NaN	NaN	NaN	NaN
993.574137300001	0.0668	sub-17	1	sequence	interval	dot	NaN	NaN	NaN	NaN	NaN	NaN	NaN	NaN	NaN	NaN	NaN	NaN
993.6409109000006	0.1	sub-17	1	sequence	stimulus	Katze	NaN	NaN	64.0	NaN	NaN	3.0	5.0	NaN	NaN	NaN	NaN	NaN
993.7408748000008	0.0668	sub-17	1	sequence	interval	dot	NaN	NaN	NaN	NaN	NaN	NaN	NaN	NaN	NaN	NaN	NaN	NaN
993.8076363000008	8.3886	sub-17	1	sequence	delay	dot	NaN	NaN	NaN	NaN	NaN	NaN	NaN	NaN	NaN	NaN	NaN	NaN
1002.1786409000006	0.6372	sub-17	1	sequence	choice	choice	left	NaN	NaN	0.6215	True	NaN	NaN	left	True	3.0	4.0	3.0
1002.8160515999998	0.4995	sub-17	1	sequence	feedback	NaN	NaN	NaN	NaN	NaN	NaN	NaN	NaN	NaN	NaN	NaN	NaN	NaN
1003.3157328999996	1.0005	sub-17	1	sequence	cue	Stuhl	NaN	NaN	NaN	NaN	NaN	NaN	NaN	NaN	NaN	NaN	NaN	NaN
1004.3162088	2.0017	sub-17	1	sequence	blank	blank	NaN	NaN	NaN	NaN	NaN	NaN	NaN	NaN	NaN	NaN	NaN	NaN
1006.317946600001	0.3002	sub-17	1	sequence	fixation	dot	NaN	NaN	NaN	NaN	NaN	NaN	NaN	NaN	NaN	NaN	NaN	NaN
1006.635448	0.0995	sub-17	1	sequence	stimulus	Katze	NaN	NaN	128.0	NaN	NaN	3.0	1.0	NaN	NaN	NaN	NaN	NaN
1006.7349916000012	0.1334	sub-17	1	sequence	interval	dot	NaN	NaN	NaN	NaN	NaN	NaN	NaN	NaN	NaN	NaN	NaN	NaN
1006.8683979999996	0.0999	sub-17	1	sequence	stimulus	Haus	NaN	NaN	128.0	NaN	NaN	2.0	2.0	NaN	NaN	NaN	NaN	NaN
1006.9683446999998	0.1337	sub-17	1	sequence	interval	dot	NaN	NaN	NaN	NaN	NaN	NaN	NaN	NaN	NaN	NaN	NaN	NaN
1007.1020221999996	0.0999	sub-17	1	sequence	stimulus	Stuhl	NaN	NaN	128.0	NaN	NaN	5.0	3.0	NaN	NaN	NaN	NaN	NaN
1007.2019695000008	0.1335	sub-17	1	sequence	interval	dot	NaN	NaN	NaN	NaN	NaN	NaN	NaN	NaN	NaN	NaN	NaN	NaN
1007.3354726000008	0.0998	sub-17	1	sequence	stimulus	Schuh	NaN	NaN	128.0	NaN	NaN	4.0	4.0	NaN	NaN	NaN	NaN	NaN
1007.4353156000006	0.1337	sub-17	1	sequence	interval	dot	NaN	NaN	NaN	NaN	NaN	NaN	NaN	NaN	NaN	NaN	NaN	NaN
1007.5689900999996	0.1	sub-17	1	sequence	stimulus	Gesicht	NaN	NaN	128.0	NaN	NaN	1.0	5.0	NaN	NaN	NaN	NaN	NaN
1007.6689746000002	0.1333	sub-17	1	sequence	interval	dot	NaN	NaN	NaN	NaN	NaN	NaN	NaN	NaN	NaN	NaN	NaN	NaN
1007.8022994000012	8.0717	sub-17	1	sequence	delay	dot	NaN	NaN	NaN	NaN	NaN	NaN	NaN	NaN	NaN	NaN	NaN	NaN
1015.8543758000004	0.8389	sub-17	1	sequence	choice	choice	right	NaN	NaN	0.8209	True	NaN	NaN	right	True	5.0	3.0	3.0
1016.6935605000008	0.5	sub-17	1	sequence	feedback	NaN	NaN	NaN	NaN	NaN	NaN	NaN	NaN	NaN	NaN	NaN	NaN	NaN
1017.1937589	1.0002	sub-17	1	sequence	cue	Haus	NaN	NaN	NaN	NaN	NaN	NaN	NaN	NaN	NaN	NaN	NaN	NaN
1018.1939653	2.0017	sub-17	1	sequence	blank	blank	NaN	NaN	NaN	NaN	NaN	NaN	NaN	NaN	NaN	NaN	NaN	NaN
1020.1956993000013	0.3001	sub-17	1	sequence	fixation	dot	NaN	NaN	NaN	NaN	NaN	NaN	NaN	NaN	NaN	NaN	NaN	NaN
1020.5145866000012	0.1149	sub-17	1	sequence	stimulus	Gesicht	NaN	NaN	512.0	NaN	NaN	1.0	1.0	NaN	NaN	NaN	NaN	NaN
1020.6294465	0.517	sub-17	1	sequence	interval	dot	NaN	NaN	NaN	NaN	NaN	NaN	NaN	NaN	NaN	NaN	NaN	NaN
1021.146486300001	0.1	sub-17	1	sequence	stimulus	Schuh	NaN	NaN	512.0	NaN	NaN	4.0	2.0	NaN	NaN	NaN	NaN	NaN
1021.2464608	0.5171	sub-17	1	sequence	interval	dot	NaN	NaN	NaN	NaN	NaN	NaN	NaN	NaN	NaN	NaN	NaN	NaN
1021.7636091000012	0.1	sub-17	1	sequence	stimulus	Katze	NaN	NaN	512.0	NaN	NaN	3.0	3.0	NaN	NaN	NaN	NaN	NaN
1021.8636161000004	0.5174	sub-17	1	sequence	interval	dot	NaN	NaN	NaN	NaN	NaN	NaN	NaN	NaN	NaN	NaN	NaN	NaN
1022.3809752999996	0.1	sub-17	1	sequence	stimulus	Stuhl	NaN	NaN	512.0	NaN	NaN	5.0	4.0	NaN	NaN	NaN	NaN	NaN
1022.4809508999996	0.5172	sub-17	1	sequence	interval	dot	NaN	NaN	NaN	NaN	NaN	NaN	NaN	NaN	NaN	NaN	NaN	NaN
1022.9981893000012	0.0999	sub-17	1	sequence	stimulus	Haus	NaN	NaN	512.0	NaN	NaN	2.0	5.0	NaN	NaN	NaN	NaN	NaN
1023.0981140000011	0.5171	sub-17	1	sequence	interval	dot	NaN	NaN	NaN	NaN	NaN	NaN	NaN	NaN	NaN	NaN	NaN	NaN
1023.6152042000004	6.1368	sub-17	1	sequence	delay	dot	NaN	NaN	NaN	NaN	NaN	NaN	NaN	NaN	NaN	NaN	NaN	NaN
1029.7380209000012	0.6	sub-17	1	sequence	choice	choice	right	NaN	NaN	0.5878	True	NaN	NaN	right	True	4.0	5.0	5.0
1030.338245100001	0.4996	sub-17	1	sequence	feedback	NaN	NaN	NaN	NaN	NaN	NaN	NaN	NaN	NaN	NaN	NaN	NaN	NaN
1030.8380227999996	1.0003	sub-17	1	sequence	cue	Katze	NaN	NaN	NaN	NaN	NaN	NaN	NaN	NaN	NaN	NaN	NaN	NaN
1031.8383314000012	2.0016	sub-17	1	sequence	blank	blank	NaN	NaN	NaN	NaN	NaN	NaN	NaN	NaN	NaN	NaN	NaN	NaN
1033.8399376999996	0.3002	sub-17	1	sequence	fixation	dot	NaN	NaN	NaN	NaN	NaN	NaN	NaN	NaN	NaN	NaN	NaN	NaN
1034.1585468000003	0.1151	sub-17	1	sequence	stimulus	Stuhl	NaN	NaN	128.0	NaN	NaN	5.0	1.0	NaN	NaN	NaN	NaN	NaN
1034.2736108	0.1335	sub-17	1	sequence	interval	dot	NaN	NaN	NaN	NaN	NaN	NaN	NaN	NaN	NaN	NaN	NaN	NaN
1034.4071359	0.1	sub-17	1	sequence	stimulus	Schuh	NaN	NaN	128.0	NaN	NaN	4.0	2.0	NaN	NaN	NaN	NaN	NaN
1034.507171100001	0.1336	sub-17	1	sequence	interval	dot	NaN	NaN	NaN	NaN	NaN	NaN	NaN	NaN	NaN	NaN	NaN	NaN
1034.6407859	0.1	sub-17	1	sequence	stimulus	Gesicht	NaN	NaN	128.0	NaN	NaN	1.0	3.0	NaN	NaN	NaN	NaN	NaN
1034.7407703	0.1335	sub-17	1	sequence	interval	dot	NaN	NaN	NaN	NaN	NaN	NaN	NaN	NaN	NaN	NaN	NaN	NaN
1034.8742989000011	0.0999	sub-17	1	sequence	stimulus	Katze	NaN	NaN	128.0	NaN	NaN	3.0	4.0	NaN	NaN	NaN	NaN	NaN
1034.9741566000002	0.1336	sub-17	1	sequence	interval	dot	NaN	NaN	NaN	NaN	NaN	NaN	NaN	NaN	NaN	NaN	NaN	NaN
1035.107747500001	0.1001	sub-17	1	sequence	stimulus	Haus	NaN	NaN	128.0	NaN	NaN	2.0	5.0	NaN	NaN	NaN	NaN	NaN
1035.207805000001	0.1334	sub-17	1	sequence	interval	dot	NaN	NaN	NaN	NaN	NaN	NaN	NaN	NaN	NaN	NaN	NaN	NaN
1035.341179600001	8.0717	sub-17	1	sequence	delay	dot	NaN	NaN	NaN	NaN	NaN	NaN	NaN	NaN	NaN	NaN	NaN	NaN
1043.3877662000004	0.7278	sub-17	1	sequence	choice	choice	right	NaN	NaN	0.7046	True	NaN	NaN	right	True	5.0	4.0	4.0
1044.1158349999996	0.4998	sub-17	1	sequence	feedback	NaN	NaN	NaN	NaN	NaN	NaN	NaN	NaN	NaN	NaN	NaN	NaN	NaN
1044.6157547000012	1.0006	sub-17	1	sequence	cue	Schuh	NaN	NaN	NaN	NaN	NaN	NaN	NaN	NaN	NaN	NaN	NaN	NaN
1045.6163165999997	2.0014	sub-17	1	sequence	blank	blank	NaN	NaN	NaN	NaN	NaN	NaN	NaN	NaN	NaN	NaN	NaN	NaN
1047.6177579000005	0.3004	sub-17	1	sequence	fixation	dot	NaN	NaN	NaN	NaN	NaN	NaN	NaN	NaN	NaN	NaN	NaN	NaN
1047.9356992000005	0.0993	sub-17	1	sequence	stimulus	Katze	NaN	NaN	64.0	NaN	NaN	3.0	1.0	NaN	NaN	NaN	NaN	NaN
1048.0350088000005	0.0668	sub-17	1	sequence	interval	dot	NaN	NaN	NaN	NaN	NaN	NaN	NaN	NaN	NaN	NaN	NaN	NaN
1048.101853700001	0.1001	sub-17	1	sequence	stimulus	Gesicht	NaN	NaN	64.0	NaN	NaN	1.0	2.0	NaN	NaN	NaN	NaN	NaN
1048.2019965000009	0.0672	sub-17	1	sequence	interval	dot	NaN	NaN	NaN	NaN	NaN	NaN	NaN	NaN	NaN	NaN	NaN	NaN
1048.2691864	0.0994	sub-17	1	sequence	stimulus	Haus	NaN	NaN	64.0	NaN	NaN	2.0	3.0	NaN	NaN	NaN	NaN	NaN
1048.3685716999998	0.0668	sub-17	1	sequence	interval	dot	NaN	NaN	NaN	NaN	NaN	NaN	NaN	NaN	NaN	NaN	NaN	NaN
1048.4354116000004	0.1	sub-17	1	sequence	stimulus	Schuh	NaN	NaN	64.0	NaN	NaN	4.0	4.0	NaN	NaN	NaN	NaN	NaN
1048.5353838	0.0668	sub-17	1	sequence	interval	dot	NaN	NaN	NaN	NaN	NaN	NaN	NaN	NaN	NaN	NaN	NaN	NaN
1048.6021759000005	0.1	sub-17	1	sequence	stimulus	Stuhl	NaN	NaN	64.0	NaN	NaN	5.0	5.0	NaN	NaN	NaN	NaN	NaN
1048.7021800000011	0.0667	sub-17	1	sequence	interval	dot	NaN	NaN	NaN	NaN	NaN	NaN	NaN	NaN	NaN	NaN	NaN	NaN
1048.7688614999995	8.3884	sub-17	1	sequence	delay	dot	NaN	NaN	NaN	NaN	NaN	NaN	NaN	NaN	NaN	NaN	NaN	NaN
1057.1416780999998	0.785	sub-17	1	sequence	choice	choice	left	NaN	NaN	0.7541	True	NaN	NaN	left	True	4.0	5.0	4.0
1057.9269159000005	0.4998	sub-17	1	sequence	feedback	NaN	NaN	NaN	NaN	NaN	NaN	NaN	NaN	NaN	NaN	NaN	NaN	NaN
1058.4268275000004	1.0005	sub-17	1	sequence	cue	Gesicht	NaN	NaN	NaN	NaN	NaN	NaN	NaN	NaN	NaN	NaN	NaN	NaN
1059.427310800001	2.0016	sub-17	1	sequence	blank	blank	NaN	NaN	NaN	NaN	NaN	NaN	NaN	NaN	NaN	NaN	NaN	NaN
1061.4289094000003	0.3003	sub-17	1	sequence	fixation	dot	NaN	NaN	NaN	NaN	NaN	NaN	NaN	NaN	NaN	NaN	NaN	NaN
1061.746975000001	0.0991	sub-17	1	sequence	stimulus	Stuhl	NaN	NaN	32.0	NaN	NaN	5.0	1.0	NaN	NaN	NaN	NaN	NaN
1061.846082000001	0.0336	sub-17	1	sequence	interval	dot	NaN	NaN	NaN	NaN	NaN	NaN	NaN	NaN	NaN	NaN	NaN	NaN
1061.8796713000002	0.0997	sub-17	1	sequence	stimulus	Gesicht	NaN	NaN	32.0	NaN	NaN	1.0	2.0	NaN	NaN	NaN	NaN	NaN
1061.9794069000009	0.0335	sub-17	1	sequence	interval	dot	NaN	NaN	NaN	NaN	NaN	NaN	NaN	NaN	NaN	NaN	NaN	NaN
1062.0128981000007	0.1	sub-17	1	sequence	stimulus	Katze	NaN	NaN	32.0	NaN	NaN	3.0	3.0	NaN	NaN	NaN	NaN	NaN
1062.1128598000005	0.0335	sub-17	1	sequence	interval	dot	NaN	NaN	NaN	NaN	NaN	NaN	NaN	NaN	NaN	NaN	NaN	NaN
1062.1463227000013	0.1	sub-17	1	sequence	stimulus	Schuh	NaN	NaN	32.0	NaN	NaN	4.0	4.0	NaN	NaN	NaN	NaN	NaN
1062.2463352000004	0.0334	sub-17	1	sequence	interval	dot	NaN	NaN	NaN	NaN	NaN	NaN	NaN	NaN	NaN	NaN	NaN	NaN
1062.2797816000011	0.0999	sub-17	1	sequence	stimulus	Haus	NaN	NaN	32.0	NaN	NaN	2.0	5.0	NaN	NaN	NaN	NaN	NaN
1062.3797292000008	0.0334	sub-17	1	sequence	interval	dot	NaN	NaN	NaN	NaN	NaN	NaN	NaN	NaN	NaN	NaN	NaN	NaN
1062.4131582	8.522	sub-17	1	sequence	delay	dot	NaN	NaN	NaN	NaN	NaN	NaN	NaN	NaN	NaN	NaN	NaN	NaN
1070.9214371000007	0.85	sub-17	1	sequence	choice	choice	left	NaN	NaN	0.838	True	NaN	NaN	left	True	2.0	5.0	2.0
1071.771737600001	0.4997	sub-17	1	sequence	feedback	NaN	NaN	NaN	NaN	NaN	NaN	NaN	NaN	NaN	NaN	NaN	NaN	NaN
1076.0916908999998	0.4995	sub-17	1	localizer	stimulus	Gesicht	NaN	0	3.1190456000003906	NaN	True	NaN	NaN	NaN	NaN	NaN	NaN	NaN
1076.5746558	3.119	sub-17	1	localizer	blank	interval	NaN	NaN	NaN	NaN	NaN	NaN	NaN	NaN	NaN	NaN	NaN	NaN
1079.9948093000012	0.4995	sub-17	1	localizer	stimulus	Katze	NaN	0	2.0516628000004857	NaN	True	NaN	NaN	NaN	NaN	NaN	NaN	NaN
1080.4777511000002	2.0517	sub-17	1	localizer	blank	interval	NaN	NaN	NaN	NaN	NaN	NaN	NaN	NaN	NaN	NaN	NaN	NaN
1082.8304642000012	0.5002	sub-17	1	localizer	stimulus	Stuhl	NaN	0	1.8679009000009046	NaN	True	NaN	NaN	NaN	NaN	NaN	NaN	NaN
1083.3137342	1.8679	sub-17	1	localizer	blank	interval	NaN	NaN	NaN	NaN	NaN	NaN	NaN	NaN	NaN	NaN	NaN	NaN
1085.4827350000005	0.4996	sub-17	1	localizer	stimulus	Gesicht	NaN	0	2.7685660000006465	NaN	True	NaN	NaN	NaN	NaN	NaN	NaN	NaN
1085.9657431000005	2.7686	sub-17	1	localizer	blank	interval	NaN	NaN	NaN	NaN	NaN	NaN	NaN	NaN	NaN	NaN	NaN	NaN
1089.0357023999995	0.4993	sub-17	1	localizer	stimulus	Haus	NaN	0	2.3849991999995837	NaN	True	NaN	NaN	NaN	NaN	NaN	NaN	NaN
1089.5187421	2.385	sub-17	1	localizer	blank	interval	NaN	NaN	NaN	NaN	NaN	NaN	NaN	NaN	NaN	NaN	NaN	NaN
1092.2048688000004	0.4995	sub-17	1	localizer	stimulus	Haus	NaN	0	2.735182899999927	NaN	True	NaN	NaN	NaN	NaN	NaN	NaN	NaN
1092.6879884	2.7352	sub-17	1	localizer	blank	interval	NaN	NaN	NaN	NaN	NaN	NaN	NaN	NaN	NaN	NaN	NaN	NaN
1095.724241700001	0.4995	sub-17	1	localizer	stimulus	Katze	NaN	0	1.6178313000000344	NaN	True	NaN	NaN	NaN	NaN	NaN	NaN	NaN
1096.2072318	1.6178	sub-17	1	localizer	blank	interval	NaN	NaN	NaN	NaN	NaN	NaN	NaN	NaN	NaN	NaN	NaN	NaN
1098.1262314000005	0.4994	sub-17	1	localizer	stimulus	Gesicht	NaN	0	2.652023099999269	NaN	True	NaN	NaN	NaN	NaN	NaN	NaN	NaN
1098.609201300001	2.652	sub-17	1	localizer	blank	interval	NaN	NaN	NaN	NaN	NaN	NaN	NaN	NaN	NaN	NaN	NaN	NaN
1101.562256600001	0.4995	sub-17	1	localizer	stimulus	Schuh	NaN	0	2.201794800001153	NaN	True	NaN	NaN	NaN	NaN	NaN	NaN	NaN
1102.0452925	2.2018	sub-17	1	localizer	blank	interval	NaN	NaN	NaN	NaN	NaN	NaN	NaN	NaN	NaN	NaN	NaN	NaN
1104.548010200001	0.4997	sub-17	1	localizer	stimulus	Katze	NaN	180	2.435090900000432	0.5174	True	NaN	NaN	NaN	NaN	NaN	NaN	NaN
1105.0310333999996	2.4351	sub-17	1	localizer	blank	interval	NaN	NaN	NaN	NaN	NaN	NaN	NaN	NaN	NaN	NaN	NaN	NaN
1107.7672626000012	0.4995	sub-17	1	localizer	stimulus	Schuh	NaN	0	2.2515803999995114	NaN	True	NaN	NaN	NaN	NaN	NaN	NaN	NaN
1108.2503198000004	2.2516	sub-17	1	localizer	blank	interval	NaN	NaN	NaN	NaN	NaN	NaN	NaN	NaN	NaN	NaN	NaN	NaN
1110.803137400001	0.4996	sub-17	1	localizer	stimulus	Haus	NaN	0	2.952152399999477	NaN	True	NaN	NaN	NaN	NaN	NaN	NaN	NaN
1111.2863136000003	2.9522	sub-17	1	localizer	blank	interval	NaN	NaN	NaN	NaN	NaN	NaN	NaN	NaN	NaN	NaN	NaN	NaN
1114.5394841999996	0.4996	sub-17	1	localizer	stimulus	Stuhl	NaN	0	2.284998099999939	NaN	True	NaN	NaN	NaN	NaN	NaN	NaN	NaN
1115.0224234999996	2.285	sub-17	1	localizer	blank	interval	NaN	NaN	NaN	NaN	NaN	NaN	NaN	NaN	NaN	NaN	NaN	NaN
1117.6085633000012	0.4996	sub-17	1	localizer	stimulus	Schuh	NaN	0	2.3851058000000194	NaN	True	NaN	NaN	NaN	NaN	NaN	NaN	NaN
1118.0915558000006	2.3851	sub-17	1	localizer	blank	interval	NaN	NaN	NaN	NaN	NaN	NaN	NaN	NaN	NaN	NaN	NaN	NaN
1120.7778267000003	0.4995	sub-17	1	localizer	stimulus	Schuh	NaN	180	2.301803700000164	0.5507	True	NaN	NaN	NaN	NaN	NaN	NaN	NaN
1121.260859000001	2.3018	sub-17	1	localizer	blank	interval	NaN	NaN	NaN	NaN	NaN	NaN	NaN	NaN	NaN	NaN	NaN	NaN
1123.8636610000003	0.5	sub-17	1	localizer	stimulus	Stuhl	NaN	0	1.9012532999986433	NaN	True	NaN	NaN	NaN	NaN	NaN	NaN	NaN
1124.346910700001	1.9013	sub-17	1	localizer	blank	interval	NaN	NaN	NaN	NaN	NaN	NaN	NaN	NaN	NaN	NaN	NaN	NaN
1126.5494427000003	0.4994	sub-17	1	localizer	stimulus	Haus	NaN	0	3.0023774999990565	NaN	True	NaN	NaN	NaN	NaN	NaN	NaN	NaN
1127.032129600001	3.0024	sub-17	1	localizer	blank	interval	NaN	NaN	NaN	NaN	NaN	NaN	NaN	NaN	NaN	NaN	NaN	NaN
1130.3357198000003	0.4994	sub-17	1	localizer	stimulus	Schuh	NaN	0	1.8515092999987246	NaN	True	NaN	NaN	NaN	NaN	NaN	NaN	NaN
1130.8185658000011	1.8515	sub-17	1	localizer	blank	interval	NaN	NaN	NaN	NaN	NaN	NaN	NaN	NaN	NaN	NaN	NaN	NaN
