onset	duration	subject	session	condition	trial_type	stim_label	key_down	orientation	interval_time	response_time	accuracy	stim_index	serial_position	key_expected	key_pressed	choice_left	choice_right	choice_correct
1.2653725000000122	3.5331	sub-20	1	instruction	instruction	language_selection	german	NaN	NaN	NaN	NaN	NaN	NaN	NaN	NaN	NaN	NaN	NaN
40.06098120000024	0.4995	sub-20	1	localizer	stimulus	Stuhl	NaN	0	3.0856426000000283	NaN	1.0	NaN	NaN	NaN	NaN	NaN	NaN	NaN
40.54393800000025	3.0856	sub-20	1	localizer	blank	interval	NaN	NaN	NaN	NaN	NaN	NaN	NaN	NaN	NaN	NaN	NaN	NaN
43.93074160000015	0.4995	sub-20	1	localizer	stimulus	Katze	NaN	0	2.4351466999996774	NaN	True	NaN	NaN	NaN	NaN	NaN	NaN	NaN
44.41373790000034	2.4351	sub-20	1	localizer	blank	interval	NaN	NaN	NaN	NaN	NaN	NaN	NaN	NaN	NaN	NaN	NaN	NaN
47.15002249999998	0.4995	sub-20	1	localizer	stimulus	Schuh	NaN	0	2.2516442000001007	NaN	True	NaN	NaN	NaN	NaN	NaN	NaN	NaN
47.63306610000018	2.2516	sub-20	1	localizer	blank	interval	NaN	NaN	NaN	NaN	NaN	NaN	NaN	NaN	NaN	NaN	NaN	NaN
50.18582080000033	0.4995	sub-20	1	localizer	stimulus	Schuh	NaN	180	2.168258899999728	0.6604153999996925	True	NaN	NaN	NaN	NaN	NaN	NaN	NaN
50.66881970000031	2.1683	sub-20	1	localizer	blank	interval	NaN	NaN	NaN	NaN	NaN	NaN	NaN	NaN	NaN	NaN	NaN	NaN
53.13819319999993	0.4995	sub-20	1	localizer	stimulus	Katze	NaN	0	3.0024726999999984	NaN	True	NaN	NaN	NaN	NaN	NaN	NaN	NaN
53.62120750000031	3.0025	sub-20	1	localizer	blank	interval	NaN	NaN	NaN	NaN	NaN	NaN	NaN	NaN	NaN	NaN	NaN	NaN
56.924575	0.4997	sub-20	1	localizer	stimulus	Katze	NaN	180	2.218242200000077	0.5376415999999153	True	NaN	NaN	NaN	NaN	NaN	NaN	NaN
57.40769050000017	2.2182	sub-20	1	localizer	blank	interval	NaN	NaN	NaN	NaN	NaN	NaN	NaN	NaN	NaN	NaN	NaN	NaN
59.92702650000001	0.4995	sub-20	1	localizer	stimulus	Haus	NaN	0	1.6011438000000382	NaN	True	NaN	NaN	NaN	NaN	NaN	NaN	NaN
60.40999770000008	1.6011	sub-20	1	localizer	blank	interval	NaN	NaN	NaN	NaN	NaN	NaN	NaN	NaN	NaN	NaN	NaN	NaN
62.31227500000023	0.4995	sub-20	1	localizer	stimulus	Stuhl	NaN	0	2.084852899999987	NaN	True	NaN	NaN	NaN	NaN	NaN	NaN	NaN
62.79530740000018	2.0849	sub-20	1	localizer	blank	interval	NaN	NaN	NaN	NaN	NaN	NaN	NaN	NaN	NaN	NaN	NaN	NaN
65.18127210000011	0.4995	sub-20	1	localizer	stimulus	Gesicht	NaN	0	2.8187699999998586	0.60896670000011	False	NaN	NaN	NaN	NaN	NaN	NaN	NaN
65.66431280000006	2.8188	sub-20	1	localizer	blank	interval	NaN	NaN	NaN	NaN	NaN	NaN	NaN	NaN	NaN	NaN	NaN	NaN
68.78415380000024	0.4996	sub-20	1	localizer	stimulus	Schuh	NaN	0	2.2349731999997857	NaN	True	NaN	NaN	NaN	NaN	NaN	NaN	NaN
69.26721230000021	2.235	sub-20	1	localizer	blank	interval	NaN	NaN	NaN	NaN	NaN	NaN	NaN	NaN	NaN	NaN	NaN	NaN
71.80328839999993	0.4996	sub-20	1	localizer	stimulus	Stuhl	NaN	0	1.7512865999997302	NaN	True	NaN	NaN	NaN	NaN	NaN	NaN	NaN
72.2863282000003	1.7513	sub-20	1	localizer	blank	interval	NaN	NaN	NaN	NaN	NaN	NaN	NaN	NaN	NaN	NaN	NaN	NaN
74.33865930000002	0.4996	sub-20	1	localizer	stimulus	Schuh	NaN	0	2.902330500000062	NaN	True	NaN	NaN	NaN	NaN	NaN	NaN	NaN
74.82173409999996	2.9023	sub-20	1	localizer	blank	interval	NaN	NaN	NaN	NaN	NaN	NaN	NaN	NaN	NaN	NaN	NaN	NaN
78.02504920000001	0.4996	sub-20	1	localizer	stimulus	Gesicht	NaN	180	2.8687704000003578	0.5653163000001769	True	NaN	NaN	NaN	NaN	NaN	NaN	NaN
78.50811539999995	2.8688	sub-20	1	localizer	blank	interval	NaN	NaN	NaN	NaN	NaN	NaN	NaN	NaN	NaN	NaN	NaN	NaN
81.67804290000004	0.4995	sub-20	1	localizer	stimulus	Stuhl	NaN	0	1.8847108999998454	NaN	True	NaN	NaN	NaN	NaN	NaN	NaN	NaN
82.16097770000033	1.8847	sub-20	1	localizer	blank	interval	NaN	NaN	NaN	NaN	NaN	NaN	NaN	NaN	NaN	NaN	NaN	NaN
84.34674440000026	0.4996	sub-20	1	localizer	stimulus	Stuhl	NaN	180	2.4517500000001746	0.6034651999998459	True	NaN	NaN	NaN	NaN	NaN	NaN	NaN
84.82989050000015	2.4518	sub-20	1	localizer	blank	interval	NaN	NaN	NaN	NaN	NaN	NaN	NaN	NaN	NaN	NaN	NaN	NaN
87.5827747000003	0.4995	sub-20	1	localizer	stimulus	Haus	NaN	0	3.2691374999999425	NaN	True	NaN	NaN	NaN	NaN	NaN	NaN	NaN
88.0657782000003	3.2691	sub-20	1	localizer	blank	interval	NaN	NaN	NaN	NaN	NaN	NaN	NaN	NaN	NaN	NaN	NaN	NaN
91.63603090000016	0.4995	sub-20	1	localizer	stimulus	Haus	NaN	0	2.2349770999999095	NaN	True	NaN	NaN	NaN	NaN	NaN	NaN	NaN
92.11904980000008	2.235	sub-20	1	localizer	blank	interval	NaN	NaN	NaN	NaN	NaN	NaN	NaN	NaN	NaN	NaN	NaN	NaN
94.65512500000024	0.4995	sub-20	1	localizer	stimulus	Schuh	NaN	0	2.2017008999996364	NaN	True	NaN	NaN	NaN	NaN	NaN	NaN	NaN
95.13812350000036	2.2017	sub-20	1	localizer	blank	interval	NaN	NaN	NaN	NaN	NaN	NaN	NaN	NaN	NaN	NaN	NaN	NaN
97.64100090000012	0.4996	sub-20	1	localizer	stimulus	Haus	NaN	0	2.335152499999822	NaN	True	NaN	NaN	NaN	NaN	NaN	NaN	NaN
98.12404480000032	2.3352	sub-20	1	localizer	blank	interval	NaN	NaN	NaN	NaN	NaN	NaN	NaN	NaN	NaN	NaN	NaN	NaN
100.7602538000001	0.4994	sub-20	1	localizer	stimulus	Gesicht	NaN	0	2.2682870999997107	NaN	True	NaN	NaN	NaN	NaN	NaN	NaN	NaN
101.24314970000025	2.2683	sub-20	1	localizer	blank	interval	NaN	NaN	NaN	NaN	NaN	NaN	NaN	NaN	NaN	NaN	NaN	NaN
103.8125229000002	0.4996	sub-20	1	localizer	stimulus	Katze	NaN	0	2.6351402000000235	NaN	True	NaN	NaN	NaN	NaN	NaN	NaN	NaN
104.29562179999994	2.6351	sub-20	1	localizer	blank	interval	NaN	NaN	NaN	NaN	NaN	NaN	NaN	NaN	NaN	NaN	NaN	NaN
107.23187940000024	0.4997	sub-20	1	localizer	stimulus	Gesicht	NaN	0	2.551902399999989	NaN	True	NaN	NaN	NaN	NaN	NaN	NaN	NaN
107.7150385	2.5519	sub-20	1	localizer	blank	interval	NaN	NaN	NaN	NaN	NaN	NaN	NaN	NaN	NaN	NaN	NaN	NaN
110.56801450000012	0.4995	sub-20	1	localizer	stimulus	Gesicht	NaN	0	2.7353650000000016	NaN	True	NaN	NaN	NaN	NaN	NaN	NaN	NaN
111.05101620000003	2.7354	sub-20	1	localizer	blank	interval	NaN	NaN	NaN	NaN	NaN	NaN	NaN	NaN	NaN	NaN	NaN	NaN
114.0875390000001	0.4996	sub-20	1	localizer	stimulus	Haus	NaN	180	2.3850728999995994	0.614860900000167	True	NaN	NaN	NaN	NaN	NaN	NaN	NaN
114.57055280000031	2.3851	sub-20	1	localizer	blank	interval	NaN	NaN	NaN	NaN	NaN	NaN	NaN	NaN	NaN	NaN	NaN	NaN
117.25681110000004	0.4994	sub-20	1	localizer	stimulus	Katze	NaN	0	2.3851349000001676	NaN	True	NaN	NaN	NaN	NaN	NaN	NaN	NaN
117.73973419999992	2.3851	sub-20	1	localizer	blank	interval	NaN	NaN	NaN	NaN	NaN	NaN	NaN	NaN	NaN	NaN	NaN	NaN
123.61129720000008	1.0006	sub-20	1	sequence	cue	Katze	NaN	NaN	NaN	NaN	NaN	NaN	NaN	NaN	NaN	NaN	NaN	NaN
124.61187470000004	2.0016	sub-20	1	sequence	blank	blank	NaN	NaN	NaN	NaN	NaN	NaN	NaN	NaN	NaN	NaN	NaN	NaN
126.61346900000036	0.3002	sub-20	1	sequence	fixation	dot	NaN	NaN	NaN	NaN	NaN	NaN	NaN	NaN	NaN	NaN	NaN	NaN
126.96177519999992	0.102	sub-20	1	sequence	stimulus	Schuh	NaN	NaN	64.0	NaN	NaN	4.0	1.0	NaN	NaN	NaN	NaN	NaN
127.0638111000003	0.0669	sub-20	1	sequence	interval	dot	NaN	NaN	NaN	NaN	NaN	NaN	NaN	NaN	NaN	NaN	NaN	NaN
127.13068569999996	0.0999	sub-20	1	sequence	stimulus	Gesicht	NaN	NaN	64.0	NaN	NaN	1.0	2.0	NaN	NaN	NaN	NaN	NaN
127.23058880000008	0.0669	sub-20	1	sequence	interval	dot	NaN	NaN	NaN	NaN	NaN	NaN	NaN	NaN	NaN	NaN	NaN	NaN
127.297458	0.0999	sub-20	1	sequence	stimulus	Stuhl	NaN	NaN	64.0	NaN	NaN	5.0	3.0	NaN	NaN	NaN	NaN	NaN
127.39738430000034	0.0669	sub-20	1	sequence	interval	dot	NaN	NaN	NaN	NaN	NaN	NaN	NaN	NaN	NaN	NaN	NaN	NaN
127.46433400000024	0.0999	sub-20	1	sequence	stimulus	Katze	NaN	NaN	64.0	NaN	NaN	3.0	4.0	NaN	NaN	NaN	NaN	NaN
127.56419910000022	0.0669	sub-20	1	sequence	interval	dot	NaN	NaN	NaN	NaN	NaN	NaN	NaN	NaN	NaN	NaN	NaN	NaN
127.6311040999999	0.0999	sub-20	1	sequence	stimulus	Haus	NaN	NaN	64.0	NaN	NaN	2.0	5.0	NaN	NaN	NaN	NaN	NaN
127.73100150000027	0.0667	sub-20	1	sequence	interval	dot	NaN	NaN	NaN	NaN	NaN	NaN	NaN	NaN	NaN	NaN	NaN	NaN
127.7977108	8.3881	sub-20	1	sequence	delay	dot	NaN	NaN	NaN	NaN	NaN	NaN	NaN	NaN	NaN	NaN	NaN	NaN
136.16286440000022	0.7593	sub-20	1	sequence	choice	choice	left	NaN	NaN	0.724363600000288	True	NaN	NaN	left	1.0	4.0	5.0	4.0
136.92252039999994	0.4997	sub-20	1	sequence	feedback	NaN	NaN	NaN	NaN	NaN	NaN	NaN	NaN	NaN	NaN	NaN	NaN	NaN
137.42237220000015	1.0007	sub-20	1	sequence	cue	Stuhl	NaN	NaN	NaN	NaN	NaN	NaN	NaN	NaN	NaN	NaN	NaN	NaN
138.42304719999993	2.0018	sub-20	1	sequence	blank	blank	NaN	NaN	NaN	NaN	NaN	NaN	NaN	NaN	NaN	NaN	NaN	NaN
140.42481290000023	0.3002	sub-20	1	sequence	fixation	dot	NaN	NaN	NaN	NaN	NaN	NaN	NaN	NaN	NaN	NaN	NaN	NaN
140.74261300000035	0.0991	sub-20	1	sequence	stimulus	Haus	NaN	NaN	64.0	NaN	NaN	2.0	1.0	NaN	NaN	NaN	NaN	NaN
140.84174310000026	0.0668	sub-20	1	sequence	interval	dot	NaN	NaN	NaN	NaN	NaN	NaN	NaN	NaN	NaN	NaN	NaN	NaN
140.90850309999996	0.1167	sub-20	1	sequence	stimulus	Gesicht	NaN	NaN	64.0	NaN	NaN	1.0	2.0	NaN	NaN	NaN	NaN	NaN
141.02523410000003	0.0669	sub-20	1	sequence	interval	dot	NaN	NaN	NaN	NaN	NaN	NaN	NaN	NaN	NaN	NaN	NaN	NaN
141.09217579999995	0.0999	sub-20	1	sequence	stimulus	Katze	NaN	NaN	64.0	NaN	NaN	3.0	3.0	NaN	NaN	NaN	NaN	NaN
141.19202650000034	0.0668	sub-20	1	sequence	interval	dot	NaN	NaN	NaN	NaN	NaN	NaN	NaN	NaN	NaN	NaN	NaN	NaN
141.25886489999994	0.1	sub-20	1	sequence	stimulus	Schuh	NaN	NaN	64.0	NaN	NaN	4.0	4.0	NaN	NaN	NaN	NaN	NaN
141.3588904000003	0.0668	sub-20	1	sequence	interval	dot	NaN	NaN	NaN	NaN	NaN	NaN	NaN	NaN	NaN	NaN	NaN	NaN
141.42569950000006	0.1	sub-20	1	sequence	stimulus	Stuhl	NaN	NaN	64.0	NaN	NaN	5.0	5.0	NaN	NaN	NaN	NaN	NaN
141.5256558000001	0.0667	sub-20	1	sequence	interval	dot	NaN	NaN	NaN	NaN	NaN	NaN	NaN	NaN	NaN	NaN	NaN	NaN
141.5923527	8.3716	sub-20	1	sequence	delay	dot	NaN	NaN	NaN	NaN	NaN	NaN	NaN	NaN	NaN	NaN	NaN	NaN
149.94255710000016	0.9908	sub-20	1	sequence	choice	choice	left	NaN	NaN	0.954364799999894	True	NaN	NaN	left	True	5.0	4.0	5.0
150.9336042	0.5	sub-20	1	sequence	feedback	NaN	NaN	NaN	NaN	NaN	NaN	NaN	NaN	NaN	NaN	NaN	NaN	NaN
151.43371190000016	1.0006	sub-20	1	sequence	cue	Stuhl	NaN	NaN	NaN	NaN	NaN	NaN	NaN	NaN	NaN	NaN	NaN	NaN
152.43434920000027	2.0016	sub-20	1	sequence	blank	blank	NaN	NaN	NaN	NaN	NaN	NaN	NaN	NaN	NaN	NaN	NaN	NaN
154.4359346000001	0.3003	sub-20	1	sequence	fixation	dot	NaN	NaN	NaN	NaN	NaN	NaN	NaN	NaN	NaN	NaN	NaN	NaN
154.75479450000012	0.1149	sub-20	1	sequence	stimulus	Stuhl	NaN	NaN	512.0	NaN	NaN	5.0	1.0	NaN	NaN	NaN	NaN	NaN
154.86965230000033	0.5172	sub-20	1	sequence	interval	dot	NaN	NaN	NaN	NaN	NaN	NaN	NaN	NaN	NaN	NaN	NaN	NaN
155.38689840000006	0.0999	sub-20	1	sequence	stimulus	Gesicht	NaN	NaN	512.0	NaN	NaN	1.0	2.0	NaN	NaN	NaN	NaN	NaN
155.4867779000001	0.5173	sub-20	1	sequence	interval	dot	NaN	NaN	NaN	NaN	NaN	NaN	NaN	NaN	NaN	NaN	NaN	NaN
156.00404789999993	0.0999	sub-20	1	sequence	stimulus	Haus	NaN	NaN	512.0	NaN	NaN	2.0	3.0	NaN	NaN	NaN	NaN	NaN
156.1039708000003	0.5172	sub-20	1	sequence	interval	dot	NaN	NaN	NaN	NaN	NaN	NaN	NaN	NaN	NaN	NaN	NaN	NaN
156.62120810000033	0.0999	sub-20	1	sequence	stimulus	Schuh	NaN	NaN	512.0	NaN	NaN	4.0	4.0	NaN	NaN	NaN	NaN	NaN
156.7211102000001	0.5173	sub-20	1	sequence	interval	dot	NaN	NaN	NaN	NaN	NaN	NaN	NaN	NaN	NaN	NaN	NaN	NaN
157.23838030000024	0.0999	sub-20	1	sequence	stimulus	Katze	NaN	NaN	512.0	NaN	NaN	3.0	5.0	NaN	NaN	NaN	NaN	NaN
157.33828730000005	0.5171	sub-20	1	sequence	interval	dot	NaN	NaN	NaN	NaN	NaN	NaN	NaN	NaN	NaN	NaN	NaN	NaN
157.85537999999997	6.1532	sub-20	1	sequence	delay	dot	NaN	NaN	NaN	NaN	NaN	NaN	NaN	NaN	NaN	NaN	NaN	NaN
163.9828078999999	0.9452	sub-20	1	sequence	choice	choice	right	NaN	NaN	0.9098948999999266	True	NaN	NaN	right	True	3.0	1.0	1.0
164.92830159999994	0.4999	sub-20	1	sequence	feedback	NaN	NaN	NaN	NaN	NaN	NaN	NaN	NaN	NaN	NaN	NaN	NaN	NaN
165.42836660000012	1.0007	sub-20	1	sequence	cue	Gesicht	NaN	NaN	NaN	NaN	NaN	NaN	NaN	NaN	NaN	NaN	NaN	NaN
166.42902790000016	2.0017	sub-20	1	sequence	blank	blank	NaN	NaN	NaN	NaN	NaN	NaN	NaN	NaN	NaN	NaN	NaN	NaN
168.4306875000002	0.3002	sub-20	1	sequence	fixation	dot	NaN	NaN	NaN	NaN	NaN	NaN	NaN	NaN	NaN	NaN	NaN	NaN
168.74918419999997	0.1151	sub-20	1	sequence	stimulus	Gesicht	NaN	NaN	32.0	NaN	NaN	1.0	1.0	NaN	NaN	NaN	NaN	NaN
168.86430310000014	0.0335	sub-20	1	sequence	interval	dot	NaN	NaN	NaN	NaN	NaN	NaN	NaN	NaN	NaN	NaN	NaN	NaN
168.8977904000003	0.0999	sub-20	1	sequence	stimulus	Katze	NaN	NaN	32.0	NaN	NaN	3.0	2.0	NaN	NaN	NaN	NaN	NaN
168.99773529999993	0.0335	sub-20	1	sequence	interval	dot	NaN	NaN	NaN	NaN	NaN	NaN	NaN	NaN	NaN	NaN	NaN	NaN
169.03127190000032	0.1	sub-20	1	sequence	stimulus	Haus	NaN	NaN	32.0	NaN	NaN	2.0	3.0	NaN	NaN	NaN	NaN	NaN
169.13127080000004	0.0334	sub-20	1	sequence	interval	dot	NaN	NaN	NaN	NaN	NaN	NaN	NaN	NaN	NaN	NaN	NaN	NaN
169.1646920000003	0.0999	sub-20	1	sequence	stimulus	Schuh	NaN	NaN	32.0	NaN	NaN	4.0	4.0	NaN	NaN	NaN	NaN	NaN
169.26460420000012	0.0335	sub-20	1	sequence	interval	dot	NaN	NaN	NaN	NaN	NaN	NaN	NaN	NaN	NaN	NaN	NaN	NaN
169.29812470000024	0.0999	sub-20	1	sequence	stimulus	Stuhl	NaN	NaN	32.0	NaN	NaN	5.0	5.0	NaN	NaN	NaN	NaN	NaN
169.3980391	0.0334	sub-20	1	sequence	interval	dot	NaN	NaN	NaN	NaN	NaN	NaN	NaN	NaN	NaN	NaN	NaN	NaN
169.43142149999994	8.5384	sub-20	1	sequence	delay	dot	NaN	NaN	NaN	NaN	NaN	NaN	NaN	NaN	NaN	NaN	NaN	NaN
177.94401740000012	0.8952	sub-20	1	sequence	choice	choice	right	NaN	NaN	0.8603063000000475	True	NaN	NaN	right	True	3.0	1.0	1.0
178.8393874000003	0.5002	sub-20	1	sequence	feedback	NaN	NaN	NaN	NaN	NaN	NaN	NaN	NaN	NaN	NaN	NaN	NaN	NaN
179.33968010000035	1.0006	sub-20	1	sequence	cue	Haus	NaN	NaN	NaN	NaN	NaN	NaN	NaN	NaN	NaN	NaN	NaN	NaN
180.3402817000001	2.0019	sub-20	1	sequence	blank	blank	NaN	NaN	NaN	NaN	NaN	NaN	NaN	NaN	NaN	NaN	NaN	NaN
182.34215670000003	0.3001	sub-20	1	sequence	fixation	dot	NaN	NaN	NaN	NaN	NaN	NaN	NaN	NaN	NaN	NaN	NaN	NaN
182.65961960000004	0.0972	sub-20	1	sequence	stimulus	Schuh	NaN	NaN	32.0	NaN	NaN	4.0	1.0	NaN	NaN	NaN	NaN	NaN
182.75685939999997	0.0357	sub-20	1	sequence	interval	dot	NaN	NaN	NaN	NaN	NaN	NaN	NaN	NaN	NaN	NaN	NaN	NaN
182.79253150000025	0.0999	sub-20	1	sequence	stimulus	Haus	NaN	NaN	32.0	NaN	NaN	2.0	2.0	NaN	NaN	NaN	NaN	NaN
182.8924538000001	0.0334	sub-20	1	sequence	interval	dot	NaN	NaN	NaN	NaN	NaN	NaN	NaN	NaN	NaN	NaN	NaN	NaN
182.9258291000001	0.1	sub-20	1	sequence	stimulus	Gesicht	NaN	NaN	32.0	NaN	NaN	1.0	3.0	NaN	NaN	NaN	NaN	NaN
183.02585980000003	0.0336	sub-20	1	sequence	interval	dot	NaN	NaN	NaN	NaN	NaN	NaN	NaN	NaN	NaN	NaN	NaN	NaN
183.0594787	0.0998	sub-20	1	sequence	stimulus	Katze	NaN	NaN	32.0	NaN	NaN	3.0	4.0	NaN	NaN	NaN	NaN	NaN
183.1593094	0.0335	sub-20	1	sequence	interval	dot	NaN	NaN	NaN	NaN	NaN	NaN	NaN	NaN	NaN	NaN	NaN	NaN
183.19278900000015	0.1	sub-20	1	sequence	stimulus	Stuhl	NaN	NaN	32.0	NaN	NaN	5.0	5.0	NaN	NaN	NaN	NaN	NaN
183.2927520000003	0.0333	sub-20	1	sequence	interval	dot	NaN	NaN	NaN	NaN	NaN	NaN	NaN	NaN	NaN	NaN	NaN	NaN
183.32608460000029	8.555	sub-20	1	sequence	delay	dot	NaN	NaN	NaN	NaN	NaN	NaN	NaN	NaN	NaN	NaN	NaN	NaN
191.8537338000001	1.1303	sub-20	1	sequence	choice	choice	right	NaN	NaN	1.0932425999999396	True	NaN	NaN	right	True	4.0	2.0	2.0
192.9842925000003	0.4999	sub-20	1	sequence	feedback	NaN	NaN	NaN	NaN	NaN	NaN	NaN	NaN	NaN	NaN	NaN	NaN	NaN
193.48436230000016	1.0008	sub-20	1	sequence	cue	Stuhl	NaN	NaN	NaN	NaN	NaN	NaN	NaN	NaN	NaN	NaN	NaN	NaN
194.48512900000011	2.0017	sub-20	1	sequence	blank	blank	NaN	NaN	NaN	NaN	NaN	NaN	NaN	NaN	NaN	NaN	NaN	NaN
196.48682240000016	0.3001	sub-20	1	sequence	fixation	dot	NaN	NaN	NaN	NaN	NaN	NaN	NaN	NaN	NaN	NaN	NaN	NaN
196.80459180000025	0.0991	sub-20	1	sequence	stimulus	Schuh	NaN	NaN	512.0	NaN	NaN	4.0	1.0	NaN	NaN	NaN	NaN	NaN
196.90364260000024	0.5173	sub-20	1	sequence	interval	dot	NaN	NaN	NaN	NaN	NaN	NaN	NaN	NaN	NaN	NaN	NaN	NaN
197.42091630000004	0.0999	sub-20	1	sequence	stimulus	Katze	NaN	NaN	512.0	NaN	NaN	3.0	2.0	NaN	NaN	NaN	NaN	NaN
197.5208064000003	0.5172	sub-20	1	sequence	interval	dot	NaN	NaN	NaN	NaN	NaN	NaN	NaN	NaN	NaN	NaN	NaN	NaN
198.03803960000005	0.0999	sub-20	1	sequence	stimulus	Stuhl	NaN	NaN	512.0	NaN	NaN	5.0	3.0	NaN	NaN	NaN	NaN	NaN
198.13796040000037	0.5173	sub-20	1	sequence	interval	dot	NaN	NaN	NaN	NaN	NaN	NaN	NaN	NaN	NaN	NaN	NaN	NaN
198.65522250000004	0.0999	sub-20	1	sequence	stimulus	Gesicht	NaN	NaN	512.0	NaN	NaN	1.0	4.0	NaN	NaN	NaN	NaN	NaN
198.75514300000032	0.5173	sub-20	1	sequence	interval	dot	NaN	NaN	NaN	NaN	NaN	NaN	NaN	NaN	NaN	NaN	NaN	NaN
199.27242410000008	0.0999	sub-20	1	sequence	stimulus	Haus	NaN	NaN	512.0	NaN	NaN	2.0	5.0	NaN	NaN	NaN	NaN	NaN
199.3722957	0.5171	sub-20	1	sequence	interval	dot	NaN	NaN	NaN	NaN	NaN	NaN	NaN	NaN	NaN	NaN	NaN	NaN
199.88935740000036	6.1532	sub-20	1	sequence	delay	dot	NaN	NaN	NaN	NaN	NaN	NaN	NaN	NaN	NaN	NaN	NaN	NaN
206.02333230000025	0.7718	sub-20	1	sequence	choice	choice	left	NaN	NaN	0.7477614000003996	True	NaN	NaN	left	True	3.0	2.0	3.0
206.7954652000003	0.5001	sub-20	1	sequence	feedback	NaN	NaN	NaN	NaN	NaN	NaN	NaN	NaN	NaN	NaN	NaN	NaN	NaN
207.29585020000013	1.0007	sub-20	1	sequence	cue	Haus	NaN	NaN	NaN	NaN	NaN	NaN	NaN	NaN	NaN	NaN	NaN	NaN
208.2965223000001	2.0014	sub-20	1	sequence	blank	blank	NaN	NaN	NaN	NaN	NaN	NaN	NaN	NaN	NaN	NaN	NaN	NaN
210.2978997	0.3001	sub-20	1	sequence	fixation	dot	NaN	NaN	NaN	NaN	NaN	NaN	NaN	NaN	NaN	NaN	NaN	NaN
210.6163332000001	0.1152	sub-20	1	sequence	stimulus	Stuhl	NaN	NaN	128.0	NaN	NaN	5.0	1.0	NaN	NaN	NaN	NaN	NaN
210.73150350000012	0.1336	sub-20	1	sequence	interval	dot	NaN	NaN	NaN	NaN	NaN	NaN	NaN	NaN	NaN	NaN	NaN	NaN
210.86511950000025	0.0999	sub-20	1	sequence	stimulus	Gesicht	NaN	NaN	128.0	NaN	NaN	1.0	2.0	NaN	NaN	NaN	NaN	NaN
210.9650343000003	0.1336	sub-20	1	sequence	interval	dot	NaN	NaN	NaN	NaN	NaN	NaN	NaN	NaN	NaN	NaN	NaN	NaN
211.09862620000013	0.0999	sub-20	1	sequence	stimulus	Schuh	NaN	NaN	128.0	NaN	NaN	4.0	3.0	NaN	NaN	NaN	NaN	NaN
211.19849680000016	0.1336	sub-20	1	sequence	interval	dot	NaN	NaN	NaN	NaN	NaN	NaN	NaN	NaN	NaN	NaN	NaN	NaN
211.33212440000037	0.0999	sub-20	1	sequence	stimulus	Katze	NaN	NaN	128.0	NaN	NaN	3.0	4.0	NaN	NaN	NaN	NaN	NaN
211.4320600000001	0.1336	sub-20	1	sequence	interval	dot	NaN	NaN	NaN	NaN	NaN	NaN	NaN	NaN	NaN	NaN	NaN	NaN
211.5656837000001	0.0999	sub-20	1	sequence	stimulus	Haus	NaN	NaN	128.0	NaN	NaN	2.0	5.0	NaN	NaN	NaN	NaN	NaN
211.66555640000024	0.1334	sub-20	1	sequence	interval	dot	NaN	NaN	NaN	NaN	NaN	NaN	NaN	NaN	NaN	NaN	NaN	NaN
211.7990007000003	8.0715	sub-20	1	sequence	delay	dot	NaN	NaN	NaN	NaN	NaN	NaN	NaN	NaN	NaN	NaN	NaN	NaN
219.85512590000008	0.718	sub-20	1	sequence	choice	choice	left	NaN	NaN	0.6878462999998192	True	NaN	NaN	left	True	5.0	4.0	5.0
220.5733481000002	0.5	sub-20	1	sequence	feedback	NaN	NaN	NaN	NaN	NaN	NaN	NaN	NaN	NaN	NaN	NaN	NaN	NaN
221.07355970000023	1.0007	sub-20	1	sequence	cue	Gesicht	NaN	NaN	NaN	NaN	NaN	NaN	NaN	NaN	NaN	NaN	NaN	NaN
222.0742349000002	2.0016	sub-20	1	sequence	blank	blank	NaN	NaN	NaN	NaN	NaN	NaN	NaN	NaN	NaN	NaN	NaN	NaN
224.0758565000001	0.3002	sub-20	1	sequence	fixation	dot	NaN	NaN	NaN	NaN	NaN	NaN	NaN	NaN	NaN	NaN	NaN	NaN
224.39340230000016	0.0994	sub-20	1	sequence	stimulus	Katze	NaN	NaN	128.0	NaN	NaN	3.0	1.0	NaN	NaN	NaN	NaN	NaN
224.49279530000013	0.1335	sub-20	1	sequence	interval	dot	NaN	NaN	NaN	NaN	NaN	NaN	NaN	NaN	NaN	NaN	NaN	NaN
224.6263245	0.0979	sub-20	1	sequence	stimulus	Stuhl	NaN	NaN	128.0	NaN	NaN	5.0	2.0	NaN	NaN	NaN	NaN	NaN
224.72419040000025	0.1357	sub-20	1	sequence	interval	dot	NaN	NaN	NaN	NaN	NaN	NaN	NaN	NaN	NaN	NaN	NaN	NaN
224.85987980000027	0.0978	sub-20	1	sequence	stimulus	Haus	NaN	NaN	128.0	NaN	NaN	2.0	3.0	NaN	NaN	NaN	NaN	NaN
224.95768570000016	0.1357	sub-20	1	sequence	interval	dot	NaN	NaN	NaN	NaN	NaN	NaN	NaN	NaN	NaN	NaN	NaN	NaN
225.0933715000001	0.1001	sub-20	1	sequence	stimulus	Gesicht	NaN	NaN	128.0	NaN	NaN	1.0	4.0	NaN	NaN	NaN	NaN	NaN
225.1934796999999	0.1334	sub-20	1	sequence	interval	dot	NaN	NaN	NaN	NaN	NaN	NaN	NaN	NaN	NaN	NaN	NaN	NaN
225.3269081000003	0.1	sub-20	1	sequence	stimulus	Schuh	NaN	NaN	128.0	NaN	NaN	4.0	5.0	NaN	NaN	NaN	NaN	NaN
225.42689990000008	0.1335	sub-20	1	sequence	interval	dot	NaN	NaN	NaN	NaN	NaN	NaN	NaN	NaN	NaN	NaN	NaN	NaN
225.56043100000036	8.0711	sub-20	1	sequence	delay	dot	NaN	NaN	NaN	NaN	NaN	NaN	NaN	NaN	NaN	NaN	NaN	NaN
233.6088993999997	1.1257	sub-20	1	sequence	choice	choice	right	NaN	NaN	1.102810800000043	True	NaN	NaN	right	True	2.0	4.0	4.0
234.73489449999988	0.5001	sub-20	1	sequence	feedback	NaN	NaN	NaN	NaN	NaN	NaN	NaN	NaN	NaN	NaN	NaN	NaN	NaN
239.05535100000043	0.4994	sub-20	1	localizer	stimulus	Katze	NaN	0	2.952273600000808	NaN	True	NaN	NaN	NaN	NaN	NaN	NaN	NaN
239.53836999999976	2.9523	sub-20	1	localizer	blank	interval	NaN	NaN	NaN	NaN	NaN	NaN	NaN	NaN	NaN	NaN	NaN	NaN
242.7916083000005	0.4995	sub-20	1	localizer	stimulus	Katze	NaN	0	2.1518641000002674	NaN	True	NaN	NaN	NaN	NaN	NaN	NaN	NaN
243.27464050000023	2.1519	sub-20	1	localizer	blank	interval	NaN	NaN	NaN	NaN	NaN	NaN	NaN	NaN	NaN	NaN	NaN	NaN
245.72743159999985	0.4996	sub-20	1	localizer	stimulus	Stuhl	NaN	0	3.2189730999998574	NaN	True	NaN	NaN	NaN	NaN	NaN	NaN	NaN
246.21047070000031	3.219	sub-20	1	localizer	blank	interval	NaN	NaN	NaN	NaN	NaN	NaN	NaN	NaN	NaN	NaN	NaN	NaN
249.7305309999997	0.4997	sub-20	1	localizer	stimulus	Gesicht	NaN	180	3.0857994999996663	0.587646500000119	True	NaN	NaN	NaN	NaN	NaN	NaN	NaN
250.2136092000005	3.0858	sub-20	1	localizer	blank	interval	NaN	NaN	NaN	NaN	NaN	NaN	NaN	NaN	NaN	NaN	NaN	NaN
253.60036249999985	0.4995	sub-20	1	localizer	stimulus	Schuh	NaN	0	2.6353411999998286	NaN	True	NaN	NaN	NaN	NaN	NaN	NaN	NaN
254.08336720000037	2.6353	sub-20	1	localizer	blank	interval	NaN	NaN	NaN	NaN	NaN	NaN	NaN	NaN	NaN	NaN	NaN	NaN
257.0198041999997	0.4997	sub-20	1	localizer	stimulus	Schuh	NaN	0	2.351867099999197	NaN	True	NaN	NaN	NaN	NaN	NaN	NaN	NaN
257.5028253000005	2.3519	sub-20	1	localizer	blank	interval	NaN	NaN	NaN	NaN	NaN	NaN	NaN	NaN	NaN	NaN	NaN	NaN
260.15571730000056	0.4996	sub-20	1	localizer	stimulus	Haus	NaN	0	2.618581099999574	NaN	True	NaN	NaN	NaN	NaN	NaN	NaN	NaN
260.63874350000015	2.6186	sub-20	1	localizer	blank	interval	NaN	NaN	NaN	NaN	NaN	NaN	NaN	NaN	NaN	NaN	NaN	NaN
263.55841089999967	0.4997	sub-20	1	localizer	stimulus	Stuhl	NaN	0	1.6513033999999607	NaN	True	NaN	NaN	NaN	NaN	NaN	NaN	NaN
264.04149629999984	1.6513	sub-20	1	localizer	blank	interval	NaN	NaN	NaN	NaN	NaN	NaN	NaN	NaN	NaN	NaN	NaN	NaN
265.9937405000005	0.4998	sub-20	1	localizer	stimulus	Schuh	NaN	180	1.8181140000006053	0.6444378999995024	True	NaN	NaN	NaN	NaN	NaN	NaN	NaN
266.4768485999998	1.8181	sub-20	1	localizer	blank	interval	NaN	NaN	NaN	NaN	NaN	NaN	NaN	NaN	NaN	NaN	NaN	NaN
268.5960015000005	0.4994	sub-20	1	localizer	stimulus	Stuhl	NaN	0	2.435179199999766	NaN	True	NaN	NaN	NaN	NaN	NaN	NaN	NaN
269.07896690000007	2.4352	sub-20	1	localizer	blank	interval	NaN	NaN	NaN	NaN	NaN	NaN	NaN	NaN	NaN	NaN	NaN	NaN
271.8150811999999	0.4996	sub-20	1	localizer	stimulus	Stuhl	NaN	0	3.26924890000015	NaN	True	NaN	NaN	NaN	NaN	NaN	NaN	NaN
272.29813539999986	3.2692	sub-20	1	localizer	blank	interval	NaN	NaN	NaN	NaN	NaN	NaN	NaN	NaN	NaN	NaN	NaN	NaN
275.8683943000001	0.4995	sub-20	1	localizer	stimulus	Katze	NaN	0	1.734571699999833	NaN	True	NaN	NaN	NaN	NaN	NaN	NaN	NaN
276.3514952999999	1.7346	sub-20	1	localizer	blank	interval	NaN	NaN	NaN	NaN	NaN	NaN	NaN	NaN	NaN	NaN	NaN	NaN
278.38710709999987	0.4995	sub-20	1	localizer	stimulus	Haus	NaN	180	2.61859639999966	0.6350720000000365	True	NaN	NaN	NaN	NaN	NaN	NaN	NaN
278.87013700000034	2.6186	sub-20	1	localizer	blank	interval	NaN	NaN	NaN	NaN	NaN	NaN	NaN	NaN	NaN	NaN	NaN	NaN
281.7898288000001	0.4996	sub-20	1	localizer	stimulus	Schuh	NaN	0	2.0347784999994474	NaN	True	NaN	NaN	NaN	NaN	NaN	NaN	NaN
282.2728982000003	2.0348	sub-20	1	localizer	blank	interval	NaN	NaN	NaN	NaN	NaN	NaN	NaN	NaN	NaN	NaN	NaN	NaN
284.60880790000056	0.4995	sub-20	1	localizer	stimulus	Gesicht	NaN	0	2.650027300000147	NaN	True	NaN	NaN	NaN	NaN	NaN	NaN	NaN
285.09181769999986	2.65	sub-20	1	localizer	blank	interval	NaN	NaN	NaN	NaN	NaN	NaN	NaN	NaN	NaN	NaN	NaN	NaN
288.04500640000015	0.4996	sub-20	1	localizer	stimulus	Stuhl	NaN	180	2.3181095999998433	0.5451769999999669	True	NaN	NaN	NaN	NaN	NaN	NaN	NaN
288.5281912000005	2.3181	sub-20	1	localizer	blank	interval	NaN	NaN	NaN	NaN	NaN	NaN	NaN	NaN	NaN	NaN	NaN	NaN
291.14745820000053	0.4995	sub-20	1	localizer	stimulus	Haus	NaN	0	2.4851990999996474	NaN	True	NaN	NaN	NaN	NaN	NaN	NaN	NaN
291.6304512000001	2.4852	sub-20	1	localizer	blank	interval	NaN	NaN	NaN	NaN	NaN	NaN	NaN	NaN	NaN	NaN	NaN	NaN
294.41674639999974	0.4995	sub-20	1	localizer	stimulus	Gesicht	NaN	0	3.018960500000503	NaN	True	NaN	NaN	NaN	NaN	NaN	NaN	NaN
294.89977210000006	3.019	sub-20	1	localizer	blank	interval	NaN	NaN	NaN	NaN	NaN	NaN	NaN	NaN	NaN	NaN	NaN	NaN
298.21981259999984	0.4995	sub-20	1	localizer	stimulus	Gesicht	NaN	0	2.3351569999995263	NaN	True	NaN	NaN	NaN	NaN	NaN	NaN	NaN
298.70281900000055	2.3352	sub-20	1	localizer	blank	interval	NaN	NaN	NaN	NaN	NaN	NaN	NaN	NaN	NaN	NaN	NaN	NaN
301.33912590000045	0.4996	sub-20	1	localizer	stimulus	Katze	NaN	0	2.51843800000006	NaN	True	NaN	NaN	NaN	NaN	NaN	NaN	NaN
301.8221332999997	2.5184	sub-20	1	localizer	blank	interval	NaN	NaN	NaN	NaN	NaN	NaN	NaN	NaN	NaN	NaN	NaN	NaN
304.6416642999998	0.4996	sub-20	1	localizer	stimulus	Gesicht	NaN	0	3.0190877999993972	NaN	True	NaN	NaN	NaN	NaN	NaN	NaN	NaN
305.1247365000004	3.0191	sub-20	1	localizer	blank	interval	NaN	NaN	NaN	NaN	NaN	NaN	NaN	NaN	NaN	NaN	NaN	NaN
308.4448164999999	0.4996	sub-20	1	localizer	stimulus	Haus	NaN	0	2.852025500000366	NaN	True	NaN	NaN	NaN	NaN	NaN	NaN	NaN
308.92790620000005	2.852	sub-20	1	localizer	blank	interval	NaN	NaN	NaN	NaN	NaN	NaN	NaN	NaN	NaN	NaN	NaN	NaN
312.08102439999993	0.4995	sub-20	1	localizer	stimulus	Haus	NaN	0	2.151571399999739	NaN	True	NaN	NaN	NaN	NaN	NaN	NaN	NaN
312.56408000000056	2.1516	sub-20	1	localizer	blank	interval	NaN	NaN	NaN	NaN	NaN	NaN	NaN	NaN	NaN	NaN	NaN	NaN
315.0167021000002	0.4996	sub-20	1	localizer	stimulus	Katze	NaN	180	3.4193054999996093	0.5976325999999972	True	NaN	NaN	NaN	NaN	NaN	NaN	NaN
315.49983250000014	3.4193	sub-20	1	localizer	blank	interval	NaN	NaN	NaN	NaN	NaN	NaN	NaN	NaN	NaN	NaN	NaN	NaN
319.2201164000003	0.4995	sub-20	1	localizer	stimulus	Schuh	NaN	0	3.569427700000233	NaN	True	NaN	NaN	NaN	NaN	NaN	NaN	NaN
319.7032395000001	3.5694	sub-20	1	localizer	blank	interval	NaN	NaN	NaN	NaN	NaN	NaN	NaN	NaN	NaN	NaN	NaN	NaN
326.7590734999999	1.0005	sub-20	1	sequence	cue	Katze	NaN	NaN	NaN	NaN	NaN	NaN	NaN	NaN	NaN	NaN	NaN	NaN
327.75961770000004	2.0018	sub-20	1	sequence	blank	blank	NaN	NaN	NaN	NaN	NaN	NaN	NaN	NaN	NaN	NaN	NaN	NaN
329.76138260000016	0.3002	sub-20	1	sequence	fixation	dot	NaN	NaN	NaN	NaN	NaN	NaN	NaN	NaN	NaN	NaN	NaN	NaN
330.0791180000001	0.0992	sub-20	1	sequence	stimulus	Stuhl	NaN	NaN	128.0	NaN	NaN	5.0	1.0	NaN	NaN	NaN	NaN	NaN
330.1783104000001	0.1336	sub-20	1	sequence	interval	dot	NaN	NaN	NaN	NaN	NaN	NaN	NaN	NaN	NaN	NaN	NaN	NaN
330.3118795000005	0.1	sub-20	1	sequence	stimulus	Gesicht	NaN	NaN	128.0	NaN	NaN	1.0	2.0	NaN	NaN	NaN	NaN	NaN
330.41185369999994	0.1336	sub-20	1	sequence	interval	dot	NaN	NaN	NaN	NaN	NaN	NaN	NaN	NaN	NaN	NaN	NaN	NaN
330.5454322999999	0.0999	sub-20	1	sequence	stimulus	Schuh	NaN	NaN	128.0	NaN	NaN	4.0	3.0	NaN	NaN	NaN	NaN	NaN
330.6453809	0.1336	sub-20	1	sequence	interval	dot	NaN	NaN	NaN	NaN	NaN	NaN	NaN	NaN	NaN	NaN	NaN	NaN
330.7790028000004	0.0999	sub-20	1	sequence	stimulus	Katze	NaN	NaN	128.0	NaN	NaN	3.0	4.0	NaN	NaN	NaN	NaN	NaN
330.87894300000016	0.1337	sub-20	1	sequence	interval	dot	NaN	NaN	NaN	NaN	NaN	NaN	NaN	NaN	NaN	NaN	NaN	NaN
331.01263510000035	0.0999	sub-20	1	sequence	stimulus	Haus	NaN	NaN	128.0	NaN	NaN	2.0	5.0	NaN	NaN	NaN	NaN	NaN
331.1125111000006	0.1334	sub-20	1	sequence	interval	dot	NaN	NaN	NaN	NaN	NaN	NaN	NaN	NaN	NaN	NaN	NaN	NaN
331.2459222000002	8.0711	sub-20	1	sequence	delay	dot	NaN	NaN	NaN	NaN	NaN	NaN	NaN	NaN	NaN	NaN	NaN	NaN
339.29670209999995	0.7063	sub-20	1	sequence	choice	choice	left	NaN	NaN	0.6733518000000913	True	NaN	NaN	left	True	4.0	5.0	4.0
340.00332370000024	0.5	sub-20	1	sequence	feedback	NaN	NaN	NaN	NaN	NaN	NaN	NaN	NaN	NaN	NaN	NaN	NaN	NaN
340.5035143	1.0005	sub-20	1	sequence	cue	Katze	NaN	NaN	NaN	NaN	NaN	NaN	NaN	NaN	NaN	NaN	NaN	NaN
341.50402630000053	2.0016	sub-20	1	sequence	blank	blank	NaN	NaN	NaN	NaN	NaN	NaN	NaN	NaN	NaN	NaN	NaN	NaN
343.5055953000005	0.3003	sub-20	1	sequence	fixation	dot	NaN	NaN	NaN	NaN	NaN	NaN	NaN	NaN	NaN	NaN	NaN	NaN
343.8233973000001	0.0992	sub-20	1	sequence	stimulus	Schuh	NaN	NaN	32.0	NaN	NaN	4.0	1.0	NaN	NaN	NaN	NaN	NaN
343.9225581000005	0.0336	sub-20	1	sequence	interval	dot	NaN	NaN	NaN	NaN	NaN	NaN	NaN	NaN	NaN	NaN	NaN	NaN
343.9561312999999	0.0999	sub-20	1	sequence	stimulus	Haus	NaN	NaN	32.0	NaN	NaN	2.0	2.0	NaN	NaN	NaN	NaN	NaN
344.0560209999999	0.0336	sub-20	1	sequence	interval	dot	NaN	NaN	NaN	NaN	NaN	NaN	NaN	NaN	NaN	NaN	NaN	NaN
344.0895784999998	0.0999	sub-20	1	sequence	stimulus	Gesicht	NaN	NaN	32.0	NaN	NaN	1.0	3.0	NaN	NaN	NaN	NaN	NaN
344.1895134000001	0.0335	sub-20	1	sequence	interval	dot	NaN	NaN	NaN	NaN	NaN	NaN	NaN	NaN	NaN	NaN	NaN	NaN
344.22297910000043	0.0999	sub-20	1	sequence	stimulus	Katze	NaN	NaN	32.0	NaN	NaN	3.0	4.0	NaN	NaN	NaN	NaN	NaN
344.3229230000002	0.0335	sub-20	1	sequence	interval	dot	NaN	NaN	NaN	NaN	NaN	NaN	NaN	NaN	NaN	NaN	NaN	NaN
344.3564147000002	0.0999	sub-20	1	sequence	stimulus	Stuhl	NaN	NaN	32.0	NaN	NaN	5.0	5.0	NaN	NaN	NaN	NaN	NaN
344.4563169999997	0.0334	sub-20	1	sequence	interval	dot	NaN	NaN	NaN	NaN	NaN	NaN	NaN	NaN	NaN	NaN	NaN	NaN
344.48971759999995	8.5217	sub-20	1	sequence	delay	dot	NaN	NaN	NaN	NaN	NaN	NaN	NaN	NaN	NaN	NaN	NaN	NaN
352.9983274000001	0.7492	sub-20	1	sequence	choice	choice	left	NaN	NaN	0.72295639999993	True	NaN	NaN	left	True	4.0	3.0	4.0
353.74776969999994	0.4999	sub-20	1	sequence	feedback	NaN	NaN	NaN	NaN	NaN	NaN	NaN	NaN	NaN	NaN	NaN	NaN	NaN
354.2477823000004	1.0007	sub-20	1	sequence	cue	Stuhl	NaN	NaN	NaN	NaN	NaN	NaN	NaN	NaN	NaN	NaN	NaN	NaN
355.24845589999995	2.0016	sub-20	1	sequence	blank	blank	NaN	NaN	NaN	NaN	NaN	NaN	NaN	NaN	NaN	NaN	NaN	NaN
357.2500464999998	0.3004	sub-20	1	sequence	fixation	dot	NaN	NaN	NaN	NaN	NaN	NaN	NaN	NaN	NaN	NaN	NaN	NaN
357.56862260000025	0.1151	sub-20	1	sequence	stimulus	Haus	NaN	NaN	64.0	NaN	NaN	2.0	1.0	NaN	NaN	NaN	NaN	NaN
357.68373100000053	0.0684	sub-20	1	sequence	interval	dot	NaN	NaN	NaN	NaN	NaN	NaN	NaN	NaN	NaN	NaN	NaN	NaN
357.7521522000002	0.115	sub-20	1	sequence	stimulus	Gesicht	NaN	NaN	64.0	NaN	NaN	1.0	2.0	NaN	NaN	NaN	NaN	NaN
357.86719700000003	0.0669	sub-20	1	sequence	interval	dot	NaN	NaN	NaN	NaN	NaN	NaN	NaN	NaN	NaN	NaN	NaN	NaN
357.9340764000003	0.1	sub-20	1	sequence	stimulus	Katze	NaN	NaN	64.0	NaN	NaN	3.0	3.0	NaN	NaN	NaN	NaN	NaN
358.0340358999997	0.0668	sub-20	1	sequence	interval	dot	NaN	NaN	NaN	NaN	NaN	NaN	NaN	NaN	NaN	NaN	NaN	NaN
358.1008723	0.0999	sub-20	1	sequence	stimulus	Schuh	NaN	NaN	64.0	NaN	NaN	4.0	4.0	NaN	NaN	NaN	NaN	NaN
358.20076149999977	0.0669	sub-20	1	sequence	interval	dot	NaN	NaN	NaN	NaN	NaN	NaN	NaN	NaN	NaN	NaN	NaN	NaN
358.2676991000003	0.0999	sub-20	1	sequence	stimulus	Stuhl	NaN	NaN	64.0	NaN	NaN	5.0	5.0	NaN	NaN	NaN	NaN	NaN
358.3676209999999	0.0667	sub-20	1	sequence	interval	dot	NaN	NaN	NaN	NaN	NaN	NaN	NaN	NaN	NaN	NaN	NaN	NaN
358.4343209000004	8.3884	sub-20	1	sequence	delay	dot	NaN	NaN	NaN	NaN	NaN	NaN	NaN	NaN	NaN	NaN	NaN	NaN
366.80395780000026	0.8881	sub-20	1	sequence	choice	choice	right	NaN	NaN	0.8557112999997116	True	NaN	NaN	right	True	2.0	5.0	5.0
367.6923400999999	0.4999	sub-20	1	sequence	feedback	NaN	NaN	NaN	NaN	NaN	NaN	NaN	NaN	NaN	NaN	NaN	NaN	NaN
368.1924297999999	1.0007	sub-20	1	sequence	cue	Haus	NaN	NaN	NaN	NaN	NaN	NaN	NaN	NaN	NaN	NaN	NaN	NaN
369.1931680000002	2.0017	sub-20	1	sequence	blank	blank	NaN	NaN	NaN	NaN	NaN	NaN	NaN	NaN	NaN	NaN	NaN	NaN
371.1948554000005	0.2981	sub-20	1	sequence	fixation	dot	NaN	NaN	NaN	NaN	NaN	NaN	NaN	NaN	NaN	NaN	NaN	NaN
371.5124344999999	0.114	sub-20	1	sequence	stimulus	Schuh	NaN	NaN	64.0	NaN	NaN	4.0	1.0	NaN	NaN	NaN	NaN	NaN
371.6263897000004	0.0689	sub-20	1	sequence	interval	dot	NaN	NaN	NaN	NaN	NaN	NaN	NaN	NaN	NaN	NaN	NaN	NaN
371.69531550000056	0.1	sub-20	1	sequence	stimulus	Gesicht	NaN	NaN	64.0	NaN	NaN	1.0	2.0	NaN	NaN	NaN	NaN	NaN
371.7952713	0.0668	sub-20	1	sequence	interval	dot	NaN	NaN	NaN	NaN	NaN	NaN	NaN	NaN	NaN	NaN	NaN	NaN
371.8621199000004	0.0999	sub-20	1	sequence	stimulus	Stuhl	NaN	NaN	64.0	NaN	NaN	5.0	3.0	NaN	NaN	NaN	NaN	NaN
371.9620649000003	0.0669	sub-20	1	sequence	interval	dot	NaN	NaN	NaN	NaN	NaN	NaN	NaN	NaN	NaN	NaN	NaN	NaN
372.0289459999999	0.0999	sub-20	1	sequence	stimulus	Katze	NaN	NaN	64.0	NaN	NaN	3.0	4.0	NaN	NaN	NaN	NaN	NaN
372.1288940999998	0.0669	sub-20	1	sequence	interval	dot	NaN	NaN	NaN	NaN	NaN	NaN	NaN	NaN	NaN	NaN	NaN	NaN
372.1957921999997	0.0999	sub-20	1	sequence	stimulus	Haus	NaN	NaN	64.0	NaN	NaN	2.0	5.0	NaN	NaN	NaN	NaN	NaN
372.2957216	0.0667	sub-20	1	sequence	interval	dot	NaN	NaN	NaN	NaN	NaN	NaN	NaN	NaN	NaN	NaN	NaN	NaN
372.3624340000001	8.3715	sub-20	1	sequence	delay	dot	NaN	NaN	NaN	NaN	NaN	NaN	NaN	NaN	NaN	NaN	NaN	NaN
380.7141683000005	0.9225	sub-20	1	sequence	choice	choice	left	NaN	NaN	0.8963283000002775	True	NaN	NaN	left	True	5.0	4.0	5.0
381.6369144000005	0.5001	sub-20	1	sequence	feedback	NaN	NaN	NaN	NaN	NaN	NaN	NaN	NaN	NaN	NaN	NaN	NaN	NaN
382.1371916000003	1.0005	sub-20	1	sequence	cue	Schuh	NaN	NaN	NaN	NaN	NaN	NaN	NaN	NaN	NaN	NaN	NaN	NaN
383.1377054999998	2.0016	sub-20	1	sequence	blank	blank	NaN	NaN	NaN	NaN	NaN	NaN	NaN	NaN	NaN	NaN	NaN	NaN
385.13927680000006	0.3002	sub-20	1	sequence	fixation	dot	NaN	NaN	NaN	NaN	NaN	NaN	NaN	NaN	NaN	NaN	NaN	NaN
385.4570596999997	0.0992	sub-20	1	sequence	stimulus	Stuhl	NaN	NaN	512.0	NaN	NaN	5.0	1.0	NaN	NaN	NaN	NaN	NaN
385.5562812000003	0.5173	sub-20	1	sequence	interval	dot	NaN	NaN	NaN	NaN	NaN	NaN	NaN	NaN	NaN	NaN	NaN	NaN
386.07355750000033	0.0999	sub-20	1	sequence	stimulus	Gesicht	NaN	NaN	512.0	NaN	NaN	1.0	2.0	NaN	NaN	NaN	NaN	NaN
386.1734308999999	0.5173	sub-20	1	sequence	interval	dot	NaN	NaN	NaN	NaN	NaN	NaN	NaN	NaN	NaN	NaN	NaN	NaN
386.6906849000002	0.1	sub-20	1	sequence	stimulus	Haus	NaN	NaN	512.0	NaN	NaN	2.0	3.0	NaN	NaN	NaN	NaN	NaN
386.7906522999997	0.5172	sub-20	1	sequence	interval	dot	NaN	NaN	NaN	NaN	NaN	NaN	NaN	NaN	NaN	NaN	NaN	NaN
387.3078191999998	0.0999	sub-20	1	sequence	stimulus	Schuh	NaN	NaN	512.0	NaN	NaN	4.0	4.0	NaN	NaN	NaN	NaN	NaN
387.40774379999993	0.5173	sub-20	1	sequence	interval	dot	NaN	NaN	NaN	NaN	NaN	NaN	NaN	NaN	NaN	NaN	NaN	NaN
387.92505459999984	0.0999	sub-20	1	sequence	stimulus	Katze	NaN	NaN	512.0	NaN	NaN	3.0	5.0	NaN	NaN	NaN	NaN	NaN
388.02493939999977	0.5171	sub-20	1	sequence	interval	dot	NaN	NaN	NaN	NaN	NaN	NaN	NaN	NaN	NaN	NaN	NaN	NaN
388.5420229000006	6.1532	sub-20	1	sequence	delay	dot	NaN	NaN	NaN	NaN	NaN	NaN	NaN	NaN	NaN	NaN	NaN	NaN
394.6754318999997	0.9893	sub-20	1	sequence	choice	choice	right	NaN	NaN	0.9671769999995375	True	NaN	NaN	right	True	5.0	4.0	4.0
395.6649822000004	0.5	sub-20	1	sequence	feedback	NaN	NaN	NaN	NaN	NaN	NaN	NaN	NaN	NaN	NaN	NaN	NaN	NaN
396.1652436	1.0004	sub-20	1	sequence	cue	Gesicht	NaN	NaN	NaN	NaN	NaN	NaN	NaN	NaN	NaN	NaN	NaN	NaN
397.16568750000033	2.0017	sub-20	1	sequence	blank	blank	NaN	NaN	NaN	NaN	NaN	NaN	NaN	NaN	NaN	NaN	NaN	NaN
399.1674115999999	0.3002	sub-20	1	sequence	fixation	dot	NaN	NaN	NaN	NaN	NaN	NaN	NaN	NaN	NaN	NaN	NaN	NaN
399.48607070000025	0.1149	sub-20	1	sequence	stimulus	Katze	NaN	NaN	128.0	NaN	NaN	3.0	1.0	NaN	NaN	NaN	NaN	NaN
399.6009654000004	0.1336	sub-20	1	sequence	interval	dot	NaN	NaN	NaN	NaN	NaN	NaN	NaN	NaN	NaN	NaN	NaN	NaN
399.7345559999999	0.0999	sub-20	1	sequence	stimulus	Stuhl	NaN	NaN	128.0	NaN	NaN	5.0	2.0	NaN	NaN	NaN	NaN	NaN
399.8344837	0.1337	sub-20	1	sequence	interval	dot	NaN	NaN	NaN	NaN	NaN	NaN	NaN	NaN	NaN	NaN	NaN	NaN
399.96822610000027	0.0999	sub-20	1	sequence	stimulus	Haus	NaN	NaN	128.0	NaN	NaN	2.0	3.0	NaN	NaN	NaN	NaN	NaN
400.0681338	0.1335	sub-20	1	sequence	interval	dot	NaN	NaN	NaN	NaN	NaN	NaN	NaN	NaN	NaN	NaN	NaN	NaN
400.2016263999999	0.0999	sub-20	1	sequence	stimulus	Gesicht	NaN	NaN	128.0	NaN	NaN	1.0	4.0	NaN	NaN	NaN	NaN	NaN
400.3015521000002	0.1336	sub-20	1	sequence	interval	dot	NaN	NaN	NaN	NaN	NaN	NaN	NaN	NaN	NaN	NaN	NaN	NaN
400.4351423000003	0.1	sub-20	1	sequence	stimulus	Schuh	NaN	NaN	128.0	NaN	NaN	4.0	5.0	NaN	NaN	NaN	NaN	NaN
400.5351416999997	0.1334	sub-20	1	sequence	interval	dot	NaN	NaN	NaN	NaN	NaN	NaN	NaN	NaN	NaN	NaN	NaN	NaN
400.6685327999999	8.0714	sub-20	1	sequence	delay	dot	NaN	NaN	NaN	NaN	NaN	NaN	NaN	NaN	NaN	NaN	NaN	NaN
408.7151195000001	0.8274	sub-20	1	sequence	choice	choice	right	NaN	NaN	0.7864236000004894	True	NaN	NaN	right	True	5.0	4.0	4.0
409.5428017999998	0.5	sub-20	1	sequence	feedback	NaN	NaN	NaN	NaN	NaN	NaN	NaN	NaN	NaN	NaN	NaN	NaN	NaN
410.0430573999997	1.0006	sub-20	1	sequence	cue	Schuh	NaN	NaN	NaN	NaN	NaN	NaN	NaN	NaN	NaN	NaN	NaN	NaN
411.0436173000003	2.0017	sub-20	1	sequence	blank	blank	NaN	NaN	NaN	NaN	NaN	NaN	NaN	NaN	NaN	NaN	NaN	NaN
413.04535630000055	0.3002	sub-20	1	sequence	fixation	dot	NaN	NaN	NaN	NaN	NaN	NaN	NaN	NaN	NaN	NaN	NaN	NaN
413.3629689000004	0.0994	sub-20	1	sequence	stimulus	Gesicht	NaN	NaN	32.0	NaN	NaN	1.0	1.0	NaN	NaN	NaN	NaN	NaN
413.4623242000002	0.0334	sub-20	1	sequence	interval	dot	NaN	NaN	NaN	NaN	NaN	NaN	NaN	NaN	NaN	NaN	NaN	NaN
413.4957012	0.1001	sub-20	1	sequence	stimulus	Katze	NaN	NaN	32.0	NaN	NaN	3.0	2.0	NaN	NaN	NaN	NaN	NaN
413.5957933000004	0.0334	sub-20	1	sequence	interval	dot	NaN	NaN	NaN	NaN	NaN	NaN	NaN	NaN	NaN	NaN	NaN	NaN
413.6292366000002	0.0999	sub-20	1	sequence	stimulus	Haus	NaN	NaN	32.0	NaN	NaN	2.0	3.0	NaN	NaN	NaN	NaN	NaN
413.7291545000003	0.0335	sub-20	1	sequence	interval	dot	NaN	NaN	NaN	NaN	NaN	NaN	NaN	NaN	NaN	NaN	NaN	NaN
413.76266630000055	0.1002	sub-20	1	sequence	stimulus	Schuh	NaN	NaN	32.0	NaN	NaN	4.0	4.0	NaN	NaN	NaN	NaN	NaN
413.86284660000047	0.0333	sub-20	1	sequence	interval	dot	NaN	NaN	NaN	NaN	NaN	NaN	NaN	NaN	NaN	NaN	NaN	NaN
413.8961088000001	0.1	sub-20	1	sequence	stimulus	Stuhl	NaN	NaN	32.0	NaN	NaN	5.0	5.0	NaN	NaN	NaN	NaN	NaN
413.9961156000004	0.0333	sub-20	1	sequence	interval	dot	NaN	NaN	NaN	NaN	NaN	NaN	NaN	NaN	NaN	NaN	NaN	NaN
414.0294632999999	8.5383	sub-20	1	sequence	delay	dot	NaN	NaN	NaN	NaN	NaN	NaN	NaN	NaN	NaN	NaN	NaN	NaN
422.5467915000004	0.7402	sub-20	1	sequence	choice	choice	left	NaN	NaN	0.718633200000113	True	NaN	NaN	left	True	4.0	3.0	4.0
423.2872616999998	0.5	sub-20	1	sequence	feedback	NaN	NaN	NaN	NaN	NaN	NaN	NaN	NaN	NaN	NaN	NaN	NaN	NaN
423.78738399999975	1.0006	sub-20	1	sequence	cue	Katze	NaN	NaN	NaN	NaN	NaN	NaN	NaN	NaN	NaN	NaN	NaN	NaN
424.78803280000056	2.0016	sub-20	1	sequence	blank	blank	NaN	NaN	NaN	NaN	NaN	NaN	NaN	NaN	NaN	NaN	NaN	NaN
426.78967000000057	0.3003	sub-20	1	sequence	fixation	dot	NaN	NaN	NaN	NaN	NaN	NaN	NaN	NaN	NaN	NaN	NaN	NaN
427.1074604	0.0992	sub-20	1	sequence	stimulus	Schuh	NaN	NaN	512.0	NaN	NaN	4.0	1.0	NaN	NaN	NaN	NaN	NaN
427.2066289999998	0.5173	sub-20	1	sequence	interval	dot	NaN	NaN	NaN	NaN	NaN	NaN	NaN	NaN	NaN	NaN	NaN	NaN
427.7239757000002	0.0997	sub-20	1	sequence	stimulus	Katze	NaN	NaN	512.0	NaN	NaN	3.0	2.0	NaN	NaN	NaN	NaN	NaN
427.8236904999999	0.5173	sub-20	1	sequence	interval	dot	NaN	NaN	NaN	NaN	NaN	NaN	NaN	NaN	NaN	NaN	NaN	NaN
428.3410337999999	0.0999	sub-20	1	sequence	stimulus	Stuhl	NaN	NaN	512.0	NaN	NaN	5.0	3.0	NaN	NaN	NaN	NaN	NaN
428.4409502000003	0.5173	sub-20	1	sequence	interval	dot	NaN	NaN	NaN	NaN	NaN	NaN	NaN	NaN	NaN	NaN	NaN	NaN
428.9582381000005	0.0999	sub-20	1	sequence	stimulus	Gesicht	NaN	NaN	512.0	NaN	NaN	1.0	4.0	NaN	NaN	NaN	NaN	NaN
429.0581064000002	0.5173	sub-20	1	sequence	interval	dot	NaN	NaN	NaN	NaN	NaN	NaN	NaN	NaN	NaN	NaN	NaN	NaN
429.5754106	0.0999	sub-20	1	sequence	stimulus	Haus	NaN	NaN	512.0	NaN	NaN	2.0	5.0	NaN	NaN	NaN	NaN	NaN
429.6752693000003	0.5171	sub-20	1	sequence	interval	dot	NaN	NaN	NaN	NaN	NaN	NaN	NaN	NaN	NaN	NaN	NaN	NaN
430.1923913000005	6.1533	sub-20	1	sequence	delay	dot	NaN	NaN	NaN	NaN	NaN	NaN	NaN	NaN	NaN	NaN	NaN	NaN
436.32651959999976	1.0886	sub-20	1	sequence	choice	choice	right	NaN	NaN	1.052634799999396	True	NaN	NaN	right	True	5.0	2.0	2.0
437.4153561999997	0.5	sub-20	1	sequence	feedback	NaN	NaN	NaN	NaN	NaN	NaN	NaN	NaN	NaN	NaN	NaN	NaN	NaN
437.9158854000002	12.2429	sub-20	1	other	break	break	NaN	NaN	NaN	NaN	NaN	NaN	NaN	NaN	NaN	NaN	NaN	NaN
453.97924600000033	0.4999	sub-20	1	localizer	stimulus	Katze	NaN	0	2.9019914000000426	NaN	True	NaN	NaN	NaN	NaN	NaN	NaN	NaN
454.4791941999997	2.902	sub-20	1	localizer	blank	interval	NaN	NaN	NaN	NaN	NaN	NaN	NaN	NaN	NaN	NaN	NaN	NaN
457.6821937	0.4995	sub-20	1	localizer	stimulus	Haus	NaN	0	2.6186718000007545	NaN	True	NaN	NaN	NaN	NaN	NaN	NaN	NaN
458.1651816999997	2.6187	sub-20	1	localizer	blank	interval	NaN	NaN	NaN	NaN	NaN	NaN	NaN	NaN	NaN	NaN	NaN	NaN
461.0849337000004	0.4995	sub-20	1	localizer	stimulus	Haus	NaN	180	2.6519852999999785	0.7213484000003518	True	NaN	NaN	NaN	NaN	NaN	NaN	NaN
461.5679475000002	2.652	sub-20	1	localizer	blank	interval	NaN	NaN	NaN	NaN	NaN	NaN	NaN	NaN	NaN	NaN	NaN	NaN
464.5210140000004	0.4995	sub-20	1	localizer	stimulus	Schuh	NaN	0	2.9522635000002992	NaN	True	NaN	NaN	NaN	NaN	NaN	NaN	NaN
465.0040480000002	2.9523	sub-20	1	localizer	blank	interval	NaN	NaN	NaN	NaN	NaN	NaN	NaN	NaN	NaN	NaN	NaN	NaN
468.2574052000005	0.4996	sub-20	1	localizer	stimulus	Gesicht	NaN	0	2.0348281000006523	NaN	True	NaN	NaN	NaN	NaN	NaN	NaN	NaN
468.7403928999997	2.0348	sub-20	1	localizer	blank	interval	NaN	NaN	NaN	NaN	NaN	NaN	NaN	NaN	NaN	NaN	NaN	NaN
471.0763308000001	0.4995	sub-20	1	localizer	stimulus	Gesicht	NaN	0	2.4181825999995112	NaN	True	NaN	NaN	NaN	NaN	NaN	NaN	NaN
471.5596360000004	2.4182	sub-20	1	localizer	blank	interval	NaN	NaN	NaN	NaN	NaN	NaN	NaN	NaN	NaN	NaN	NaN	NaN
474.2790307999999	0.4995	sub-20	1	localizer	stimulus	Schuh	NaN	180	3.0189875000006055	0.6072607999994943	True	NaN	NaN	NaN	NaN	NaN	NaN	NaN
474.7620923999998	3.019	sub-20	1	localizer	blank	interval	NaN	NaN	NaN	NaN	NaN	NaN	NaN	NaN	NaN	NaN	NaN	NaN
478.0821547000001	0.4997	sub-20	1	localizer	stimulus	Stuhl	NaN	0	2.168229799999608	NaN	True	NaN	NaN	NaN	NaN	NaN	NaN	NaN
478.5651497000004	2.1682	sub-20	1	localizer	blank	interval	NaN	NaN	NaN	NaN	NaN	NaN	NaN	NaN	NaN	NaN	NaN	NaN
481.0343949000003	0.4995	sub-20	1	localizer	stimulus	Stuhl	NaN	0	3.085700999999972	NaN	True	NaN	NaN	NaN	NaN	NaN	NaN	NaN
481.5173832000005	3.0857	sub-20	1	localizer	blank	interval	NaN	NaN	NaN	NaN	NaN	NaN	NaN	NaN	NaN	NaN	NaN	NaN
484.9042381000004	0.4994	sub-20	1	localizer	stimulus	Haus	NaN	0	2.4851533999999447	NaN	True	NaN	NaN	NaN	NaN	NaN	NaN	NaN
485.38725660000046	2.4852	sub-20	1	localizer	blank	interval	NaN	NaN	NaN	NaN	NaN	NaN	NaN	NaN	NaN	NaN	NaN	NaN
488.1735098000004	0.4995	sub-20	1	localizer	stimulus	Stuhl	NaN	0	2.134912200000201	NaN	True	NaN	NaN	NaN	NaN	NaN	NaN	NaN
488.6565102999998	2.1349	sub-20	1	localizer	blank	interval	NaN	NaN	NaN	NaN	NaN	NaN	NaN	NaN	NaN	NaN	NaN	NaN
491.0925050999999	0.5002	sub-20	1	localizer	stimulus	Katze	NaN	0	3.102341499999966	NaN	True	NaN	NaN	NaN	NaN	NaN	NaN	NaN
491.5755344000004	3.1023	sub-20	1	localizer	blank	interval	NaN	NaN	NaN	NaN	NaN	NaN	NaN	NaN	NaN	NaN	NaN	NaN
494.9791288000001	0.4996	sub-20	1	localizer	stimulus	Stuhl	NaN	180	2.4018509000006816	0.5631841999993412	True	NaN	NaN	NaN	NaN	NaN	NaN	NaN
495.4621020999998	2.4019	sub-20	1	localizer	blank	interval	NaN	NaN	NaN	NaN	NaN	NaN	NaN	NaN	NaN	NaN	NaN	NaN
498.1650845999998	0.4996	sub-20	1	localizer	stimulus	Gesicht	NaN	0	2.1680967000001488	NaN	True	NaN	NaN	NaN	NaN	NaN	NaN	NaN
498.6481010000002	2.1681	sub-20	1	localizer	blank	interval	NaN	NaN	NaN	NaN	NaN	NaN	NaN	NaN	NaN	NaN	NaN	NaN
501.1172959	0.4996	sub-20	1	localizer	stimulus	Stuhl	NaN	0	2.3684696999999346	NaN	True	NaN	NaN	NaN	NaN	NaN	NaN	NaN
501.60029690000056	2.3685	sub-20	1	localizer	blank	interval	NaN	NaN	NaN	NaN	NaN	NaN	NaN	NaN	NaN	NaN	NaN	NaN
504.2698428999997	0.4995	sub-20	1	localizer	stimulus	Schuh	NaN	0	2.785419100000638	NaN	True	NaN	NaN	NaN	NaN	NaN	NaN	NaN
504.7528810999997	2.7854	sub-20	1	localizer	blank	interval	NaN	NaN	NaN	NaN	NaN	NaN	NaN	NaN	NaN	NaN	NaN	NaN
507.83939620000046	0.4995	sub-20	1	localizer	stimulus	Schuh	NaN	0	2.6353604999994786	NaN	True	NaN	NaN	NaN	NaN	NaN	NaN	NaN
508.3224032000003	2.6354	sub-20	1	localizer	blank	interval	NaN	NaN	NaN	NaN	NaN	NaN	NaN	NaN	NaN	NaN	NaN	NaN
511.25884929999984	0.4995	sub-20	1	localizer	stimulus	Haus	NaN	0	1.7346537000003082	NaN	True	NaN	NaN	NaN	NaN	NaN	NaN	NaN
511.7419439	1.7347	sub-20	1	localizer	blank	interval	NaN	NaN	NaN	NaN	NaN	NaN	NaN	NaN	NaN	NaN	NaN	NaN
513.7775584000005	0.4996	sub-20	1	localizer	stimulus	Gesicht	NaN	180	3.669640099999924	0.5887091999993572	True	NaN	NaN	NaN	NaN	NaN	NaN	NaN
514.2605601	3.6696	sub-20	1	localizer	blank	interval	NaN	NaN	NaN	NaN	NaN	NaN	NaN	NaN	NaN	NaN	NaN	NaN
518.2312072999998	0.5001	sub-20	1	localizer	stimulus	Katze	NaN	0	3.1188861000000543	NaN	True	NaN	NaN	NaN	NaN	NaN	NaN	NaN
518.7143112999997	3.1189	sub-20	1	localizer	blank	interval	NaN	NaN	NaN	NaN	NaN	NaN	NaN	NaN	NaN	NaN	NaN	NaN
522.1343188000005	0.4995	sub-20	1	localizer	stimulus	Gesicht	NaN	0	2.952235699999619	NaN	True	NaN	NaN	NaN	NaN	NaN	NaN	NaN
522.6173123000003	2.9522	sub-20	1	localizer	blank	interval	NaN	NaN	NaN	NaN	NaN	NaN	NaN	NaN	NaN	NaN	NaN	NaN
525.8707036000001	0.4995	sub-20	1	localizer	stimulus	Haus	NaN	0	3.5526750999997603	NaN	True	NaN	NaN	NaN	NaN	NaN	NaN	NaN
526.3537091000003	3.5527	sub-20	1	localizer	blank	interval	NaN	NaN	NaN	NaN	NaN	NaN	NaN	NaN	NaN	NaN	NaN	NaN
530.2075237000004	0.4996	sub-20	1	localizer	stimulus	Katze	NaN	180	2.368395899999996	0.638839199999893	True	NaN	NaN	NaN	NaN	NaN	NaN	NaN
530.6905473000002	2.3684	sub-20	1	localizer	blank	interval	NaN	NaN	NaN	NaN	NaN	NaN	NaN	NaN	NaN	NaN	NaN	NaN
533.3600492999999	0.4998	sub-20	1	localizer	stimulus	Schuh	NaN	0	2.785358300000553	NaN	True	NaN	NaN	NaN	NaN	NaN	NaN	NaN
533.8431237999998	2.7854	sub-20	1	localizer	blank	interval	NaN	NaN	NaN	NaN	NaN	NaN	NaN	NaN	NaN	NaN	NaN	NaN
536.9297406999999	0.4994	sub-20	1	localizer	stimulus	Katze	NaN	0	2.4852701999998317	NaN	True	NaN	NaN	NaN	NaN	NaN	NaN	NaN
537.4127302000002	2.4853	sub-20	1	localizer	blank	interval	NaN	NaN	NaN	NaN	NaN	NaN	NaN	NaN	NaN	NaN	NaN	NaN
543.3842516999998	1.0005	sub-20	1	sequence	cue	Gesicht	NaN	NaN	NaN	NaN	NaN	NaN	NaN	NaN	NaN	NaN	NaN	NaN
544.3847958000001	2.0016	sub-20	1	sequence	blank	blank	NaN	NaN	NaN	NaN	NaN	NaN	NaN	NaN	NaN	NaN	NaN	NaN
546.3864137000005	0.3002	sub-20	1	sequence	fixation	dot	NaN	NaN	NaN	NaN	NaN	NaN	NaN	NaN	NaN	NaN	NaN	NaN
546.7051596000006	0.1149	sub-20	1	sequence	stimulus	Schuh	NaN	NaN	32.0	NaN	NaN	4.0	1.0	NaN	NaN	NaN	NaN	NaN
546.8200984999999	0.0335	sub-20	1	sequence	interval	dot	NaN	NaN	NaN	NaN	NaN	NaN	NaN	NaN	NaN	NaN	NaN	NaN
546.8536200000003	0.0999	sub-20	1	sequence	stimulus	Haus	NaN	NaN	32.0	NaN	NaN	2.0	2.0	NaN	NaN	NaN	NaN	NaN
546.9535450999997	0.0335	sub-20	1	sequence	interval	dot	NaN	NaN	NaN	NaN	NaN	NaN	NaN	NaN	NaN	NaN	NaN	NaN
546.9870609000004	0.0999	sub-20	1	sequence	stimulus	Gesicht	NaN	NaN	32.0	NaN	NaN	1.0	3.0	NaN	NaN	NaN	NaN	NaN
547.0869827000001	0.0335	sub-20	1	sequence	interval	dot	NaN	NaN	NaN	NaN	NaN	NaN	NaN	NaN	NaN	NaN	NaN	NaN
547.1204874	0.0999	sub-20	1	sequence	stimulus	Katze	NaN	NaN	32.0	NaN	NaN	3.0	4.0	NaN	NaN	NaN	NaN	NaN
547.2204034000001	0.0335	sub-20	1	sequence	interval	dot	NaN	NaN	NaN	NaN	NaN	NaN	NaN	NaN	NaN	NaN	NaN	NaN
547.2539184000002	0.1	sub-20	1	sequence	stimulus	Stuhl	NaN	NaN	32.0	NaN	NaN	5.0	5.0	NaN	NaN	NaN	NaN	NaN
547.3538758999998	0.0333	sub-20	1	sequence	interval	dot	NaN	NaN	NaN	NaN	NaN	NaN	NaN	NaN	NaN	NaN	NaN	NaN
547.3871875	8.5217	sub-20	1	sequence	delay	dot	NaN	NaN	NaN	NaN	NaN	NaN	NaN	NaN	NaN	NaN	NaN	NaN
555.8979451999999	2.0981	sub-20	1	sequence	choice	choice	right	NaN	NaN	2.0734936999997444	True	NaN	NaN	right	True	5.0	3.0	3.0
557.9964382000003	0.5	sub-20	1	sequence	feedback	NaN	NaN	NaN	NaN	NaN	NaN	NaN	NaN	NaN	NaN	NaN	NaN	NaN
558.4966760000002	1.0005	sub-20	1	sequence	cue	Gesicht	NaN	NaN	NaN	NaN	NaN	NaN	NaN	NaN	NaN	NaN	NaN	NaN
559.4972260999998	2.0017	sub-20	1	sequence	blank	blank	NaN	NaN	NaN	NaN	NaN	NaN	NaN	NaN	NaN	NaN	NaN	NaN
561.4988917000005	0.3002	sub-20	1	sequence	fixation	dot	NaN	NaN	NaN	NaN	NaN	NaN	NaN	NaN	NaN	NaN	NaN	NaN
561.8173843999998	0.1151	sub-20	1	sequence	stimulus	Schuh	NaN	NaN	512.0	NaN	NaN	4.0	1.0	NaN	NaN	NaN	NaN	NaN
561.9325259000002	0.517	sub-20	1	sequence	interval	dot	NaN	NaN	NaN	NaN	NaN	NaN	NaN	NaN	NaN	NaN	NaN	NaN
562.4495372000006	0.0999	sub-20	1	sequence	stimulus	Katze	NaN	NaN	512.0	NaN	NaN	3.0	2.0	NaN	NaN	NaN	NaN	NaN
562.5494634000001	0.5173	sub-20	1	sequence	interval	dot	NaN	NaN	NaN	NaN	NaN	NaN	NaN	NaN	NaN	NaN	NaN	NaN
563.0667248000004	0.1	sub-20	1	sequence	stimulus	Stuhl	NaN	NaN	512.0	NaN	NaN	5.0	3.0	NaN	NaN	NaN	NaN	NaN
563.1667061000003	0.5172	sub-20	1	sequence	interval	dot	NaN	NaN	NaN	NaN	NaN	NaN	NaN	NaN	NaN	NaN	NaN	NaN
563.6838773000004	0.0999	sub-20	1	sequence	stimulus	Gesicht	NaN	NaN	512.0	NaN	NaN	1.0	4.0	NaN	NaN	NaN	NaN	NaN
563.7838165999997	0.5173	sub-20	1	sequence	interval	dot	NaN	NaN	NaN	NaN	NaN	NaN	NaN	NaN	NaN	NaN	NaN	NaN
564.3010753000003	0.0999	sub-20	1	sequence	stimulus	Haus	NaN	NaN	512.0	NaN	NaN	2.0	5.0	NaN	NaN	NaN	NaN	NaN
564.4009613000003	0.5171	sub-20	1	sequence	interval	dot	NaN	NaN	NaN	NaN	NaN	NaN	NaN	NaN	NaN	NaN	NaN	NaN
564.9180902000003	6.1531	sub-20	1	sequence	delay	dot	NaN	NaN	NaN	NaN	NaN	NaN	NaN	NaN	NaN	NaN	NaN	NaN
571.0561567999998	0.8345	sub-20	1	sequence	choice	choice	left	NaN	NaN	0.8071610999995755	True	NaN	NaN	left	True	4.0	5.0	4.0
571.8909022000003	0.4999	sub-20	1	sequence	feedback	NaN	NaN	NaN	NaN	NaN	NaN	NaN	NaN	NaN	NaN	NaN	NaN	NaN
572.3909520000002	1.0007	sub-20	1	sequence	cue	Haus	NaN	NaN	NaN	NaN	NaN	NaN	NaN	NaN	NaN	NaN	NaN	NaN
573.3916942000001	2.0015	sub-20	1	sequence	blank	blank	NaN	NaN	NaN	NaN	NaN	NaN	NaN	NaN	NaN	NaN	NaN	NaN
575.3932105999997	0.3003	sub-20	1	sequence	fixation	dot	NaN	NaN	NaN	NaN	NaN	NaN	NaN	NaN	NaN	NaN	NaN	NaN
575.7109772999997	0.0993	sub-20	1	sequence	stimulus	Gesicht	NaN	NaN	32.0	NaN	NaN	1.0	1.0	NaN	NaN	NaN	NaN	NaN
575.8103001000004	0.0334	sub-20	1	sequence	interval	dot	NaN	NaN	NaN	NaN	NaN	NaN	NaN	NaN	NaN	NaN	NaN	NaN
575.8437423	0.0999	sub-20	1	sequence	stimulus	Katze	NaN	NaN	32.0	NaN	NaN	3.0	2.0	NaN	NaN	NaN	NaN	NaN
575.943608	0.0336	sub-20	1	sequence	interval	dot	NaN	NaN	NaN	NaN	NaN	NaN	NaN	NaN	NaN	NaN	NaN	NaN
575.9772558999998	0.0998	sub-20	1	sequence	stimulus	Haus	NaN	NaN	32.0	NaN	NaN	2.0	3.0	NaN	NaN	NaN	NaN	NaN
576.0770783000003	0.0335	sub-20	1	sequence	interval	dot	NaN	NaN	NaN	NaN	NaN	NaN	NaN	NaN	NaN	NaN	NaN	NaN
576.1106118000002	0.1	sub-20	1	sequence	stimulus	Schuh	NaN	NaN	32.0	NaN	NaN	4.0	4.0	NaN	NaN	NaN	NaN	NaN
576.2106085	0.0334	sub-20	1	sequence	interval	dot	NaN	NaN	NaN	NaN	NaN	NaN	NaN	NaN	NaN	NaN	NaN	NaN
576.2440412000001	0.0999	sub-20	1	sequence	stimulus	Stuhl	NaN	NaN	32.0	NaN	NaN	5.0	5.0	NaN	NaN	NaN	NaN	NaN
576.3439383	0.0334	sub-20	1	sequence	interval	dot	NaN	NaN	NaN	NaN	NaN	NaN	NaN	NaN	NaN	NaN	NaN	NaN
576.3773206000001	8.5216	sub-20	1	sequence	delay	dot	NaN	NaN	NaN	NaN	NaN	NaN	NaN	NaN	NaN	NaN	NaN	NaN
584.8873202999998	1.3149	sub-20	1	sequence	choice	choice	right	NaN	NaN	1.2995241999997234	True	NaN	NaN	right	True	2.0	3.0	3.0
586.2025479999998	0.5	sub-20	1	sequence	feedback	NaN	NaN	NaN	NaN	NaN	NaN	NaN	NaN	NaN	NaN	NaN	NaN	NaN
586.7027670000002	1.0004	sub-20	1	sequence	cue	Schuh	NaN	NaN	NaN	NaN	NaN	NaN	NaN	NaN	NaN	NaN	NaN	NaN
587.7031945000003	2.0016	sub-20	1	sequence	blank	blank	NaN	NaN	NaN	NaN	NaN	NaN	NaN	NaN	NaN	NaN	NaN	NaN
589.7048157000004	0.3002	sub-20	1	sequence	fixation	dot	NaN	NaN	NaN	NaN	NaN	NaN	NaN	NaN	NaN	NaN	NaN	NaN
590.0234813000002	0.115	sub-20	1	sequence	stimulus	Haus	NaN	NaN	64.0	NaN	NaN	2.0	1.0	NaN	NaN	NaN	NaN	NaN
590.1384557000006	0.0669	sub-20	1	sequence	interval	dot	NaN	NaN	NaN	NaN	NaN	NaN	NaN	NaN	NaN	NaN	NaN	NaN
590.2053712000002	0.0999	sub-20	1	sequence	stimulus	Gesicht	NaN	NaN	64.0	NaN	NaN	1.0	2.0	NaN	NaN	NaN	NaN	NaN
590.3052641999998	0.0669	sub-20	1	sequence	interval	dot	NaN	NaN	NaN	NaN	NaN	NaN	NaN	NaN	NaN	NaN	NaN	NaN
590.3721405000001	0.0999	sub-20	1	sequence	stimulus	Katze	NaN	NaN	64.0	NaN	NaN	3.0	3.0	NaN	NaN	NaN	NaN	NaN
590.4720836000001	0.0668	sub-20	1	sequence	interval	dot	NaN	NaN	NaN	NaN	NaN	NaN	NaN	NaN	NaN	NaN	NaN	NaN
590.5389320999998	0.0999	sub-20	1	sequence	stimulus	Schuh	NaN	NaN	64.0	NaN	NaN	4.0	4.0	NaN	NaN	NaN	NaN	NaN
590.6388646	0.0669	sub-20	1	sequence	interval	dot	NaN	NaN	NaN	NaN	NaN	NaN	NaN	NaN	NaN	NaN	NaN	NaN
590.7057516999998	0.0999	sub-20	1	sequence	stimulus	Stuhl	NaN	NaN	64.0	NaN	NaN	5.0	5.0	NaN	NaN	NaN	NaN	NaN
590.8056688000001	0.0667	sub-20	1	sequence	interval	dot	NaN	NaN	NaN	NaN	NaN	NaN	NaN	NaN	NaN	NaN	NaN	NaN
590.8723985000001	8.3883	sub-20	1	sequence	delay	dot	NaN	NaN	NaN	NaN	NaN	NaN	NaN	NaN	NaN	NaN	NaN	NaN
599.2391155999999	0.8911	sub-20	1	sequence	choice	choice	right	NaN	NaN	0.8576153000003615	True	NaN	NaN	right	True	5.0	4.0	4.0
600.1304501	0.5001	sub-20	1	sequence	feedback	NaN	NaN	NaN	NaN	NaN	NaN	NaN	NaN	NaN	NaN	NaN	NaN	NaN
600.6307780000002	1.0005	sub-20	1	sequence	cue	Katze	NaN	NaN	NaN	NaN	NaN	NaN	NaN	NaN	NaN	NaN	NaN	NaN
601.6312781000001	2.0017	sub-20	1	sequence	blank	blank	NaN	NaN	NaN	NaN	NaN	NaN	NaN	NaN	NaN	NaN	NaN	NaN
603.6329642000005	0.3002	sub-20	1	sequence	fixation	dot	NaN	NaN	NaN	NaN	NaN	NaN	NaN	NaN	NaN	NaN	NaN	NaN
603.9515164999998	0.115	sub-20	1	sequence	stimulus	Stuhl	NaN	NaN	512.0	NaN	NaN	5.0	1.0	NaN	NaN	NaN	NaN	NaN
604.0665584000003	0.5171	sub-20	1	sequence	interval	dot	NaN	NaN	NaN	NaN	NaN	NaN	NaN	NaN	NaN	NaN	NaN	NaN
604.5836603000002	0.0999	sub-20	1	sequence	stimulus	Gesicht	NaN	NaN	512.0	NaN	NaN	1.0	2.0	NaN	NaN	NaN	NaN	NaN
604.6835775000004	0.5172	sub-20	1	sequence	interval	dot	NaN	NaN	NaN	NaN	NaN	NaN	NaN	NaN	NaN	NaN	NaN	NaN
605.2008259999998	0.0999	sub-20	1	sequence	stimulus	Haus	NaN	NaN	512.0	NaN	NaN	2.0	3.0	NaN	NaN	NaN	NaN	NaN
605.3007327	0.5172	sub-20	1	sequence	interval	dot	NaN	NaN	NaN	NaN	NaN	NaN	NaN	NaN	NaN	NaN	NaN	NaN
605.8179529000004	0.0999	sub-20	1	sequence	stimulus	Schuh	NaN	NaN	512.0	NaN	NaN	4.0	4.0	NaN	NaN	NaN	NaN	NaN
605.9178820000002	0.5172	sub-20	1	sequence	interval	dot	NaN	NaN	NaN	NaN	NaN	NaN	NaN	NaN	NaN	NaN	NaN	NaN
606.4351259999999	0.1	sub-20	1	sequence	stimulus	Katze	NaN	NaN	512.0	NaN	NaN	3.0	5.0	NaN	NaN	NaN	NaN	NaN
606.5350829000004	0.5171	sub-20	1	sequence	interval	dot	NaN	NaN	NaN	NaN	NaN	NaN	NaN	NaN	NaN	NaN	NaN	NaN
607.0521367000006	6.1365	sub-20	1	sequence	delay	dot	NaN	NaN	NaN	NaN	NaN	NaN	NaN	NaN	NaN	NaN	NaN	NaN
613.1748086000002	0.9833	sub-20	1	sequence	choice	choice	left	NaN	NaN	0.9616454000006344	True	NaN	NaN	left	True	5.0	3.0	5.0
614.1584110999997	0.5001	sub-20	1	sequence	feedback	NaN	NaN	NaN	NaN	NaN	NaN	NaN	NaN	NaN	NaN	NaN	NaN	NaN
614.6587241000002	1.0005	sub-20	1	sequence	cue	Katze	NaN	NaN	NaN	NaN	NaN	NaN	NaN	NaN	NaN	NaN	NaN	NaN
615.6591825999999	2.0016	sub-20	1	sequence	blank	blank	NaN	NaN	NaN	NaN	NaN	NaN	NaN	NaN	NaN	NaN	NaN	NaN
617.6607592000005	0.3003	sub-20	1	sequence	fixation	dot	NaN	NaN	NaN	NaN	NaN	NaN	NaN	NaN	NaN	NaN	NaN	NaN
617.9784897000004	0.0993	sub-20	1	sequence	stimulus	Katze	NaN	NaN	128.0	NaN	NaN	3.0	1.0	NaN	NaN	NaN	NaN	NaN
618.0777455000002	0.1336	sub-20	1	sequence	interval	dot	NaN	NaN	NaN	NaN	NaN	NaN	NaN	NaN	NaN	NaN	NaN	NaN
618.2113132999998	0.0999	sub-20	1	sequence	stimulus	Stuhl	NaN	NaN	128.0	NaN	NaN	5.0	2.0	NaN	NaN	NaN	NaN	NaN
618.3112232999997	0.1336	sub-20	1	sequence	interval	dot	NaN	NaN	NaN	NaN	NaN	NaN	NaN	NaN	NaN	NaN	NaN	NaN
618.4448685000002	0.1001	sub-20	1	sequence	stimulus	Haus	NaN	NaN	128.0	NaN	NaN	2.0	3.0	NaN	NaN	NaN	NaN	NaN
618.5449195000006	0.1335	sub-20	1	sequence	interval	dot	NaN	NaN	NaN	NaN	NaN	NaN	NaN	NaN	NaN	NaN	NaN	NaN
618.6784418000002	0.0998	sub-20	1	sequence	stimulus	Gesicht	NaN	NaN	128.0	NaN	NaN	1.0	4.0	NaN	NaN	NaN	NaN	NaN
618.7782751999998	0.1336	sub-20	1	sequence	interval	dot	NaN	NaN	NaN	NaN	NaN	NaN	NaN	NaN	NaN	NaN	NaN	NaN
618.9118645000003	0.1	sub-20	1	sequence	stimulus	Schuh	NaN	NaN	128.0	NaN	NaN	4.0	5.0	NaN	NaN	NaN	NaN	NaN
619.0118199000003	0.1334	sub-20	1	sequence	interval	dot	NaN	NaN	NaN	NaN	NaN	NaN	NaN	NaN	NaN	NaN	NaN	NaN
619.1452364000002	8.0714	sub-20	1	sequence	delay	dot	NaN	NaN	NaN	NaN	NaN	NaN	NaN	NaN	NaN	NaN	NaN	NaN
627.1884962999998	0.8475	sub-20	1	sequence	choice	choice	right	NaN	NaN	0.8136773999995057	True	NaN	NaN	right	True	4.0	1.0	1.0
628.0363035000005	0.5	sub-20	1	sequence	feedback	NaN	NaN	NaN	NaN	NaN	NaN	NaN	NaN	NaN	NaN	NaN	NaN	NaN
628.5364634000002	1.0006	sub-20	1	sequence	cue	Haus	NaN	NaN	NaN	NaN	NaN	NaN	NaN	NaN	NaN	NaN	NaN	NaN
629.5370823999997	2.0017	sub-20	1	sequence	blank	blank	NaN	NaN	NaN	NaN	NaN	NaN	NaN	NaN	NaN	NaN	NaN	NaN
631.5387789000001	0.3002	sub-20	1	sequence	fixation	dot	NaN	NaN	NaN	NaN	NaN	NaN	NaN	NaN	NaN	NaN	NaN	NaN
631.8572958999998	0.115	sub-20	1	sequence	stimulus	Schuh	NaN	NaN	64.0	NaN	NaN	4.0	1.0	NaN	NaN	NaN	NaN	NaN
631.9723232000001	0.0669	sub-20	1	sequence	interval	dot	NaN	NaN	NaN	NaN	NaN	NaN	NaN	NaN	NaN	NaN	NaN	NaN
632.0392064000002	0.0999	sub-20	1	sequence	stimulus	Gesicht	NaN	NaN	64.0	NaN	NaN	1.0	2.0	NaN	NaN	NaN	NaN	NaN
632.1391359000004	0.0668	sub-20	1	sequence	interval	dot	NaN	NaN	NaN	NaN	NaN	NaN	NaN	NaN	NaN	NaN	NaN	NaN
632.2059774000004	0.1	sub-20	1	sequence	stimulus	Stuhl	NaN	NaN	64.0	NaN	NaN	5.0	3.0	NaN	NaN	NaN	NaN	NaN
632.3059312	0.0669	sub-20	1	sequence	interval	dot	NaN	NaN	NaN	NaN	NaN	NaN	NaN	NaN	NaN	NaN	NaN	NaN
632.3728418000005	0.0999	sub-20	1	sequence	stimulus	Katze	NaN	NaN	64.0	NaN	NaN	3.0	4.0	NaN	NaN	NaN	NaN	NaN
632.4726992000001	0.067	sub-20	1	sequence	interval	dot	NaN	NaN	NaN	NaN	NaN	NaN	NaN	NaN	NaN	NaN	NaN	NaN
632.5396919	0.0998	sub-20	1	sequence	stimulus	Haus	NaN	NaN	64.0	NaN	NaN	2.0	5.0	NaN	NaN	NaN	NaN	NaN
632.6395035	0.0667	sub-20	1	sequence	interval	dot	NaN	NaN	NaN	NaN	NaN	NaN	NaN	NaN	NaN	NaN	NaN	NaN
632.7062326999999	8.3882	sub-20	1	sequence	delay	dot	NaN	NaN	NaN	NaN	NaN	NaN	NaN	NaN	NaN	NaN	NaN	NaN
641.0721276999998	0.942	sub-20	1	sequence	choice	choice	left	NaN	NaN	0.911898499999552	True	NaN	NaN	left	True	5.0	3.0	5.0
642.0144298999999	0.5	sub-20	1	sequence	feedback	NaN	NaN	NaN	NaN	NaN	NaN	NaN	NaN	NaN	NaN	NaN	NaN	NaN
642.5146006999998	1.0006	sub-20	1	sequence	cue	Schuh	NaN	NaN	NaN	NaN	NaN	NaN	NaN	NaN	NaN	NaN	NaN	NaN
643.5152540000004	2.0016	sub-20	1	sequence	blank	blank	NaN	NaN	NaN	NaN	NaN	NaN	NaN	NaN	NaN	NaN	NaN	NaN
645.5168528999998	0.3002	sub-20	1	sequence	fixation	dot	NaN	NaN	NaN	NaN	NaN	NaN	NaN	NaN	NaN	NaN	NaN	NaN
645.8353546000003	0.1151	sub-20	1	sequence	stimulus	Stuhl	NaN	NaN	128.0	NaN	NaN	5.0	1.0	NaN	NaN	NaN	NaN	NaN
645.9504527000004	0.1335	sub-20	1	sequence	interval	dot	NaN	NaN	NaN	NaN	NaN	NaN	NaN	NaN	NaN	NaN	NaN	NaN
646.0839667000005	0.0999	sub-20	1	sequence	stimulus	Gesicht	NaN	NaN	128.0	NaN	NaN	1.0	2.0	NaN	NaN	NaN	NaN	NaN
646.1838264000003	0.1336	sub-20	1	sequence	interval	dot	NaN	NaN	NaN	NaN	NaN	NaN	NaN	NaN	NaN	NaN	NaN	NaN
646.3174757000002	0.0999	sub-20	1	sequence	stimulus	Schuh	NaN	NaN	128.0	NaN	NaN	4.0	3.0	NaN	NaN	NaN	NaN	NaN
646.4173385999998	0.1336	sub-20	1	sequence	interval	dot	NaN	NaN	NaN	NaN	NaN	NaN	NaN	NaN	NaN	NaN	NaN	NaN
646.5509696000004	0.0999	sub-20	1	sequence	stimulus	Katze	NaN	NaN	128.0	NaN	NaN	3.0	4.0	NaN	NaN	NaN	NaN	NaN
646.6508772000002	0.1336	sub-20	1	sequence	interval	dot	NaN	NaN	NaN	NaN	NaN	NaN	NaN	NaN	NaN	NaN	NaN	NaN
646.7844842	0.1	sub-20	1	sequence	stimulus	Haus	NaN	NaN	128.0	NaN	NaN	2.0	5.0	NaN	NaN	NaN	NaN	NaN
646.8844777999998	0.1333	sub-20	1	sequence	interval	dot	NaN	NaN	NaN	NaN	NaN	NaN	NaN	NaN	NaN	NaN	NaN	NaN
647.0177906000004	8.0546	sub-20	1	sequence	delay	dot	NaN	NaN	NaN	NaN	NaN	NaN	NaN	NaN	NaN	NaN	NaN	NaN
655.0599213999999	0.8487	sub-20	1	sequence	choice	choice	left	NaN	NaN	0.8299455999995189	True	NaN	NaN	left	True	3.0	5.0	3.0
655.9088709000002	0.5001	sub-20	1	sequence	feedback	NaN	NaN	NaN	NaN	NaN	NaN	NaN	NaN	NaN	NaN	NaN	NaN	NaN
660.2293958000005	0.4995	sub-20	1	localizer	stimulus	Katze	NaN	180	2.7522784000002503	1.304817200000798	True	NaN	NaN	NaN	NaN	NaN	NaN	NaN
660.7123992000002	2.7523	sub-20	1	localizer	blank	interval	NaN	NaN	NaN	NaN	NaN	NaN	NaN	NaN	NaN	NaN	NaN	NaN
663.7656504000001	0.4996	sub-20	1	localizer	stimulus	Haus	NaN	0	2.785305000000335	NaN	True	NaN	NaN	NaN	NaN	NaN	NaN	NaN
664.2487367999997	2.7853	sub-20	1	localizer	blank	interval	NaN	NaN	NaN	NaN	NaN	NaN	NaN	NaN	NaN	NaN	NaN	NaN
667.3351392	0.4995	sub-20	1	localizer	stimulus	Haus	NaN	180	1.7180459999999584	0.6231710999991265	True	NaN	NaN	NaN	NaN	NaN	NaN	NaN
667.8181555000006	1.718	sub-20	1	localizer	blank	interval	NaN	NaN	NaN	NaN	NaN	NaN	NaN	NaN	NaN	NaN	NaN	NaN
669.8370762	0.4997	sub-20	1	localizer	stimulus	Katze	NaN	0	2.2182136000001265	NaN	True	NaN	NaN	NaN	NaN	NaN	NaN	NaN
670.3202643	2.2182	sub-20	1	localizer	blank	interval	NaN	NaN	NaN	NaN	NaN	NaN	NaN	NaN	NaN	NaN	NaN	NaN
672.8395789000001	0.4997	sub-20	1	localizer	stimulus	Gesicht	NaN	0	2.051585000000159	NaN	True	NaN	NaN	NaN	NaN	NaN	NaN	NaN
673.3225986000002	2.0516	sub-20	1	localizer	blank	interval	NaN	NaN	NaN	NaN	NaN	NaN	NaN	NaN	NaN	NaN	NaN	NaN
675.6751804	0.4996	sub-20	1	localizer	stimulus	Stuhl	NaN	0	3.6861527000000933	NaN	True	NaN	NaN	NaN	NaN	NaN	NaN	NaN
676.1582113	3.6862	sub-20	1	localizer	blank	interval	NaN	NaN	NaN	NaN	NaN	NaN	NaN	NaN	NaN	NaN	NaN	NaN
680.1454662000001	0.4996	sub-20	1	localizer	stimulus	Gesicht	NaN	0	2.001568800000314	NaN	True	NaN	NaN	NaN	NaN	NaN	NaN	NaN
680.62851	2.0016	sub-20	1	localizer	blank	interval	NaN	NaN	NaN	NaN	NaN	NaN	NaN	NaN	NaN	NaN	NaN	NaN
682.9311387000002	0.4995	sub-20	1	localizer	stimulus	Schuh	NaN	0	2.585485999999946	NaN	True	NaN	NaN	NaN	NaN	NaN	NaN	NaN
683.4140817000002	2.5855	sub-20	1	localizer	blank	interval	NaN	NaN	NaN	NaN	NaN	NaN	NaN	NaN	NaN	NaN	NaN	NaN
686.3005766000001	0.4996	sub-20	1	localizer	stimulus	Schuh	NaN	0	2.7184701999995013	NaN	True	NaN	NaN	NaN	NaN	NaN	NaN	NaN
686.7837804000005	2.7185	sub-20	1	localizer	blank	interval	NaN	NaN	NaN	NaN	NaN	NaN	NaN	NaN	NaN	NaN	NaN	NaN
689.8033263000002	0.4997	sub-20	1	localizer	stimulus	Haus	NaN	0	3.2857772999996087	NaN	True	NaN	NaN	NaN	NaN	NaN	NaN	NaN
690.2865008000003	3.2858	sub-20	1	localizer	blank	interval	NaN	NaN	NaN	NaN	NaN	NaN	NaN	NaN	NaN	NaN	NaN	NaN
693.8732356000005	0.4996	sub-20	1	localizer	stimulus	Gesicht	NaN	0	2.418471899999531	NaN	True	NaN	NaN	NaN	NaN	NaN	NaN	NaN
694.3562777000002	2.4185	sub-20	1	localizer	blank	interval	NaN	NaN	NaN	NaN	NaN	NaN	NaN	NaN	NaN	NaN	NaN	NaN
697.0758546000002	0.4996	sub-20	1	localizer	stimulus	Gesicht	NaN	0	2.234787100000176	NaN	True	NaN	NaN	NaN	NaN	NaN	NaN	NaN
697.5592036000003	2.2348	sub-20	1	localizer	blank	interval	NaN	NaN	NaN	NaN	NaN	NaN	NaN	NaN	NaN	NaN	NaN	NaN
700.0949703000001	0.5	sub-20	1	localizer	stimulus	Haus	NaN	0	3.018921099999716	NaN	True	NaN	NaN	NaN	NaN	NaN	NaN	NaN
700.5781614000002	3.0189	sub-20	1	localizer	blank	interval	NaN	NaN	NaN	NaN	NaN	NaN	NaN	NaN	NaN	NaN	NaN	NaN
703.8980895999998	0.4995	sub-20	1	localizer	stimulus	Stuhl	NaN	0	3.1025422000002436	NaN	True	NaN	NaN	NaN	NaN	NaN	NaN	NaN
704.3810428000002	3.1025	sub-20	1	localizer	blank	interval	NaN	NaN	NaN	NaN	NaN	NaN	NaN	NaN	NaN	NaN	NaN	NaN
707.7847173000005	0.4996	sub-20	1	localizer	stimulus	Katze	NaN	0	1.867896099999598	NaN	True	NaN	NaN	NaN	NaN	NaN	NaN	NaN
708.2677389000005	1.8679	sub-20	1	localizer	blank	interval	NaN	NaN	NaN	NaN	NaN	NaN	NaN	NaN	NaN	NaN	NaN	NaN
710.4366642999998	0.4995	sub-20	1	localizer	stimulus	Katze	NaN	0	2.535192499999539	NaN	True	NaN	NaN	NaN	NaN	NaN	NaN	NaN
710.9196978000004	2.5352	sub-20	1	localizer	blank	interval	NaN	NaN	NaN	NaN	NaN	NaN	NaN	NaN	NaN	NaN	NaN	NaN
713.7559802000001	0.4996	sub-20	1	localizer	stimulus	Schuh	NaN	180	2.0681579000001875	0.6103737000003093	True	NaN	NaN	NaN	NaN	NaN	NaN	NaN
714.2390558000002	2.0682	sub-20	1	localizer	blank	interval	NaN	NaN	NaN	NaN	NaN	NaN	NaN	NaN	NaN	NaN	NaN	NaN
716.6082707	0.4996	sub-20	1	localizer	stimulus	Stuhl	NaN	0	2.385169700000006	NaN	True	NaN	NaN	NaN	NaN	NaN	NaN	NaN
717.0913776000002	2.3852	sub-20	1	localizer	blank	interval	NaN	NaN	NaN	NaN	NaN	NaN	NaN	NaN	NaN	NaN	NaN	NaN
719.7775514999998	0.4995	sub-20	1	localizer	stimulus	Schuh	NaN	0	2.5352217999998174	NaN	True	NaN	NaN	NaN	NaN	NaN	NaN	NaN
720.2605871999999	2.5352	sub-20	1	localizer	blank	interval	NaN	NaN	NaN	NaN	NaN	NaN	NaN	NaN	NaN	NaN	NaN	NaN
723.0969176000003	0.4997	sub-20	1	localizer	stimulus	Gesicht	NaN	180	2.969025800000054	0.5573205999999118	True	NaN	NaN	NaN	NaN	NaN	NaN	NaN
723.5799263000004	2.969	sub-20	1	localizer	blank	interval	NaN	NaN	NaN	NaN	NaN	NaN	NaN	NaN	NaN	NaN	NaN	NaN
726.8499648000002	0.4997	sub-20	1	localizer	stimulus	Katze	NaN	0	2.251763399999618	NaN	True	NaN	NaN	NaN	NaN	NaN	NaN	NaN
727.3330697000006	2.2518	sub-20	1	localizer	blank	interval	NaN	NaN	NaN	NaN	NaN	NaN	NaN	NaN	NaN	NaN	NaN	NaN
729.8857726000001	0.4995	sub-20	1	localizer	stimulus	Stuhl	NaN	180	1.9680958999997529	0.5845085999999355	True	NaN	NaN	NaN	NaN	NaN	NaN	NaN
730.3687400000003	1.9681	sub-20	1	localizer	blank	interval	NaN	NaN	NaN	NaN	NaN	NaN	NaN	NaN	NaN	NaN	NaN	NaN
732.6379723000005	0.4995	sub-20	1	localizer	stimulus	Stuhl	NaN	0	2.5519710000007763	NaN	True	NaN	NaN	NaN	NaN	NaN	NaN	NaN
733.1210729999998	2.552	sub-20	1	localizer	blank	interval	NaN	NaN	NaN	NaN	NaN	NaN	NaN	NaN	NaN	NaN	NaN	NaN
735.9740177999997	0.4996	sub-20	1	localizer	stimulus	Haus	NaN	0	2.4350930000000517	NaN	True	NaN	NaN	NaN	NaN	NaN	NaN	NaN
736.4571228999998	2.4351	sub-20	1	localizer	blank	interval	NaN	NaN	NaN	NaN	NaN	NaN	NaN	NaN	NaN	NaN	NaN	NaN
739.1932373000004	0.4996	sub-20	1	localizer	stimulus	Schuh	NaN	0	3.8194573999999193	NaN	True	NaN	NaN	NaN	NaN	NaN	NaN	NaN
739.6763823000006	3.8195	sub-20	1	localizer	blank	interval	NaN	NaN	NaN	NaN	NaN	NaN	NaN	NaN	NaN	NaN	NaN	NaN
746.9825102999998	1.0006	sub-20	1	sequence	cue	Haus	NaN	NaN	NaN	NaN	NaN	NaN	NaN	NaN	NaN	NaN	NaN	NaN
747.9831086999998	2.0016	sub-20	1	sequence	blank	blank	NaN	NaN	NaN	NaN	NaN	NaN	NaN	NaN	NaN	NaN	NaN	NaN
749.9847290000002	0.3003	sub-20	1	sequence	fixation	dot	NaN	NaN	NaN	NaN	NaN	NaN	NaN	NaN	NaN	NaN	NaN	NaN
750.3032444000005	0.1151	sub-20	1	sequence	stimulus	Gesicht	NaN	NaN	32.0	NaN	NaN	1.0	1.0	NaN	NaN	NaN	NaN	NaN
750.4183743999997	0.0336	sub-20	1	sequence	interval	dot	NaN	NaN	NaN	NaN	NaN	NaN	NaN	NaN	NaN	NaN	NaN	NaN
750.4519445000001	0.0998	sub-20	1	sequence	stimulus	Katze	NaN	NaN	32.0	NaN	NaN	3.0	2.0	NaN	NaN	NaN	NaN	NaN
750.5517934000004	0.0335	sub-20	1	sequence	interval	dot	NaN	NaN	NaN	NaN	NaN	NaN	NaN	NaN	NaN	NaN	NaN	NaN
750.5852863000005	0.0999	sub-20	1	sequence	stimulus	Haus	NaN	NaN	32.0	NaN	NaN	2.0	3.0	NaN	NaN	NaN	NaN	NaN
750.6851905999997	0.0335	sub-20	1	sequence	interval	dot	NaN	NaN	NaN	NaN	NaN	NaN	NaN	NaN	NaN	NaN	NaN	NaN
750.7186683000004	0.0999	sub-20	1	sequence	stimulus	Schuh	NaN	NaN	32.0	NaN	NaN	4.0	4.0	NaN	NaN	NaN	NaN	NaN
750.8185506000004	0.0335	sub-20	1	sequence	interval	dot	NaN	NaN	NaN	NaN	NaN	NaN	NaN	NaN	NaN	NaN	NaN	NaN
750.8520454000004	0.1	sub-20	1	sequence	stimulus	Stuhl	NaN	NaN	32.0	NaN	NaN	5.0	5.0	NaN	NaN	NaN	NaN	NaN
750.9520269	0.0332	sub-20	1	sequence	interval	dot	NaN	NaN	NaN	NaN	NaN	NaN	NaN	NaN	NaN	NaN	NaN	NaN
750.9852727000002	8.5385	sub-20	1	sequence	delay	dot	NaN	NaN	NaN	NaN	NaN	NaN	NaN	NaN	NaN	NaN	NaN	NaN
759.4996114	1.7275	sub-20	1	sequence	choice	choice	right	NaN	NaN	1.698625500000162	True	NaN	NaN	right	True	5.0	3.0	3.0
761.2274689000001	0.5001	sub-20	1	sequence	feedback	NaN	NaN	NaN	NaN	NaN	NaN	NaN	NaN	NaN	NaN	NaN	NaN	NaN
761.7277715000005	1.0004	sub-20	1	sequence	cue	Stuhl	NaN	NaN	NaN	NaN	NaN	NaN	NaN	NaN	NaN	NaN	NaN	NaN
762.7281587000002	2.0016	sub-20	1	sequence	blank	blank	NaN	NaN	NaN	NaN	NaN	NaN	NaN	NaN	NaN	NaN	NaN	NaN
764.7297942	0.3004	sub-20	1	sequence	fixation	dot	NaN	NaN	NaN	NaN	NaN	NaN	NaN	NaN	NaN	NaN	NaN	NaN
765.0475339	0.0992	sub-20	1	sequence	stimulus	Haus	NaN	NaN	64.0	NaN	NaN	2.0	1.0	NaN	NaN	NaN	NaN	NaN
765.1467190999997	0.0669	sub-20	1	sequence	interval	dot	NaN	NaN	NaN	NaN	NaN	NaN	NaN	NaN	NaN	NaN	NaN	NaN
765.2136170999997	0.0999	sub-20	1	sequence	stimulus	Gesicht	NaN	NaN	64.0	NaN	NaN	1.0	2.0	NaN	NaN	NaN	NaN	NaN
765.3135435999998	0.0668	sub-20	1	sequence	interval	dot	NaN	NaN	NaN	NaN	NaN	NaN	NaN	NaN	NaN	NaN	NaN	NaN
765.3803611999997	0.1	sub-20	1	sequence	stimulus	Katze	NaN	NaN	64.0	NaN	NaN	3.0	3.0	NaN	NaN	NaN	NaN	NaN
765.4803286000001	0.0669	sub-20	1	sequence	interval	dot	NaN	NaN	NaN	NaN	NaN	NaN	NaN	NaN	NaN	NaN	NaN	NaN
765.5471991999998	0.0999	sub-20	1	sequence	stimulus	Schuh	NaN	NaN	64.0	NaN	NaN	4.0	4.0	NaN	NaN	NaN	NaN	NaN
765.6471475000003	0.0669	sub-20	1	sequence	interval	dot	NaN	NaN	NaN	NaN	NaN	NaN	NaN	NaN	NaN	NaN	NaN	NaN
765.7140224999998	0.0999	sub-20	1	sequence	stimulus	Stuhl	NaN	NaN	64.0	NaN	NaN	5.0	5.0	NaN	NaN	NaN	NaN	NaN
765.8139440999998	0.0667	sub-20	1	sequence	interval	dot	NaN	NaN	NaN	NaN	NaN	NaN	NaN	NaN	NaN	NaN	NaN	NaN
765.8806643000003	8.3883	sub-20	1	sequence	delay	dot	NaN	NaN	NaN	NaN	NaN	NaN	NaN	NaN	NaN	NaN	NaN	NaN
774.2417568000005	0.88	sub-20	1	sequence	choice	choice	right	NaN	NaN	0.8496930999999677	True	NaN	NaN	right	True	4.0	5.0	5.0
775.1220513000003	0.5	sub-20	1	sequence	feedback	NaN	NaN	NaN	NaN	NaN	NaN	NaN	NaN	NaN	NaN	NaN	NaN	NaN
775.6222235999999	1.0007	sub-20	1	sequence	cue	Gesicht	NaN	NaN	NaN	NaN	NaN	NaN	NaN	NaN	NaN	NaN	NaN	NaN
776.6229156000004	2.0015	sub-20	1	sequence	blank	blank	NaN	NaN	NaN	NaN	NaN	NaN	NaN	NaN	NaN	NaN	NaN	NaN
778.6243933999999	0.3002	sub-20	1	sequence	fixation	dot	NaN	NaN	NaN	NaN	NaN	NaN	NaN	NaN	NaN	NaN	NaN	NaN
778.9421305000001	0.0992	sub-20	1	sequence	stimulus	Schuh	NaN	NaN	64.0	NaN	NaN	4.0	1.0	NaN	NaN	NaN	NaN	NaN
779.0413402999998	0.0669	sub-20	1	sequence	interval	dot	NaN	NaN	NaN	NaN	NaN	NaN	NaN	NaN	NaN	NaN	NaN	NaN
779.1081964	0.0999	sub-20	1	sequence	stimulus	Gesicht	NaN	NaN	64.0	NaN	NaN	1.0	2.0	NaN	NaN	NaN	NaN	NaN
779.2081076999998	0.067	sub-20	1	sequence	interval	dot	NaN	NaN	NaN	NaN	NaN	NaN	NaN	NaN	NaN	NaN	NaN	NaN
779.2750624000005	0.0999	sub-20	1	sequence	stimulus	Stuhl	NaN	NaN	64.0	NaN	NaN	5.0	3.0	NaN	NaN	NaN	NaN	NaN
779.3749401999999	0.0669	sub-20	1	sequence	interval	dot	NaN	NaN	NaN	NaN	NaN	NaN	NaN	NaN	NaN	NaN	NaN	NaN
779.4418040000005	0.0999	sub-20	1	sequence	stimulus	Katze	NaN	NaN	64.0	NaN	NaN	3.0	4.0	NaN	NaN	NaN	NaN	NaN
779.5417373000005	0.0669	sub-20	1	sequence	interval	dot	NaN	NaN	NaN	NaN	NaN	NaN	NaN	NaN	NaN	NaN	NaN	NaN
779.6086197	0.0999	sub-20	1	sequence	stimulus	Haus	NaN	NaN	64.0	NaN	NaN	2.0	5.0	NaN	NaN	NaN	NaN	NaN
779.7085026999998	0.0668	sub-20	1	sequence	interval	dot	NaN	NaN	NaN	NaN	NaN	NaN	NaN	NaN	NaN	NaN	NaN	NaN
779.7752679	8.3883	sub-20	1	sequence	delay	dot	NaN	NaN	NaN	NaN	NaN	NaN	NaN	NaN	NaN	NaN	NaN	NaN
788.1510549999998	2.4999	sub-20	1	sequence	choice	choice	NaN	NaN	NaN	NaN	False	NaN	NaN	left	False	2.0	5.0	2.0
790.6510899999998	0.5004	sub-20	1	sequence	feedback	NaN	NaN	NaN	NaN	NaN	NaN	NaN	NaN	NaN	NaN	NaN	NaN	NaN
791.1516108000001	1.0006	sub-20	1	sequence	cue	Stuhl	NaN	NaN	NaN	NaN	NaN	NaN	NaN	NaN	NaN	NaN	NaN	NaN
792.1522246	2.0014	sub-20	1	sequence	blank	blank	NaN	NaN	NaN	NaN	NaN	NaN	NaN	NaN	NaN	NaN	NaN	NaN
794.1536601000003	0.3003	sub-20	1	sequence	fixation	dot	NaN	NaN	NaN	NaN	NaN	NaN	NaN	NaN	NaN	NaN	NaN	NaN
794.4721058	0.1152	sub-20	1	sequence	stimulus	Schuh	NaN	NaN	512.0	NaN	NaN	4.0	1.0	NaN	NaN	NaN	NaN	NaN
794.5873521999997	0.5176	sub-20	1	sequence	interval	dot	NaN	NaN	NaN	NaN	NaN	NaN	NaN	NaN	NaN	NaN	NaN	NaN
795.1049398999999	0.0995	sub-20	1	sequence	stimulus	Katze	NaN	NaN	512.0	NaN	NaN	3.0	2.0	NaN	NaN	NaN	NaN	NaN
795.2043957999999	0.5172	sub-20	1	sequence	interval	dot	NaN	NaN	NaN	NaN	NaN	NaN	NaN	NaN	NaN	NaN	NaN	NaN
795.7216179000002	0.0999	sub-20	1	sequence	stimulus	Stuhl	NaN	NaN	512.0	NaN	NaN	5.0	3.0	NaN	NaN	NaN	NaN	NaN
795.8215531000001	0.5173	sub-20	1	sequence	interval	dot	NaN	NaN	NaN	NaN	NaN	NaN	NaN	NaN	NaN	NaN	NaN	NaN
796.3388123	0.0999	sub-20	1	sequence	stimulus	Gesicht	NaN	NaN	512.0	NaN	NaN	1.0	4.0	NaN	NaN	NaN	NaN	NaN
796.4387056	0.5173	sub-20	1	sequence	interval	dot	NaN	NaN	NaN	NaN	NaN	NaN	NaN	NaN	NaN	NaN	NaN	NaN
796.9559985999999	0.0999	sub-20	1	sequence	stimulus	Haus	NaN	NaN	512.0	NaN	NaN	2.0	5.0	NaN	NaN	NaN	NaN	NaN
797.0559346000005	0.517	sub-20	1	sequence	interval	dot	NaN	NaN	NaN	NaN	NaN	NaN	NaN	NaN	NaN	NaN	NaN	NaN
797.5729723	6.1364	sub-20	1	sequence	delay	dot	NaN	NaN	NaN	NaN	NaN	NaN	NaN	NaN	NaN	NaN	NaN	NaN
803.6987329999997	0.997	sub-20	1	sequence	choice	choice	left	NaN	NaN	0.976990800000749	True	NaN	NaN	left	True	3.0	1.0	3.0
804.6959845000006	0.4999	sub-20	1	sequence	feedback	NaN	NaN	NaN	NaN	NaN	NaN	NaN	NaN	NaN	NaN	NaN	NaN	NaN
805.1959909000002	1.0008	sub-20	1	sequence	cue	Gesicht	NaN	NaN	NaN	NaN	NaN	NaN	NaN	NaN	NaN	NaN	NaN	NaN
806.1967553999998	2.0015	sub-20	1	sequence	blank	blank	NaN	NaN	NaN	NaN	NaN	NaN	NaN	NaN	NaN	NaN	NaN	NaN
808.1982436000003	0.3003	sub-20	1	sequence	fixation	dot	NaN	NaN	NaN	NaN	NaN	NaN	NaN	NaN	NaN	NaN	NaN	NaN
808.5160547999999	0.0992	sub-20	1	sequence	stimulus	Katze	NaN	NaN	128.0	NaN	NaN	3.0	1.0	NaN	NaN	NaN	NaN	NaN
808.6152551	0.1336	sub-20	1	sequence	interval	dot	NaN	NaN	NaN	NaN	NaN	NaN	NaN	NaN	NaN	NaN	NaN	NaN
808.7488478	0.0999	sub-20	1	sequence	stimulus	Stuhl	NaN	NaN	128.0	NaN	NaN	5.0	2.0	NaN	NaN	NaN	NaN	NaN
808.8487927000001	0.1336	sub-20	1	sequence	interval	dot	NaN	NaN	NaN	NaN	NaN	NaN	NaN	NaN	NaN	NaN	NaN	NaN
808.9824083999997	0.0999	sub-20	1	sequence	stimulus	Haus	NaN	NaN	128.0	NaN	NaN	2.0	3.0	NaN	NaN	NaN	NaN	NaN
809.0822914000005	0.1337	sub-20	1	sequence	interval	dot	NaN	NaN	NaN	NaN	NaN	NaN	NaN	NaN	NaN	NaN	NaN	NaN
809.2159415000001	0.1	sub-20	1	sequence	stimulus	Gesicht	NaN	NaN	128.0	NaN	NaN	1.0	4.0	NaN	NaN	NaN	NaN	NaN
809.3159001999998	0.1336	sub-20	1	sequence	interval	dot	NaN	NaN	NaN	NaN	NaN	NaN	NaN	NaN	NaN	NaN	NaN	NaN
809.4494845000004	0.0999	sub-20	1	sequence	stimulus	Schuh	NaN	NaN	128.0	NaN	NaN	4.0	5.0	NaN	NaN	NaN	NaN	NaN
809.5493843999998	0.1335	sub-20	1	sequence	interval	dot	NaN	NaN	NaN	NaN	NaN	NaN	NaN	NaN	NaN	NaN	NaN	NaN
809.6828736000002	8.0713	sub-20	1	sequence	delay	dot	NaN	NaN	NaN	NaN	NaN	NaN	NaN	NaN	NaN	NaN	NaN	NaN
817.7384770000003	0.8684	sub-20	1	sequence	choice	choice	left	NaN	NaN	0.8362633000006099	True	NaN	NaN	left	True	4.0	5.0	4.0
818.6071416	0.5	sub-20	1	sequence	feedback	NaN	NaN	NaN	NaN	NaN	NaN	NaN	NaN	NaN	NaN	NaN	NaN	NaN
819.1073674000004	1.0007	sub-20	1	sequence	cue	Stuhl	NaN	NaN	NaN	NaN	NaN	NaN	NaN	NaN	NaN	NaN	NaN	NaN
820.1080379	2.0015	sub-20	1	sequence	blank	blank	NaN	NaN	NaN	NaN	NaN	NaN	NaN	NaN	NaN	NaN	NaN	NaN
822.1094970999998	0.3003	sub-20	1	sequence	fixation	dot	NaN	NaN	NaN	NaN	NaN	NaN	NaN	NaN	NaN	NaN	NaN	NaN
822.4274497000001	0.099	sub-20	1	sequence	stimulus	Stuhl	NaN	NaN	512.0	NaN	NaN	5.0	1.0	NaN	NaN	NaN	NaN	NaN
822.5264979999997	0.5172	sub-20	1	sequence	interval	dot	NaN	NaN	NaN	NaN	NaN	NaN	NaN	NaN	NaN	NaN	NaN	NaN
823.0437225000001	0.0999	sub-20	1	sequence	stimulus	Gesicht	NaN	NaN	512.0	NaN	NaN	1.0	2.0	NaN	NaN	NaN	NaN	NaN
823.1436602999997	0.5173	sub-20	1	sequence	interval	dot	NaN	NaN	NaN	NaN	NaN	NaN	NaN	NaN	NaN	NaN	NaN	NaN
823.6609417000004	0.0999	sub-20	1	sequence	stimulus	Haus	NaN	NaN	512.0	NaN	NaN	2.0	3.0	NaN	NaN	NaN	NaN	NaN
823.7608344000005	0.5173	sub-20	1	sequence	interval	dot	NaN	NaN	NaN	NaN	NaN	NaN	NaN	NaN	NaN	NaN	NaN	NaN
824.2781556000004	0.0998	sub-20	1	sequence	stimulus	Schuh	NaN	NaN	512.0	NaN	NaN	4.0	4.0	NaN	NaN	NaN	NaN	NaN
824.3779813000006	0.5173	sub-20	1	sequence	interval	dot	NaN	NaN	NaN	NaN	NaN	NaN	NaN	NaN	NaN	NaN	NaN	NaN
824.8952349000006	0.1	sub-20	1	sequence	stimulus	Katze	NaN	NaN	512.0	NaN	NaN	3.0	5.0	NaN	NaN	NaN	NaN	NaN
824.9952577999998	0.517	sub-20	1	sequence	interval	dot	NaN	NaN	NaN	NaN	NaN	NaN	NaN	NaN	NaN	NaN	NaN	NaN
825.5122640000004	6.1532	sub-20	1	sequence	delay	dot	NaN	NaN	NaN	NaN	NaN	NaN	NaN	NaN	NaN	NaN	NaN	NaN
831.6482019	0.9035	sub-20	1	sequence	choice	choice	right	NaN	NaN	0.8850443000001178	True	NaN	NaN	right	True	3.0	1.0	1.0
832.5519653000006	0.5	sub-20	1	sequence	feedback	NaN	NaN	NaN	NaN	NaN	NaN	NaN	NaN	NaN	NaN	NaN	NaN	NaN
833.0521997000001	1.0005	sub-20	1	sequence	cue	Katze	NaN	NaN	NaN	NaN	NaN	NaN	NaN	NaN	NaN	NaN	NaN	NaN
834.0527447999998	2.0014	sub-20	1	sequence	blank	blank	NaN	NaN	NaN	NaN	NaN	NaN	NaN	NaN	NaN	NaN	NaN	NaN
836.0541485999997	0.3003	sub-20	1	sequence	fixation	dot	NaN	NaN	NaN	NaN	NaN	NaN	NaN	NaN	NaN	NaN	NaN	NaN
836.3732685	0.1145	sub-20	1	sequence	stimulus	Stuhl	NaN	NaN	128.0	NaN	NaN	5.0	1.0	NaN	NaN	NaN	NaN	NaN
836.4878162999998	0.1336	sub-20	1	sequence	interval	dot	NaN	NaN	NaN	NaN	NaN	NaN	NaN	NaN	NaN	NaN	NaN	NaN
836.6214107999999	0.0999	sub-20	1	sequence	stimulus	Gesicht	NaN	NaN	128.0	NaN	NaN	1.0	2.0	NaN	NaN	NaN	NaN	NaN
836.7213406000005	0.1336	sub-20	1	sequence	interval	dot	NaN	NaN	NaN	NaN	NaN	NaN	NaN	NaN	NaN	NaN	NaN	NaN
836.8549239999998	0.0999	sub-20	1	sequence	stimulus	Schuh	NaN	NaN	128.0	NaN	NaN	4.0	3.0	NaN	NaN	NaN	NaN	NaN
836.9548390000004	0.1336	sub-20	1	sequence	interval	dot	NaN	NaN	NaN	NaN	NaN	NaN	NaN	NaN	NaN	NaN	NaN	NaN
837.0884486	0.0999	sub-20	1	sequence	stimulus	Katze	NaN	NaN	128.0	NaN	NaN	3.0	4.0	NaN	NaN	NaN	NaN	NaN
837.1883675000004	0.1336	sub-20	1	sequence	interval	dot	NaN	NaN	NaN	NaN	NaN	NaN	NaN	NaN	NaN	NaN	NaN	NaN
837.3219912	0.0999	sub-20	1	sequence	stimulus	Haus	NaN	NaN	128.0	NaN	NaN	2.0	5.0	NaN	NaN	NaN	NaN	NaN
837.4219004000001	0.1334	sub-20	1	sequence	interval	dot	NaN	NaN	NaN	NaN	NaN	NaN	NaN	NaN	NaN	NaN	NaN	NaN
837.5553421999998	8.0715	sub-20	1	sequence	delay	dot	NaN	NaN	NaN	NaN	NaN	NaN	NaN	NaN	NaN	NaN	NaN	NaN
845.6098279000003	0.9197	sub-20	1	sequence	choice	choice	right	NaN	NaN	0.8915725000006205	True	NaN	NaN	right	True	3.0	4.0	4.0
846.5297384	0.5001	sub-20	1	sequence	feedback	NaN	NaN	NaN	NaN	NaN	NaN	NaN	NaN	NaN	NaN	NaN	NaN	NaN
847.0300582000004	1.0005	sub-20	1	sequence	cue	Stuhl	NaN	NaN	NaN	NaN	NaN	NaN	NaN	NaN	NaN	NaN	NaN	NaN
848.0305459000006	2.0015	sub-20	1	sequence	blank	blank	NaN	NaN	NaN	NaN	NaN	NaN	NaN	NaN	NaN	NaN	NaN	NaN
850.0320839999999	0.3004	sub-20	1	sequence	fixation	dot	NaN	NaN	NaN	NaN	NaN	NaN	NaN	NaN	NaN	NaN	NaN	NaN
850.3498867000003	0.0992	sub-20	1	sequence	stimulus	Schuh	NaN	NaN	32.0	NaN	NaN	4.0	1.0	NaN	NaN	NaN	NaN	NaN
850.4491052999997	0.0335	sub-20	1	sequence	interval	dot	NaN	NaN	NaN	NaN	NaN	NaN	NaN	NaN	NaN	NaN	NaN	NaN
850.4826386	0.0999	sub-20	1	sequence	stimulus	Haus	NaN	NaN	32.0	NaN	NaN	2.0	2.0	NaN	NaN	NaN	NaN	NaN
850.5825547	0.0335	sub-20	1	sequence	interval	dot	NaN	NaN	NaN	NaN	NaN	NaN	NaN	NaN	NaN	NaN	NaN	NaN
850.6160554000003	0.0999	sub-20	1	sequence	stimulus	Gesicht	NaN	NaN	32.0	NaN	NaN	1.0	3.0	NaN	NaN	NaN	NaN	NaN
850.7159809999998	0.0335	sub-20	1	sequence	interval	dot	NaN	NaN	NaN	NaN	NaN	NaN	NaN	NaN	NaN	NaN	NaN	NaN
850.7494914000004	0.0999	sub-20	1	sequence	stimulus	Katze	NaN	NaN	32.0	NaN	NaN	3.0	4.0	NaN	NaN	NaN	NaN	NaN
850.8494264000005	0.0335	sub-20	1	sequence	interval	dot	NaN	NaN	NaN	NaN	NaN	NaN	NaN	NaN	NaN	NaN	NaN	NaN
850.8829572	0.0999	sub-20	1	sequence	stimulus	Stuhl	NaN	NaN	32.0	NaN	NaN	5.0	5.0	NaN	NaN	NaN	NaN	NaN
850.9828655000006	0.0334	sub-20	1	sequence	interval	dot	NaN	NaN	NaN	NaN	NaN	NaN	NaN	NaN	NaN	NaN	NaN	NaN
851.0162479000005	8.5551	sub-20	1	sequence	delay	dot	NaN	NaN	NaN	NaN	NaN	NaN	NaN	NaN	NaN	NaN	NaN	NaN
859.5455347000002	0.9786	sub-20	1	sequence	choice	choice	left	NaN	NaN	0.939098599999852	True	NaN	NaN	left	True	5.0	3.0	5.0
860.5244386999998	0.5	sub-20	1	sequence	feedback	NaN	NaN	NaN	NaN	NaN	NaN	NaN	NaN	NaN	NaN	NaN	NaN	NaN
861.0249381999997	57.8297	sub-20	1	other	break	break	NaN	NaN	NaN	NaN	NaN	NaN	NaN	NaN	NaN	NaN	NaN	NaN
922.6750576999998	0.4996	sub-20	1	localizer	stimulus	Schuh	NaN	0	2.0850518999995984	NaN	True	NaN	NaN	NaN	NaN	NaN	NaN	NaN
923.1746144000005	2.0851	sub-20	1	localizer	blank	interval	NaN	NaN	NaN	NaN	NaN	NaN	NaN	NaN	NaN	NaN	NaN	NaN
925.5607477999996	0.4995	sub-20	1	localizer	stimulus	Schuh	NaN	0	2.5852907000008827	NaN	True	NaN	NaN	NaN	NaN	NaN	NaN	NaN
926.0437460999996	2.5853	sub-20	1	localizer	blank	interval	NaN	NaN	NaN	NaN	NaN	NaN	NaN	NaN	NaN	NaN	NaN	NaN
928.9301268000004	0.4995	sub-20	1	localizer	stimulus	Gesicht	NaN	0	1.2676169999994045	NaN	True	NaN	NaN	NaN	NaN	NaN	NaN	NaN
929.4131497000004	1.2676	sub-20	1	localizer	blank	interval	NaN	NaN	NaN	NaN	NaN	NaN	NaN	NaN	NaN	NaN	NaN	NaN
930.9817544000002	0.4996	sub-20	1	localizer	stimulus	Gesicht	NaN	180	1.9180489000000307	0.6646771999994598	True	NaN	NaN	NaN	NaN	NaN	NaN	NaN
931.4648105	1.918	sub-20	1	localizer	blank	interval	NaN	NaN	NaN	NaN	NaN	NaN	NaN	NaN	NaN	NaN	NaN	NaN
933.6839821999996	0.4995	sub-20	1	localizer	stimulus	Schuh	NaN	0	3.3694221000004063	NaN	True	NaN	NaN	NaN	NaN	NaN	NaN	NaN
934.1669877	3.3694	sub-20	1	localizer	blank	interval	NaN	NaN	NaN	NaN	NaN	NaN	NaN	NaN	NaN	NaN	NaN	NaN
937.8374917000006	0.4996	sub-20	1	localizer	stimulus	Stuhl	NaN	0	2.985406199999602	NaN	True	NaN	NaN	NaN	NaN	NaN	NaN	NaN
938.3205300000004	2.9854	sub-20	1	localizer	blank	interval	NaN	NaN	NaN	NaN	NaN	NaN	NaN	NaN	NaN	NaN	NaN	NaN
941.6070990000004	0.4995	sub-20	1	localizer	stimulus	Haus	NaN	0	2.4685159000001704	NaN	True	NaN	NaN	NaN	NaN	NaN	NaN	NaN
942.0900643999998	2.4685	sub-20	1	localizer	blank	interval	NaN	NaN	NaN	NaN	NaN	NaN	NaN	NaN	NaN	NaN	NaN	NaN
944.8596905999998	0.4995	sub-20	1	localizer	stimulus	Haus	NaN	180	3.652780699999994	0.5947167000003901	True	NaN	NaN	NaN	NaN	NaN	NaN	NaN
945.3427088000004	3.6528	sub-20	1	localizer	blank	interval	NaN	NaN	NaN	NaN	NaN	NaN	NaN	NaN	NaN	NaN	NaN	NaN
949.2966043	0.4995	sub-20	1	localizer	stimulus	Katze	NaN	0	2.9355256999997437	NaN	True	NaN	NaN	NaN	NaN	NaN	NaN	NaN
949.7796696	2.9355	sub-20	1	localizer	blank	interval	NaN	NaN	NaN	NaN	NaN	NaN	NaN	NaN	NaN	NaN	NaN	NaN
953.0163941000004	0.4995	sub-20	1	localizer	stimulus	Gesicht	NaN	0	3.519392299999822	NaN	True	NaN	NaN	NaN	NaN	NaN	NaN	NaN
953.4994249000006	3.5194	sub-20	1	localizer	blank	interval	NaN	NaN	NaN	NaN	NaN	NaN	NaN	NaN	NaN	NaN	NaN	NaN
957.3198003000002	0.4996	sub-20	1	localizer	stimulus	Katze	NaN	0	2.451873999999407	NaN	True	NaN	NaN	NaN	NaN	NaN	NaN	NaN
957.8028690000006	2.4519	sub-20	1	localizer	blank	interval	NaN	NaN	NaN	NaN	NaN	NaN	NaN	NaN	NaN	NaN	NaN	NaN
960.5557285	0.4995	sub-20	1	localizer	stimulus	Katze	NaN	0	3.169062599999961	NaN	True	NaN	NaN	NaN	NaN	NaN	NaN	NaN
961.0388069000004	3.1691	sub-20	1	localizer	blank	interval	NaN	NaN	NaN	NaN	NaN	NaN	NaN	NaN	NaN	NaN	NaN	NaN
964.5089380000004	0.4995	sub-20	1	localizer	stimulus	Haus	NaN	0	2.1681761999998344	NaN	True	NaN	NaN	NaN	NaN	NaN	NaN	NaN
964.9920255000002	2.1682	sub-20	1	localizer	blank	interval	NaN	NaN	NaN	NaN	NaN	NaN	NaN	NaN	NaN	NaN	NaN	NaN
967.4612848000002	0.4995	sub-20	1	localizer	stimulus	Stuhl	NaN	0	1.8513413000000583	NaN	True	NaN	NaN	NaN	NaN	NaN	NaN	NaN
967.9443297000004	1.8513	sub-20	1	localizer	blank	interval	NaN	NaN	NaN	NaN	NaN	NaN	NaN	NaN	NaN	NaN	NaN	NaN
970.0967498000005	0.4996	sub-20	1	localizer	stimulus	Katze	NaN	0	2.6687216999997645	NaN	True	NaN	NaN	NaN	NaN	NaN	NaN	NaN
970.5797888000002	2.6687	sub-20	1	localizer	blank	interval	NaN	NaN	NaN	NaN	NaN	NaN	NaN	NaN	NaN	NaN	NaN	NaN
973.5495489	0.4995	sub-20	1	localizer	stimulus	Stuhl	NaN	180	2.818653299999937	0.6407574999993813	True	NaN	NaN	NaN	NaN	NaN	NaN	NaN
974.0327062	2.8187	sub-20	1	localizer	blank	interval	NaN	NaN	NaN	NaN	NaN	NaN	NaN	NaN	NaN	NaN	NaN	NaN
977.1525791	0.4996	sub-20	1	localizer	stimulus	Stuhl	NaN	0	2.7688164999998435	NaN	True	NaN	NaN	NaN	NaN	NaN	NaN	NaN
977.6357027999998	2.7688	sub-20	1	localizer	blank	interval	NaN	NaN	NaN	NaN	NaN	NaN	NaN	NaN	NaN	NaN	NaN	NaN
980.7055654	0.4995	sub-20	1	localizer	stimulus	Gesicht	NaN	0	3.0689533000004303	NaN	True	NaN	NaN	NaN	NaN	NaN	NaN	NaN
981.1884882999998	3.069	sub-20	1	localizer	blank	interval	NaN	NaN	NaN	NaN	NaN	NaN	NaN	NaN	NaN	NaN	NaN	NaN
984.5584900999996	0.4995	sub-20	1	localizer	stimulus	Haus	NaN	0	3.0356309999997393	NaN	True	NaN	NaN	NaN	NaN	NaN	NaN	NaN
985.0415157000002	3.0356	sub-20	1	localizer	blank	interval	NaN	NaN	NaN	NaN	NaN	NaN	NaN	NaN	NaN	NaN	NaN	NaN
988.3782511000004	0.4995	sub-20	1	localizer	stimulus	Gesicht	NaN	0	2.8187526999989814	NaN	True	NaN	NaN	NaN	NaN	NaN	NaN	NaN
988.8612769000006	2.8188	sub-20	1	localizer	blank	interval	NaN	NaN	NaN	NaN	NaN	NaN	NaN	NaN	NaN	NaN	NaN	NaN
991.9811689000004	0.4995	sub-20	1	localizer	stimulus	Stuhl	NaN	0	2.385162799999989	NaN	True	NaN	NaN	NaN	NaN	NaN	NaN	NaN
992.4641613	2.3852	sub-20	1	localizer	blank	interval	NaN	NaN	NaN	NaN	NaN	NaN	NaN	NaN	NaN	NaN	NaN	NaN
995.1503997000004	0.4995	sub-20	1	localizer	stimulus	Schuh	NaN	180	2.4185869000003777	0.5759734999992361	True	NaN	NaN	NaN	NaN	NaN	NaN	NaN
995.633365	2.4186	sub-20	1	localizer	blank	interval	NaN	NaN	NaN	NaN	NaN	NaN	NaN	NaN	NaN	NaN	NaN	NaN
998.3531722000002	0.4995	sub-20	1	localizer	stimulus	Haus	NaN	0	2.2016479000004665	NaN	True	NaN	NaN	NaN	NaN	NaN	NaN	NaN
998.8361626	2.2016	sub-20	1	localizer	blank	interval	NaN	NaN	NaN	NaN	NaN	NaN	NaN	NaN	NaN	NaN	NaN	NaN
1001.3389283	0.4996	sub-20	1	localizer	stimulus	Schuh	NaN	0	2.534995600000002	NaN	True	NaN	NaN	NaN	NaN	NaN	NaN	NaN
1001.8220001000004	2.535	sub-20	1	localizer	blank	interval	NaN	NaN	NaN	NaN	NaN	NaN	NaN	NaN	NaN	NaN	NaN	NaN
1004.6580571	0.4995	sub-20	1	localizer	stimulus	Katze	NaN	180	1.5177413999999771	0.6523440999999366	True	NaN	NaN	NaN	NaN	NaN	NaN	NaN
1005.1410576000004	1.5177	sub-20	1	localizer	blank	interval	NaN	NaN	NaN	NaN	NaN	NaN	NaN	NaN	NaN	NaN	NaN	NaN
1010.1452851	1.0005	sub-20	1	sequence	cue	Gesicht	NaN	NaN	NaN	NaN	NaN	NaN	NaN	NaN	NaN	NaN	NaN	NaN
1011.1458403	2.0016	sub-20	1	sequence	blank	blank	NaN	NaN	NaN	NaN	NaN	NaN	NaN	NaN	NaN	NaN	NaN	NaN
1013.1474573	0.3005	sub-20	1	sequence	fixation	dot	NaN	NaN	NaN	NaN	NaN	NaN	NaN	NaN	NaN	NaN	NaN	NaN
1013.4651964	0.0992	sub-20	1	sequence	stimulus	Schuh	NaN	NaN	512.0	NaN	NaN	4.0	1.0	NaN	NaN	NaN	NaN	NaN
1013.5644085999998	0.5172	sub-20	1	sequence	interval	dot	NaN	NaN	NaN	NaN	NaN	NaN	NaN	NaN	NaN	NaN	NaN	NaN
1014.0816325	0.0999	sub-20	1	sequence	stimulus	Katze	NaN	NaN	512.0	NaN	NaN	3.0	2.0	NaN	NaN	NaN	NaN	NaN
1014.1815757999998	0.5172	sub-20	1	sequence	interval	dot	NaN	NaN	NaN	NaN	NaN	NaN	NaN	NaN	NaN	NaN	NaN	NaN
1014.6987888	0.0999	sub-20	1	sequence	stimulus	Stuhl	NaN	NaN	512.0	NaN	NaN	5.0	3.0	NaN	NaN	NaN	NaN	NaN
1014.7987373	0.5173	sub-20	1	sequence	interval	dot	NaN	NaN	NaN	NaN	NaN	NaN	NaN	NaN	NaN	NaN	NaN	NaN
1015.316005	0.0999	sub-20	1	sequence	stimulus	Gesicht	NaN	NaN	512.0	NaN	NaN	1.0	4.0	NaN	NaN	NaN	NaN	NaN
1015.4159242	0.5173	sub-20	1	sequence	interval	dot	NaN	NaN	NaN	NaN	NaN	NaN	NaN	NaN	NaN	NaN	NaN	NaN
1015.9331758000004	0.0999	sub-20	1	sequence	stimulus	Haus	NaN	NaN	512.0	NaN	NaN	2.0	5.0	NaN	NaN	NaN	NaN	NaN
1016.0330780999998	0.5171	sub-20	1	sequence	interval	dot	NaN	NaN	NaN	NaN	NaN	NaN	NaN	NaN	NaN	NaN	NaN	NaN
1016.5501577	6.1534	sub-20	1	sequence	delay	dot	NaN	NaN	NaN	NaN	NaN	NaN	NaN	NaN	NaN	NaN	NaN	NaN
1022.6921001000004	0.9473	sub-20	1	sequence	choice	choice	right	NaN	NaN	0.9349131999997552	True	NaN	NaN	right	True	5.0	4.0	4.0
1023.6397989000002	0.4999	sub-20	1	sequence	feedback	NaN	NaN	NaN	NaN	NaN	NaN	NaN	NaN	NaN	NaN	NaN	NaN	NaN
1024.1399647000003	1.0007	sub-20	1	sequence	cue	Haus	NaN	NaN	NaN	NaN	NaN	NaN	NaN	NaN	NaN	NaN	NaN	NaN
1025.1406323000006	2.0015	sub-20	1	sequence	blank	blank	NaN	NaN	NaN	NaN	NaN	NaN	NaN	NaN	NaN	NaN	NaN	NaN
1027.1421284000005	0.3002	sub-20	1	sequence	fixation	dot	NaN	NaN	NaN	NaN	NaN	NaN	NaN	NaN	NaN	NaN	NaN	NaN
1027.4606737	0.1151	sub-20	1	sequence	stimulus	Stuhl	NaN	NaN	512.0	NaN	NaN	5.0	1.0	NaN	NaN	NaN	NaN	NaN
1027.5757483000002	0.5173	sub-20	1	sequence	interval	dot	NaN	NaN	NaN	NaN	NaN	NaN	NaN	NaN	NaN	NaN	NaN	NaN
1028.0930039999998	0.0999	sub-20	1	sequence	stimulus	Gesicht	NaN	NaN	512.0	NaN	NaN	1.0	2.0	NaN	NaN	NaN	NaN	NaN
1028.1929322	0.5173	sub-20	1	sequence	interval	dot	NaN	NaN	NaN	NaN	NaN	NaN	NaN	NaN	NaN	NaN	NaN	NaN
1028.7101912000005	0.0999	sub-20	1	sequence	stimulus	Haus	NaN	NaN	512.0	NaN	NaN	2.0	3.0	NaN	NaN	NaN	NaN	NaN
1028.8100924000005	0.5173	sub-20	1	sequence	interval	dot	NaN	NaN	NaN	NaN	NaN	NaN	NaN	NaN	NaN	NaN	NaN	NaN
1029.3273874	0.1	sub-20	1	sequence	stimulus	Schuh	NaN	NaN	512.0	NaN	NaN	4.0	4.0	NaN	NaN	NaN	NaN	NaN
1029.4273462000006	0.5172	sub-20	1	sequence	interval	dot	NaN	NaN	NaN	NaN	NaN	NaN	NaN	NaN	NaN	NaN	NaN	NaN
1029.9445751999997	0.0999	sub-20	1	sequence	stimulus	Katze	NaN	NaN	512.0	NaN	NaN	3.0	5.0	NaN	NaN	NaN	NaN	NaN
1030.0444305000003	0.517	sub-20	1	sequence	interval	dot	NaN	NaN	NaN	NaN	NaN	NaN	NaN	NaN	NaN	NaN	NaN	NaN
1030.5614760000003	6.1697	sub-20	1	sequence	delay	dot	NaN	NaN	NaN	NaN	NaN	NaN	NaN	NaN	NaN	NaN	NaN	NaN
1036.7059147000004	0.8448	sub-20	1	sequence	choice	choice	left	NaN	NaN	0.811183799999526	True	NaN	NaN	left	True	3.0	2.0	3.0
1037.5509674	0.5	sub-20	1	sequence	feedback	NaN	NaN	NaN	NaN	NaN	NaN	NaN	NaN	NaN	NaN	NaN	NaN	NaN
1038.0511962000005	1.0005	sub-20	1	sequence	cue	Katze	NaN	NaN	NaN	NaN	NaN	NaN	NaN	NaN	NaN	NaN	NaN	NaN
1039.0517211	2.0019	sub-20	1	sequence	blank	blank	NaN	NaN	NaN	NaN	NaN	NaN	NaN	NaN	NaN	NaN	NaN	NaN
1041.0536176	0.3003	sub-20	1	sequence	fixation	dot	NaN	NaN	NaN	NaN	NaN	NaN	NaN	NaN	NaN	NaN	NaN	NaN
1041.3719899000002	0.1152	sub-20	1	sequence	stimulus	Haus	NaN	NaN	64.0	NaN	NaN	2.0	1.0	NaN	NaN	NaN	NaN	NaN
1041.4871574000003	0.0668	sub-20	1	sequence	interval	dot	NaN	NaN	NaN	NaN	NaN	NaN	NaN	NaN	NaN	NaN	NaN	NaN
1041.5539943	0.1	sub-20	1	sequence	stimulus	Gesicht	NaN	NaN	64.0	NaN	NaN	1.0	2.0	NaN	NaN	NaN	NaN	NaN
1041.6539802000002	0.0668	sub-20	1	sequence	interval	dot	NaN	NaN	NaN	NaN	NaN	NaN	NaN	NaN	NaN	NaN	NaN	NaN
1041.7207678999998	0.0979	sub-20	1	sequence	stimulus	Katze	NaN	NaN	64.0	NaN	NaN	3.0	3.0	NaN	NaN	NaN	NaN	NaN
1041.8186558000002	0.0689	sub-20	1	sequence	interval	dot	NaN	NaN	NaN	NaN	NaN	NaN	NaN	NaN	NaN	NaN	NaN	NaN
1041.8876015	0.1167	sub-20	1	sequence	stimulus	Schuh	NaN	NaN	64.0	NaN	NaN	4.0	4.0	NaN	NaN	NaN	NaN	NaN
1042.0042607	0.0648	sub-20	1	sequence	interval	dot	NaN	NaN	NaN	NaN	NaN	NaN	NaN	NaN	NaN	NaN	NaN	NaN
1042.069022	0.0999	sub-20	1	sequence	stimulus	Stuhl	NaN	NaN	64.0	NaN	NaN	5.0	5.0	NaN	NaN	NaN	NaN	NaN
1042.1689515000005	0.0688	sub-20	1	sequence	interval	dot	NaN	NaN	NaN	NaN	NaN	NaN	NaN	NaN	NaN	NaN	NaN	NaN
1042.2377403000005	8.4048	sub-20	1	sequence	delay	dot	NaN	NaN	NaN	NaN	NaN	NaN	NaN	NaN	NaN	NaN	NaN	NaN
1050.6156633000005	0.8296	sub-20	1	sequence	choice	choice	right	NaN	NaN	0.7957984999993641	True	NaN	NaN	right	True	4.0	3.0	3.0
1051.4455131999998	0.5001	sub-20	1	sequence	feedback	NaN	NaN	NaN	NaN	NaN	NaN	NaN	NaN	NaN	NaN	NaN	NaN	NaN
1051.9458422000002	1.0005	sub-20	1	sequence	cue	Gesicht	NaN	NaN	NaN	NaN	NaN	NaN	NaN	NaN	NaN	NaN	NaN	NaN
1052.9463197	2.0016	sub-20	1	sequence	blank	blank	NaN	NaN	NaN	NaN	NaN	NaN	NaN	NaN	NaN	NaN	NaN	NaN
1054.9479177999997	0.3002	sub-20	1	sequence	fixation	dot	NaN	NaN	NaN	NaN	NaN	NaN	NaN	NaN	NaN	NaN	NaN	NaN
1055.2656573	0.0993	sub-20	1	sequence	stimulus	Gesicht	NaN	NaN	32.0	NaN	NaN	1.0	1.0	NaN	NaN	NaN	NaN	NaN
1055.3649136999998	0.0335	sub-20	1	sequence	interval	dot	NaN	NaN	NaN	NaN	NaN	NaN	NaN	NaN	NaN	NaN	NaN	NaN
1055.3984547000005	0.0999	sub-20	1	sequence	stimulus	Katze	NaN	NaN	32.0	NaN	NaN	3.0	2.0	NaN	NaN	NaN	NaN	NaN
1055.4983924000005	0.0335	sub-20	1	sequence	interval	dot	NaN	NaN	NaN	NaN	NaN	NaN	NaN	NaN	NaN	NaN	NaN	NaN
1055.5318973	0.0999	sub-20	1	sequence	stimulus	Haus	NaN	NaN	32.0	NaN	NaN	2.0	3.0	NaN	NaN	NaN	NaN	NaN
1055.6318182	0.0335	sub-20	1	sequence	interval	dot	NaN	NaN	NaN	NaN	NaN	NaN	NaN	NaN	NaN	NaN	NaN	NaN
1055.6653005000005	0.0999	sub-20	1	sequence	stimulus	Schuh	NaN	NaN	32.0	NaN	NaN	4.0	4.0	NaN	NaN	NaN	NaN	NaN
1055.7652183000005	0.0335	sub-20	1	sequence	interval	dot	NaN	NaN	NaN	NaN	NaN	NaN	NaN	NaN	NaN	NaN	NaN	NaN
1055.7987555000004	0.0999	sub-20	1	sequence	stimulus	Stuhl	NaN	NaN	32.0	NaN	NaN	5.0	5.0	NaN	NaN	NaN	NaN	NaN
1055.8986949000005	0.0334	sub-20	1	sequence	interval	dot	NaN	NaN	NaN	NaN	NaN	NaN	NaN	NaN	NaN	NaN	NaN	NaN
1055.9320486	8.5385	sub-20	1	sequence	delay	dot	NaN	NaN	NaN	NaN	NaN	NaN	NaN	NaN	NaN	NaN	NaN	NaN
1064.4479533	0.7253	sub-20	1	sequence	choice	choice	right	NaN	NaN	0.6957939000003535	True	NaN	NaN	right	True	4.0	1.0	1.0
1065.1735021	0.4998	sub-20	1	sequence	feedback	NaN	NaN	NaN	NaN	NaN	NaN	NaN	NaN	NaN	NaN	NaN	NaN	NaN
1065.6734313000002	1.0006	sub-20	1	sequence	cue	Gesicht	NaN	NaN	NaN	NaN	NaN	NaN	NaN	NaN	NaN	NaN	NaN	NaN
1066.6740722999998	2.0016	sub-20	1	sequence	blank	blank	NaN	NaN	NaN	NaN	NaN	NaN	NaN	NaN	NaN	NaN	NaN	NaN
1068.6756861	0.3002	sub-20	1	sequence	fixation	dot	NaN	NaN	NaN	NaN	NaN	NaN	NaN	NaN	NaN	NaN	NaN	NaN
1068.9953308	0.1141	sub-20	1	sequence	stimulus	Katze	NaN	NaN	128.0	NaN	NaN	3.0	1.0	NaN	NaN	NaN	NaN	NaN
1069.1093879000005	0.1336	sub-20	1	sequence	interval	dot	NaN	NaN	NaN	NaN	NaN	NaN	NaN	NaN	NaN	NaN	NaN	NaN
1069.2429544	0.0999	sub-20	1	sequence	stimulus	Stuhl	NaN	NaN	128.0	NaN	NaN	5.0	2.0	NaN	NaN	NaN	NaN	NaN
1069.3428680000002	0.1337	sub-20	1	sequence	interval	dot	NaN	NaN	NaN	NaN	NaN	NaN	NaN	NaN	NaN	NaN	NaN	NaN
1069.4765262000003	0.0999	sub-20	1	sequence	stimulus	Haus	NaN	NaN	128.0	NaN	NaN	2.0	3.0	NaN	NaN	NaN	NaN	NaN
1069.5764214000003	0.1336	sub-20	1	sequence	interval	dot	NaN	NaN	NaN	NaN	NaN	NaN	NaN	NaN	NaN	NaN	NaN	NaN
1069.7100022	0.0999	sub-20	1	sequence	stimulus	Gesicht	NaN	NaN	128.0	NaN	NaN	1.0	4.0	NaN	NaN	NaN	NaN	NaN
1069.8099408000005	0.1336	sub-20	1	sequence	interval	dot	NaN	NaN	NaN	NaN	NaN	NaN	NaN	NaN	NaN	NaN	NaN	NaN
1069.9435289999997	0.0999	sub-20	1	sequence	stimulus	Schuh	NaN	NaN	128.0	NaN	NaN	4.0	5.0	NaN	NaN	NaN	NaN	NaN
1070.0434436	0.1334	sub-20	1	sequence	interval	dot	NaN	NaN	NaN	NaN	NaN	NaN	NaN	NaN	NaN	NaN	NaN	NaN
1070.1768634000005	8.0714	sub-20	1	sequence	delay	dot	NaN	NaN	NaN	NaN	NaN	NaN	NaN	NaN	NaN	NaN	NaN	NaN
1078.2272065000002	0.9238	sub-20	1	sequence	choice	choice	left	NaN	NaN	0.8860877999995864	True	NaN	NaN	left	True	4.0	5.0	4.0
1079.1511038000003	0.5001	sub-20	1	sequence	feedback	NaN	NaN	NaN	NaN	NaN	NaN	NaN	NaN	NaN	NaN	NaN	NaN	NaN
1079.6513855999997	1.0007	sub-20	1	sequence	cue	Katze	NaN	NaN	NaN	NaN	NaN	NaN	NaN	NaN	NaN	NaN	NaN	NaN
1080.6520637	2.0018	sub-20	1	sequence	blank	blank	NaN	NaN	NaN	NaN	NaN	NaN	NaN	NaN	NaN	NaN	NaN	NaN
1082.6538444000005	0.3003	sub-20	1	sequence	fixation	dot	NaN	NaN	NaN	NaN	NaN	NaN	NaN	NaN	NaN	NaN	NaN	NaN
1082.9722268	0.1153	sub-20	1	sequence	stimulus	Stuhl	NaN	NaN	128.0	NaN	NaN	5.0	1.0	NaN	NaN	NaN	NaN	NaN
1083.0875416000003	0.1336	sub-20	1	sequence	interval	dot	NaN	NaN	NaN	NaN	NaN	NaN	NaN	NaN	NaN	NaN	NaN	NaN
1083.2211001	0.0999	sub-20	1	sequence	stimulus	Gesicht	NaN	NaN	128.0	NaN	NaN	1.0	2.0	NaN	NaN	NaN	NaN	NaN
1083.3210456000002	0.1335	sub-20	1	sequence	interval	dot	NaN	NaN	NaN	NaN	NaN	NaN	NaN	NaN	NaN	NaN	NaN	NaN
1083.4545836000002	0.0999	sub-20	1	sequence	stimulus	Schuh	NaN	NaN	128.0	NaN	NaN	4.0	3.0	NaN	NaN	NaN	NaN	NaN
1083.5545335000002	0.1336	sub-20	1	sequence	interval	dot	NaN	NaN	NaN	NaN	NaN	NaN	NaN	NaN	NaN	NaN	NaN	NaN
1083.6880905000005	0.1167	sub-20	1	sequence	stimulus	Katze	NaN	NaN	128.0	NaN	NaN	3.0	4.0	NaN	NaN	NaN	NaN	NaN
1083.8047593000006	0.1334	sub-20	1	sequence	interval	dot	NaN	NaN	NaN	NaN	NaN	NaN	NaN	NaN	NaN	NaN	NaN	NaN
1083.9381976999998	0.1167	sub-20	1	sequence	stimulus	Haus	NaN	NaN	128.0	NaN	NaN	2.0	5.0	NaN	NaN	NaN	NaN	NaN
1084.0549439	0.1334	sub-20	1	sequence	interval	dot	NaN	NaN	NaN	NaN	NaN	NaN	NaN	NaN	NaN	NaN	NaN	NaN
1084.18835	8.0712	sub-20	1	sequence	delay	dot	NaN	NaN	NaN	NaN	NaN	NaN	NaN	NaN	NaN	NaN	NaN	NaN
1092.2407293	0.7216	sub-20	1	sequence	choice	choice	left	NaN	NaN	0.6908374000004187	True	NaN	NaN	left	True	4.0	3.0	4.0
1092.9625741000004	0.4999	sub-20	1	sequence	feedback	NaN	NaN	NaN	NaN	NaN	NaN	NaN	NaN	NaN	NaN	NaN	NaN	NaN
1093.4626818000002	1.0005	sub-20	1	sequence	cue	Stuhl	NaN	NaN	NaN	NaN	NaN	NaN	NaN	NaN	NaN	NaN	NaN	NaN
1094.4632177999997	2.0016	sub-20	1	sequence	blank	blank	NaN	NaN	NaN	NaN	NaN	NaN	NaN	NaN	NaN	NaN	NaN	NaN
1096.4648542	0.3003	sub-20	1	sequence	fixation	dot	NaN	NaN	NaN	NaN	NaN	NaN	NaN	NaN	NaN	NaN	NaN	NaN
1096.7826179	0.0993	sub-20	1	sequence	stimulus	Schuh	NaN	NaN	32.0	NaN	NaN	4.0	1.0	NaN	NaN	NaN	NaN	NaN
1096.8819178999995	0.0335	sub-20	1	sequence	interval	dot	NaN	NaN	NaN	NaN	NaN	NaN	NaN	NaN	NaN	NaN	NaN	NaN
1096.9153745	0.0999	sub-20	1	sequence	stimulus	Haus	NaN	NaN	32.0	NaN	NaN	2.0	2.0	NaN	NaN	NaN	NaN	NaN
1097.0152783999995	0.0335	sub-20	1	sequence	interval	dot	NaN	NaN	NaN	NaN	NaN	NaN	NaN	NaN	NaN	NaN	NaN	NaN
1097.0487754	0.0999	sub-20	1	sequence	stimulus	Gesicht	NaN	NaN	32.0	NaN	NaN	1.0	3.0	NaN	NaN	NaN	NaN	NaN
1097.1487085000003	0.0335	sub-20	1	sequence	interval	dot	NaN	NaN	NaN	NaN	NaN	NaN	NaN	NaN	NaN	NaN	NaN	NaN
1097.1822475000004	0.0999	sub-20	1	sequence	stimulus	Katze	NaN	NaN	32.0	NaN	NaN	3.0	4.0	NaN	NaN	NaN	NaN	NaN
1097.2821583999998	0.0335	sub-20	1	sequence	interval	dot	NaN	NaN	NaN	NaN	NaN	NaN	NaN	NaN	NaN	NaN	NaN	NaN
1097.3156654999998	0.1	sub-20	1	sequence	stimulus	Stuhl	NaN	NaN	32.0	NaN	NaN	5.0	5.0	NaN	NaN	NaN	NaN	NaN
1097.4156195	0.0334	sub-20	1	sequence	interval	dot	NaN	NaN	NaN	NaN	NaN	NaN	NaN	NaN	NaN	NaN	NaN	NaN
1097.4489747000002	8.5386	sub-20	1	sequence	delay	dot	NaN	NaN	NaN	NaN	NaN	NaN	NaN	NaN	NaN	NaN	NaN	NaN
1105.9683535999998	0.7385	sub-20	1	sequence	choice	choice	right	NaN	NaN	0.7069585999997798	True	NaN	NaN	right	True	3.0	5.0	5.0
1106.7071052000006	0.5	sub-20	1	sequence	feedback	NaN	NaN	NaN	NaN	NaN	NaN	NaN	NaN	NaN	NaN	NaN	NaN	NaN
1107.2072893999998	1.0004	sub-20	1	sequence	cue	Gesicht	NaN	NaN	NaN	NaN	NaN	NaN	NaN	NaN	NaN	NaN	NaN	NaN
1108.2077056000005	2.0018	sub-20	1	sequence	blank	blank	NaN	NaN	NaN	NaN	NaN	NaN	NaN	NaN	NaN	NaN	NaN	NaN
1110.2094842	0.3002	sub-20	1	sequence	fixation	dot	NaN	NaN	NaN	NaN	NaN	NaN	NaN	NaN	NaN	NaN	NaN	NaN
1110.5280499000005	0.1149	sub-20	1	sequence	stimulus	Schuh	NaN	NaN	64.0	NaN	NaN	4.0	1.0	NaN	NaN	NaN	NaN	NaN
1110.6429938000006	0.0668	sub-20	1	sequence	interval	dot	NaN	NaN	NaN	NaN	NaN	NaN	NaN	NaN	NaN	NaN	NaN	NaN
1110.7098436	0.0999	sub-20	1	sequence	stimulus	Gesicht	NaN	NaN	64.0	NaN	NaN	1.0	2.0	NaN	NaN	NaN	NaN	NaN
1110.8097885000002	0.0668	sub-20	1	sequence	interval	dot	NaN	NaN	NaN	NaN	NaN	NaN	NaN	NaN	NaN	NaN	NaN	NaN
1110.8765851000005	0.1	sub-20	1	sequence	stimulus	Stuhl	NaN	NaN	64.0	NaN	NaN	5.0	3.0	NaN	NaN	NaN	NaN	NaN
1110.9765686000003	0.0669	sub-20	1	sequence	interval	dot	NaN	NaN	NaN	NaN	NaN	NaN	NaN	NaN	NaN	NaN	NaN	NaN
1111.0434435000002	0.1	sub-20	1	sequence	stimulus	Katze	NaN	NaN	64.0	NaN	NaN	3.0	4.0	NaN	NaN	NaN	NaN	NaN
1111.1433969000004	0.0669	sub-20	1	sequence	interval	dot	NaN	NaN	NaN	NaN	NaN	NaN	NaN	NaN	NaN	NaN	NaN	NaN
1111.2102772000003	0.0999	sub-20	1	sequence	stimulus	Haus	NaN	NaN	64.0	NaN	NaN	2.0	5.0	NaN	NaN	NaN	NaN	NaN
1111.3101620000002	0.0667	sub-20	1	sequence	interval	dot	NaN	NaN	NaN	NaN	NaN	NaN	NaN	NaN	NaN	NaN	NaN	NaN
1111.3769091999998	8.3883	sub-20	1	sequence	delay	dot	NaN	NaN	NaN	NaN	NaN	NaN	NaN	NaN	NaN	NaN	NaN	NaN
1119.7480237000004	1.5872	sub-20	1	sequence	choice	choice	right	NaN	NaN	1.5691541999995025	False	NaN	NaN	left	True	2.0	5.0	2.0
1121.3354501999995	0.5	sub-20	1	sequence	feedback	NaN	NaN	NaN	NaN	NaN	NaN	NaN	NaN	NaN	NaN	NaN	NaN	NaN
1125.6560163	0.4996	sub-20	1	localizer	stimulus	Schuh	NaN	0	2.985511599999654	NaN	True	NaN	NaN	NaN	NaN	NaN	NaN	NaN
1126.1391274000002	2.9855	sub-20	1	localizer	blank	interval	NaN	NaN	NaN	NaN	NaN	NaN	NaN	NaN	NaN	NaN	NaN	NaN
1129.4256741000004	0.4995	sub-20	1	localizer	stimulus	Katze	NaN	180	1.7679359000001114	0.6767496000002211	True	NaN	NaN	NaN	NaN	NaN	NaN	NaN
1129.9087022	1.7679	sub-20	1	localizer	blank	interval	NaN	NaN	NaN	NaN	NaN	NaN	NaN	NaN	NaN	NaN	NaN	NaN
1131.9778749000002	0.4994	sub-20	1	localizer	stimulus	Schuh	NaN	0	3.102384300000267	NaN	True	NaN	NaN	NaN	NaN	NaN	NaN	NaN
1132.4607831999997	3.1024	sub-20	1	localizer	blank	interval	NaN	NaN	NaN	NaN	NaN	NaN	NaN	NaN	NaN	NaN	NaN	NaN
1135.8642446	0.4995	sub-20	1	localizer	stimulus	Schuh	NaN	180	1.9513976999996885	0.6701381000002584	True	NaN	NaN	NaN	NaN	NaN	NaN	NaN
1136.3472799000006	1.9514	sub-20	1	localizer	blank	interval	NaN	NaN	NaN	NaN	NaN	NaN	NaN	NaN	NaN	NaN	NaN	NaN
1138.5997997999998	0.4995	sub-20	1	localizer	stimulus	Stuhl	NaN	0	2.9522335999999996	NaN	True	NaN	NaN	NaN	NaN	NaN	NaN	NaN
1139.0828038000004	2.9522	sub-20	1	localizer	blank	interval	NaN	NaN	NaN	NaN	NaN	NaN	NaN	NaN	NaN	NaN	NaN	NaN
1142.3361656000002	0.4995	sub-20	1	localizer	stimulus	Haus	NaN	0	2.201711400000022	NaN	True	NaN	NaN	NaN	NaN	NaN	NaN	NaN
1142.8192089999998	2.2017	sub-20	1	localizer	blank	interval	NaN	NaN	NaN	NaN	NaN	NaN	NaN	NaN	NaN	NaN	NaN	NaN
1145.3220267000002	0.5	sub-20	1	localizer	stimulus	Haus	NaN	0	3.018936199999189	NaN	True	NaN	NaN	NaN	NaN	NaN	NaN	NaN
1145.8051734000005	3.0189	sub-20	1	localizer	blank	interval	NaN	NaN	NaN	NaN	NaN	NaN	NaN	NaN	NaN	NaN	NaN	NaN
1149.1249881999995	0.4995	sub-20	1	localizer	stimulus	Katze	NaN	0	2.2516826000000947	NaN	True	NaN	NaN	NaN	NaN	NaN	NaN	NaN
1149.6080334000003	2.2517	sub-20	1	localizer	blank	interval	NaN	NaN	NaN	NaN	NaN	NaN	NaN	NaN	NaN	NaN	NaN	NaN
1152.1607496	0.4996	sub-20	1	localizer	stimulus	Stuhl	NaN	0	2.8354817999997977	NaN	True	NaN	NaN	NaN	NaN	NaN	NaN	NaN
1152.6437783000006	2.8355	sub-20	1	localizer	blank	interval	NaN	NaN	NaN	NaN	NaN	NaN	NaN	NaN	NaN	NaN	NaN	NaN
1155.7803583	0.4997	sub-20	1	localizer	stimulus	Stuhl	NaN	0	2.7354801000001316	NaN	True	NaN	NaN	NaN	NaN	NaN	NaN	NaN
1156.2633775999998	2.7355	sub-20	1	localizer	blank	interval	NaN	NaN	NaN	NaN	NaN	NaN	NaN	NaN	NaN	NaN	NaN	NaN
1159.2998727	0.4997	sub-20	1	localizer	stimulus	Gesicht	NaN	0	2.48504189999926	NaN	True	NaN	NaN	NaN	NaN	NaN	NaN	NaN
1159.7830311000002	2.485	sub-20	1	localizer	blank	interval	NaN	NaN	NaN	NaN	NaN	NaN	NaN	NaN	NaN	NaN	NaN	NaN
1162.5691614000002	0.4997	sub-20	1	localizer	stimulus	Gesicht	NaN	0	2.5518705000004047	NaN	True	NaN	NaN	NaN	NaN	NaN	NaN	NaN
1163.0522815	2.5519	sub-20	1	localizer	blank	interval	NaN	NaN	NaN	NaN	NaN	NaN	NaN	NaN	NaN	NaN	NaN	NaN
1165.9053841	0.4996	sub-20	1	localizer	stimulus	Haus	NaN	180	3.0691240000005564	0.5812286999998832	True	NaN	NaN	NaN	NaN	NaN	NaN	NaN
1166.3884143	3.0691	sub-20	1	localizer	blank	interval	NaN	NaN	NaN	NaN	NaN	NaN	NaN	NaN	NaN	NaN	NaN	NaN
1169.7584571000002	0.4995	sub-20	1	localizer	stimulus	Schuh	NaN	0	2.2350440000000162	NaN	True	NaN	NaN	NaN	NaN	NaN	NaN	NaN
1170.2413356000002	2.235	sub-20	1	localizer	blank	interval	NaN	NaN	NaN	NaN	NaN	NaN	NaN	NaN	NaN	NaN	NaN	NaN
1172.7774669000005	0.4996	sub-20	1	localizer	stimulus	Haus	NaN	0	1.934860800000024	NaN	True	NaN	NaN	NaN	NaN	NaN	NaN	NaN
