onset	duration	subject	session	condition	trial_type	stim_label	key_down	orientation	interval_time	response_time	accuracy	stim_index	serial_position	key_expected	key_pressed	choice_left	choice_right	choice_correct
1.2512137000012444	1.2847	sub-29	1	instruction	instruction	language_selection	german	NaN	NaN	NaN	NaN	NaN	NaN	NaN	NaN	NaN	NaN	NaN
39.8334317000008	0.4993	sub-29	1	localizer	stimulus	Stuhl	NaN	0	2.818893699999535	NaN	1.0	NaN	NaN	NaN	NaN	NaN	NaN	NaN
40.31621580000137	2.8189	sub-29	1	localizer	blank	interval	NaN	NaN	NaN	NaN	NaN	NaN	NaN	NaN	NaN	NaN	NaN	NaN
43.43639000000076	0.4994	sub-29	1	localizer	stimulus	Stuhl	NaN	0	3.886264400000073	NaN	True	NaN	NaN	NaN	NaN	NaN	NaN	NaN
43.91927660000147	3.8863	sub-29	1	localizer	blank	interval	NaN	NaN	NaN	NaN	NaN	NaN	NaN	NaN	NaN	NaN	NaN	NaN
48.106774900001255	0.4995	sub-29	1	localizer	stimulus	Haus	NaN	0	2.5518296000009286	NaN	True	NaN	NaN	NaN	NaN	NaN	NaN	NaN
48.58968850000019	2.5518	sub-29	1	localizer	blank	interval	NaN	NaN	NaN	NaN	NaN	NaN	NaN	NaN	NaN	NaN	NaN	NaN
51.44274589999986	0.4994	sub-29	1	localizer	stimulus	Schuh	NaN	0	2.8521753000004537	NaN	True	NaN	NaN	NaN	NaN	NaN	NaN	NaN
51.92559280000023	2.8522	sub-29	1	localizer	blank	interval	NaN	NaN	NaN	NaN	NaN	NaN	NaN	NaN	NaN	NaN	NaN	NaN
55.07899100000032	0.4994	sub-29	1	localizer	stimulus	Schuh	NaN	0	2.3517554000009113	NaN	True	NaN	NaN	NaN	NaN	NaN	NaN	NaN
55.5618685999998	2.3518	sub-29	1	localizer	blank	interval	NaN	NaN	NaN	NaN	NaN	NaN	NaN	NaN	NaN	NaN	NaN	NaN
58.21490730000005	0.4994	sub-29	1	localizer	stimulus	Haus	NaN	180	1.7010785000002286	0.5679842999998073	True	NaN	NaN	NaN	NaN	NaN	NaN	NaN
58.69789760000094	1.7011	sub-29	1	localizer	blank	interval	NaN	NaN	NaN	NaN	NaN	NaN	NaN	NaN	NaN	NaN	NaN	NaN
60.700166300001	0.4996	sub-29	1	localizer	stimulus	Stuhl	NaN	0	1.8179712000001018	NaN	True	NaN	NaN	NaN	NaN	NaN	NaN	NaN
61.18310080000083	1.818	sub-29	1	localizer	blank	interval	NaN	NaN	NaN	NaN	NaN	NaN	NaN	NaN	NaN	NaN	NaN	NaN
63.3024774000005	0.4993	sub-29	1	localizer	stimulus	Schuh	NaN	0	2.399926099998993	NaN	True	NaN	NaN	NaN	NaN	NaN	NaN	NaN
63.78536090000125	2.3999	sub-29	1	localizer	blank	interval	NaN	NaN	NaN	NaN	NaN	NaN	NaN	NaN	NaN	NaN	NaN	NaN
66.48838630000137	0.4996	sub-29	1	localizer	stimulus	Stuhl	NaN	0	2.8187216999995144	NaN	True	NaN	NaN	NaN	NaN	NaN	NaN	NaN
66.97134200000073	2.8187	sub-29	1	localizer	blank	interval	NaN	NaN	NaN	NaN	NaN	NaN	NaN	NaN	NaN	NaN	NaN	NaN
70.09113419999994	0.4995	sub-29	1	localizer	stimulus	Katze	NaN	0	2.268374200000835	NaN	True	NaN	NaN	NaN	NaN	NaN	NaN	NaN
70.57396870000048	2.2684	sub-29	1	localizer	blank	interval	NaN	NaN	NaN	NaN	NaN	NaN	NaN	NaN	NaN	NaN	NaN	NaN
73.1436321000001	0.4993	sub-29	1	localizer	stimulus	Haus	NaN	0	2.7185981000002357	NaN	True	NaN	NaN	NaN	NaN	NaN	NaN	NaN
73.6265970000004	2.7186	sub-29	1	localizer	blank	interval	NaN	NaN	NaN	NaN	NaN	NaN	NaN	NaN	NaN	NaN	NaN	NaN
76.64643700000124	0.4995	sub-29	1	localizer	stimulus	Haus	NaN	0	2.468597099999897	NaN	True	NaN	NaN	NaN	NaN	NaN	NaN	NaN
77.12939200000073	2.4686	sub-29	1	localizer	blank	interval	NaN	NaN	NaN	NaN	NaN	NaN	NaN	NaN	NaN	NaN	NaN	NaN
79.89903980000054	0.4995	sub-29	1	localizer	stimulus	Katze	NaN	0	2.351961200000005	NaN	True	NaN	NaN	NaN	NaN	NaN	NaN	NaN
80.38190250000116	2.352	sub-29	1	localizer	blank	interval	NaN	NaN	NaN	NaN	NaN	NaN	NaN	NaN	NaN	NaN	NaN	NaN
83.0349385999998	0.4995	sub-29	1	localizer	stimulus	Stuhl	NaN	180	3.10240739999972	0.5639630999994552	True	NaN	NaN	NaN	NaN	NaN	NaN	NaN
83.51787220000006	3.1024	sub-29	1	localizer	blank	interval	NaN	NaN	NaN	NaN	NaN	NaN	NaN	NaN	NaN	NaN	NaN	NaN
86.93884860000071	0.5154	sub-29	1	localizer	stimulus	Gesicht	NaN	0	2.6017874000008305	NaN	True	NaN	NaN	NaN	NaN	NaN	NaN	NaN
87.40442640000037	2.6018	sub-29	1	localizer	blank	interval	NaN	NaN	NaN	NaN	NaN	NaN	NaN	NaN	NaN	NaN	NaN	NaN
90.30744349999986	0.4995	sub-29	1	localizer	stimulus	Gesicht	NaN	0	2.35187629999929	0.7154309999987163	False	NaN	NaN	NaN	NaN	NaN	NaN	NaN
90.79033200000048	2.3519	sub-29	1	localizer	blank	interval	NaN	NaN	NaN	NaN	NaN	NaN	NaN	NaN	NaN	NaN	NaN	NaN
93.44331930000044	0.4994	sub-29	1	localizer	stimulus	Schuh	NaN	0	2.2848735000006855	NaN	True	NaN	NaN	NaN	NaN	NaN	NaN	NaN
93.92631849999998	2.2849	sub-29	1	localizer	blank	interval	NaN	NaN	NaN	NaN	NaN	NaN	NaN	NaN	NaN	NaN	NaN	NaN
96.51247350000084	0.4994	sub-29	1	localizer	stimulus	Gesicht	NaN	0	2.9521481000010823	NaN	True	NaN	NaN	NaN	NaN	NaN	NaN	NaN
96.99552120000044	2.9521	sub-29	1	localizer	blank	interval	NaN	NaN	NaN	NaN	NaN	NaN	NaN	NaN	NaN	NaN	NaN	NaN
100.24880420000044	0.4995	sub-29	1	localizer	stimulus	Katze	NaN	0	2.601970599998822	NaN	True	NaN	NaN	NaN	NaN	NaN	NaN	NaN
100.7316789000015	2.602	sub-29	1	localizer	blank	interval	NaN	NaN	NaN	NaN	NaN	NaN	NaN	NaN	NaN	NaN	NaN	NaN
103.63487600000008	0.4994	sub-29	1	localizer	stimulus	Schuh	NaN	180	2.135088099999834	0.5719289999997272	True	NaN	NaN	NaN	NaN	NaN	NaN	NaN
104.1177475000004	2.1351	sub-29	1	localizer	blank	interval	NaN	NaN	NaN	NaN	NaN	NaN	NaN	NaN	NaN	NaN	NaN	NaN
106.55396640000072	0.4995	sub-29	1	localizer	stimulus	Katze	NaN	0	2.6685787000005803	NaN	True	NaN	NaN	NaN	NaN	NaN	NaN	NaN
107.03706160000002	2.6686	sub-29	1	localizer	blank	interval	NaN	NaN	NaN	NaN	NaN	NaN	NaN	NaN	NaN	NaN	NaN	NaN
110.00677260000155	0.4995	sub-29	1	localizer	stimulus	Katze	NaN	180	2.1849631999994017	0.5599561999988509	True	NaN	NaN	NaN	NaN	NaN	NaN	NaN
110.48955960000058	2.185	sub-29	1	localizer	blank	interval	NaN	NaN	NaN	NaN	NaN	NaN	NaN	NaN	NaN	NaN	NaN	NaN
112.97576769999978	0.4994	sub-29	1	localizer	stimulus	Gesicht	NaN	0	3.5361082999988867	NaN	True	NaN	NaN	NaN	NaN	NaN	NaN	NaN
113.458634300001	3.5361	sub-29	1	localizer	blank	interval	NaN	NaN	NaN	NaN	NaN	NaN	NaN	NaN	NaN	NaN	NaN	NaN
117.29597860000104	0.4994	sub-29	1	localizer	stimulus	Haus	NaN	0	2.485306900000083	NaN	True	NaN	NaN	NaN	NaN	NaN	NaN	NaN
117.7788314999998	2.4853	sub-29	1	localizer	blank	interval	NaN	NaN	NaN	NaN	NaN	NaN	NaN	NaN	NaN	NaN	NaN	NaN
120.5652501000004	0.4994	sub-29	1	localizer	stimulus	Gesicht	NaN	180	2.635169000001042	0.497576099998696	True	NaN	NaN	NaN	NaN	NaN	NaN	NaN
121.0482505	2.6352	sub-29	1	localizer	blank	interval	NaN	NaN	NaN	NaN	NaN	NaN	NaN	NaN	NaN	NaN	NaN	NaN
127.17007809999996	1.0004	sub-29	1	sequence	cue	Haus	NaN	NaN	NaN	NaN	NaN	NaN	NaN	NaN	NaN	NaN	NaN	NaN
128.17052719999992	2.0017	sub-29	1	sequence	blank	blank	NaN	NaN	NaN	NaN	NaN	NaN	NaN	NaN	NaN	NaN	NaN	NaN
130.17220740000084	0.3002	sub-29	1	sequence	fixation	dot	NaN	NaN	NaN	NaN	NaN	NaN	NaN	NaN	NaN	NaN	NaN	NaN
130.53722200000084	0.1019	sub-29	1	sequence	stimulus	Stuhl	NaN	NaN	32.0	NaN	NaN	5.0	1.0	NaN	NaN	NaN	NaN	NaN
130.63911350000126	0.0335	sub-29	1	sequence	interval	dot	NaN	NaN	NaN	NaN	NaN	NaN	NaN	NaN	NaN	NaN	NaN	NaN
130.67260239999996	0.0999	sub-29	1	sequence	stimulus	Haus	NaN	NaN	32.0	NaN	NaN	2.0	2.0	NaN	NaN	NaN	NaN	NaN
130.7725244000012	0.0334	sub-29	1	sequence	interval	dot	NaN	NaN	NaN	NaN	NaN	NaN	NaN	NaN	NaN	NaN	NaN	NaN
130.80595630000062	0.1	sub-29	1	sequence	stimulus	Gesicht	NaN	NaN	32.0	NaN	NaN	1.0	3.0	NaN	NaN	NaN	NaN	NaN
130.90592660000038	0.0335	sub-29	1	sequence	interval	dot	NaN	NaN	NaN	NaN	NaN	NaN	NaN	NaN	NaN	NaN	NaN	NaN
130.93941540000014	0.0999	sub-29	1	sequence	stimulus	Schuh	NaN	NaN	32.0	NaN	NaN	4.0	4.0	NaN	NaN	NaN	NaN	NaN
131.03936020000037	0.0335	sub-29	1	sequence	interval	dot	NaN	NaN	NaN	NaN	NaN	NaN	NaN	NaN	NaN	NaN	NaN	NaN
131.07283980000102	0.1	sub-29	1	sequence	stimulus	Katze	NaN	NaN	32.0	NaN	NaN	3.0	5.0	NaN	NaN	NaN	NaN	NaN
131.17281020000155	0.0333	sub-29	1	sequence	interval	dot	NaN	NaN	NaN	NaN	NaN	NaN	NaN	NaN	NaN	NaN	NaN	NaN
131.20614690000002	8.5383	sub-29	1	sequence	delay	dot	NaN	NaN	NaN	NaN	NaN	NaN	NaN	NaN	NaN	NaN	NaN	NaN
139.73069730000134	2.5011	sub-29	1	sequence	choice	choice	NaN	NaN	NaN	NaN	False	NaN	NaN	right	0.0	4.0	2.0	2.0
142.2320408000014	0.5001	sub-29	1	sequence	feedback	NaN	NaN	NaN	NaN	NaN	NaN	NaN	NaN	NaN	NaN	NaN	NaN	NaN
142.73240940000142	1.0006	sub-29	1	sequence	cue	Gesicht	NaN	NaN	NaN	NaN	NaN	NaN	NaN	NaN	NaN	NaN	NaN	NaN
143.7330321999998	2.0016	sub-29	1	sequence	blank	blank	NaN	NaN	NaN	NaN	NaN	NaN	NaN	NaN	NaN	NaN	NaN	NaN
145.73458949999986	0.3003	sub-29	1	sequence	fixation	dot	NaN	NaN	NaN	NaN	NaN	NaN	NaN	NaN	NaN	NaN	NaN	NaN
146.0675261000015	0.1007	sub-29	1	sequence	stimulus	Haus	NaN	NaN	64.0	NaN	NaN	2.0	1.0	NaN	NaN	NaN	NaN	NaN
146.16826660000152	0.0668	sub-29	1	sequence	interval	dot	NaN	NaN	NaN	NaN	NaN	NaN	NaN	NaN	NaN	NaN	NaN	NaN
146.23506730000008	0.1	sub-29	1	sequence	stimulus	Schuh	NaN	NaN	64.0	NaN	NaN	4.0	2.0	NaN	NaN	NaN	NaN	NaN
146.3350543000015	0.0669	sub-29	1	sequence	interval	dot	NaN	NaN	NaN	NaN	NaN	NaN	NaN	NaN	NaN	NaN	NaN	NaN
146.40193680000084	0.1	sub-29	1	sequence	stimulus	Katze	NaN	NaN	64.0	NaN	NaN	3.0	3.0	NaN	NaN	NaN	NaN	NaN
146.50195770000028	0.0668	sub-29	1	sequence	interval	dot	NaN	NaN	NaN	NaN	NaN	NaN	NaN	NaN	NaN	NaN	NaN	NaN
146.56872170000133	0.0999	sub-29	1	sequence	stimulus	Stuhl	NaN	NaN	64.0	NaN	NaN	5.0	4.0	NaN	NaN	NaN	NaN	NaN
146.66862840000067	0.067	sub-29	1	sequence	interval	dot	NaN	NaN	NaN	NaN	NaN	NaN	NaN	NaN	NaN	NaN	NaN	NaN
146.7355881000003	0.0999	sub-29	1	sequence	stimulus	Gesicht	NaN	NaN	64.0	NaN	NaN	1.0	5.0	NaN	NaN	NaN	NaN	NaN
146.83544849999998	0.0667	sub-29	1	sequence	interval	dot	NaN	NaN	NaN	NaN	NaN	NaN	NaN	NaN	NaN	NaN	NaN	NaN
146.90216599999985	8.3716	sub-29	1	sequence	delay	dot	NaN	NaN	NaN	NaN	NaN	NaN	NaN	NaN	NaN	NaN	NaN	NaN
155.25226340000154	1.1744	sub-29	1	sequence	choice	choice	left	NaN	NaN	1.1489936000016314	True	NaN	NaN	left	True	5.0	3.0	5.0
156.42703510000138	0.5	sub-29	1	sequence	feedback	NaN	NaN	NaN	NaN	NaN	NaN	NaN	NaN	NaN	NaN	NaN	NaN	NaN
156.92730810000103	1.0006	sub-29	1	sequence	cue	Katze	NaN	NaN	NaN	NaN	NaN	NaN	NaN	NaN	NaN	NaN	NaN	NaN
157.92794480000157	2.0015	sub-29	1	sequence	blank	blank	NaN	NaN	NaN	NaN	NaN	NaN	NaN	NaN	NaN	NaN	NaN	NaN
159.92945670000154	0.3002	sub-29	1	sequence	fixation	dot	NaN	NaN	NaN	NaN	NaN	NaN	NaN	NaN	NaN	NaN	NaN	NaN
160.24739000000045	0.099	sub-29	1	sequence	stimulus	Gesicht	NaN	NaN	128.0	NaN	NaN	1.0	1.0	NaN	NaN	NaN	NaN	NaN
160.34638369999993	0.1335	sub-29	1	sequence	interval	dot	NaN	NaN	NaN	NaN	NaN	NaN	NaN	NaN	NaN	NaN	NaN	NaN
160.4799178000012	0.1	sub-29	1	sequence	stimulus	Stuhl	NaN	NaN	128.0	NaN	NaN	5.0	2.0	NaN	NaN	NaN	NaN	NaN
160.57988400000067	0.1335	sub-29	1	sequence	interval	dot	NaN	NaN	NaN	NaN	NaN	NaN	NaN	NaN	NaN	NaN	NaN	NaN
160.71342950000144	0.1	sub-29	1	sequence	stimulus	Schuh	NaN	NaN	128.0	NaN	NaN	4.0	3.0	NaN	NaN	NaN	NaN	NaN
160.81340249999994	0.1336	sub-29	1	sequence	interval	dot	NaN	NaN	NaN	NaN	NaN	NaN	NaN	NaN	NaN	NaN	NaN	NaN
160.94700750000084	0.1001	sub-29	1	sequence	stimulus	Haus	NaN	NaN	128.0	NaN	NaN	2.0	4.0	NaN	NaN	NaN	NaN	NaN
161.0470604000002	0.1335	sub-29	1	sequence	interval	dot	NaN	NaN	NaN	NaN	NaN	NaN	NaN	NaN	NaN	NaN	NaN	NaN
161.1805542000002	0.1	sub-29	1	sequence	stimulus	Katze	NaN	NaN	128.0	NaN	NaN	3.0	5.0	NaN	NaN	NaN	NaN	NaN
161.28060130000085	0.1334	sub-29	1	sequence	interval	dot	NaN	NaN	NaN	NaN	NaN	NaN	NaN	NaN	NaN	NaN	NaN	NaN
161.4139681000015	8.0715	sub-29	1	sequence	delay	dot	NaN	NaN	NaN	NaN	NaN	NaN	NaN	NaN	NaN	NaN	NaN	NaN
169.47386760000154	1.1459	sub-29	1	sequence	choice	choice	right	NaN	NaN	1.1212129000014102	True	NaN	NaN	right	True	3.0	5.0	5.0
170.62005240000144	0.5019	sub-29	1	sequence	feedback	NaN	NaN	NaN	NaN	NaN	NaN	NaN	NaN	NaN	NaN	NaN	NaN	NaN
171.1221931	1.0006	sub-29	1	sequence	cue	Katze	NaN	NaN	NaN	NaN	NaN	NaN	NaN	NaN	NaN	NaN	NaN	NaN
172.12282680000135	2.0013	sub-29	1	sequence	blank	blank	NaN	NaN	NaN	NaN	NaN	NaN	NaN	NaN	NaN	NaN	NaN	NaN
174.12415240000155	0.3004	sub-29	1	sequence	fixation	dot	NaN	NaN	NaN	NaN	NaN	NaN	NaN	NaN	NaN	NaN	NaN	NaN
174.4427357000004	0.1151	sub-29	1	sequence	stimulus	Schuh	NaN	NaN	64.0	NaN	NaN	4.0	1.0	NaN	NaN	NaN	NaN	NaN
174.5578372	0.0668	sub-29	1	sequence	interval	dot	NaN	NaN	NaN	NaN	NaN	NaN	NaN	NaN	NaN	NaN	NaN	NaN
174.6246718000002	0.1	sub-29	1	sequence	stimulus	Stuhl	NaN	NaN	64.0	NaN	NaN	5.0	2.0	NaN	NaN	NaN	NaN	NaN
174.72463609999977	0.0668	sub-29	1	sequence	interval	dot	NaN	NaN	NaN	NaN	NaN	NaN	NaN	NaN	NaN	NaN	NaN	NaN
174.79146180000134	0.1	sub-29	1	sequence	stimulus	Gesicht	NaN	NaN	64.0	NaN	NaN	1.0	3.0	NaN	NaN	NaN	NaN	NaN
174.89143830000103	0.0668	sub-29	1	sequence	interval	dot	NaN	NaN	NaN	NaN	NaN	NaN	NaN	NaN	NaN	NaN	NaN	NaN
174.95828660000006	0.1	sub-29	1	sequence	stimulus	Katze	NaN	NaN	64.0	NaN	NaN	3.0	4.0	NaN	NaN	NaN	NaN	NaN
175.0582499000011	0.0669	sub-29	1	sequence	interval	dot	NaN	NaN	NaN	NaN	NaN	NaN	NaN	NaN	NaN	NaN	NaN	NaN
175.12511340000128	0.0999	sub-29	1	sequence	stimulus	Haus	NaN	NaN	64.0	NaN	NaN	2.0	5.0	NaN	NaN	NaN	NaN	NaN
175.2250186000001	0.0667	sub-29	1	sequence	interval	dot	NaN	NaN	NaN	NaN	NaN	NaN	NaN	NaN	NaN	NaN	NaN	NaN
175.29176580000058	8.3718	sub-29	1	sequence	delay	dot	NaN	NaN	NaN	NaN	NaN	NaN	NaN	NaN	NaN	NaN	NaN	NaN
183.64348880000037	0.9394	sub-29	1	sequence	choice	choice	left	NaN	NaN	0.9110908000002382	True	NaN	NaN	left	True	4.0	5.0	4.0
184.58314190000056	0.4999	sub-29	1	sequence	feedback	NaN	NaN	NaN	NaN	NaN	NaN	NaN	NaN	NaN	NaN	NaN	NaN	NaN
185.0833140000013	1.0007	sub-29	1	sequence	cue	Schuh	NaN	NaN	NaN	NaN	NaN	NaN	NaN	NaN	NaN	NaN	NaN	NaN
186.08398730000044	2.0014	sub-29	1	sequence	blank	blank	NaN	NaN	NaN	NaN	NaN	NaN	NaN	NaN	NaN	NaN	NaN	NaN
188.0854349000001	0.3004	sub-29	1	sequence	fixation	dot	NaN	NaN	NaN	NaN	NaN	NaN	NaN	NaN	NaN	NaN	NaN	NaN
188.40344910000024	0.099	sub-29	1	sequence	stimulus	Gesicht	NaN	NaN	32.0	NaN	NaN	1.0	1.0	NaN	NaN	NaN	NaN	NaN
188.50246940000036	0.0334	sub-29	1	sequence	interval	dot	NaN	NaN	NaN	NaN	NaN	NaN	NaN	NaN	NaN	NaN	NaN	NaN
188.5358991000012	0.1001	sub-29	1	sequence	stimulus	Haus	NaN	NaN	32.0	NaN	NaN	2.0	2.0	NaN	NaN	NaN	NaN	NaN
188.63597990000017	0.0334	sub-29	1	sequence	interval	dot	NaN	NaN	NaN	NaN	NaN	NaN	NaN	NaN	NaN	NaN	NaN	NaN
188.6693974000009	0.0999	sub-29	1	sequence	stimulus	Schuh	NaN	NaN	32.0	NaN	NaN	4.0	3.0	NaN	NaN	NaN	NaN	NaN
188.76929120000025	0.0336	sub-29	1	sequence	interval	dot	NaN	NaN	NaN	NaN	NaN	NaN	NaN	NaN	NaN	NaN	NaN	NaN
188.80285080000067	0.0999	sub-29	1	sequence	stimulus	Katze	NaN	NaN	32.0	NaN	NaN	3.0	4.0	NaN	NaN	NaN	NaN	NaN
188.90279080000076	0.0334	sub-29	1	sequence	interval	dot	NaN	NaN	NaN	NaN	NaN	NaN	NaN	NaN	NaN	NaN	NaN	NaN
188.93619200000103	0.1001	sub-29	1	sequence	stimulus	Stuhl	NaN	NaN	32.0	NaN	NaN	5.0	5.0	NaN	NaN	NaN	NaN	NaN
189.03627310000047	0.0334	sub-29	1	sequence	interval	dot	NaN	NaN	NaN	NaN	NaN	NaN	NaN	NaN	NaN	NaN	NaN	NaN
189.0696286000002	8.5215	sub-29	1	sequence	delay	dot	NaN	NaN	NaN	NaN	NaN	NaN	NaN	NaN	NaN	NaN	NaN	NaN
197.57927610000115	0.9316	sub-29	1	sequence	choice	choice	left	NaN	NaN	0.9194899000012812	True	NaN	NaN	left	True	3.0	1.0	3.0
198.5111383000003	0.4999	sub-29	1	sequence	feedback	NaN	NaN	NaN	NaN	NaN	NaN	NaN	NaN	NaN	NaN	NaN	NaN	NaN
199.01124960000016	1.0006	sub-29	1	sequence	cue	Katze	NaN	NaN	NaN	NaN	NaN	NaN	NaN	NaN	NaN	NaN	NaN	NaN
200.0118132000007	2.0017	sub-29	1	sequence	blank	blank	NaN	NaN	NaN	NaN	NaN	NaN	NaN	NaN	NaN	NaN	NaN	NaN
202.0134823000008	0.3003	sub-29	1	sequence	fixation	dot	NaN	NaN	NaN	NaN	NaN	NaN	NaN	NaN	NaN	NaN	NaN	NaN
202.3320133000016	0.115	sub-29	1	sequence	stimulus	Schuh	NaN	NaN	128.0	NaN	NaN	4.0	1.0	NaN	NaN	NaN	NaN	NaN
202.44702040000084	0.1336	sub-29	1	sequence	interval	dot	NaN	NaN	NaN	NaN	NaN	NaN	NaN	NaN	NaN	NaN	NaN	NaN
202.5805876000013	0.0999	sub-29	1	sequence	stimulus	Stuhl	NaN	NaN	128.0	NaN	NaN	5.0	2.0	NaN	NaN	NaN	NaN	NaN
202.68051230000128	0.1336	sub-29	1	sequence	interval	dot	NaN	NaN	NaN	NaN	NaN	NaN	NaN	NaN	NaN	NaN	NaN	NaN
202.81410640000104	0.0999	sub-29	1	sequence	stimulus	Haus	NaN	NaN	128.0	NaN	NaN	2.0	3.0	NaN	NaN	NaN	NaN	NaN
202.91405020000093	0.1336	sub-29	1	sequence	interval	dot	NaN	NaN	NaN	NaN	NaN	NaN	NaN	NaN	NaN	NaN	NaN	NaN
203.04762530000156	0.0999	sub-29	1	sequence	stimulus	Katze	NaN	NaN	128.0	NaN	NaN	3.0	4.0	NaN	NaN	NaN	NaN	NaN
203.14757400000053	0.1336	sub-29	1	sequence	interval	dot	NaN	NaN	NaN	NaN	NaN	NaN	NaN	NaN	NaN	NaN	NaN	NaN
203.281145500001	0.0999	sub-29	1	sequence	stimulus	Gesicht	NaN	NaN	128.0	NaN	NaN	1.0	5.0	NaN	NaN	NaN	NaN	NaN
203.38108580000156	0.1335	sub-29	1	sequence	interval	dot	NaN	NaN	NaN	NaN	NaN	NaN	NaN	NaN	NaN	NaN	NaN	NaN
203.51454090000152	8.0714	sub-29	1	sequence	delay	dot	NaN	NaN	NaN	NaN	NaN	NaN	NaN	NaN	NaN	NaN	NaN	NaN
211.56705409999995	2.0561	sub-29	1	sequence	choice	choice	left	NaN	NaN	2.028713699999571	False	NaN	NaN	right	True	5.0	4.0	4.0
213.62347050000065	0.5	sub-29	1	sequence	feedback	NaN	NaN	NaN	NaN	NaN	NaN	NaN	NaN	NaN	NaN	NaN	NaN	NaN
214.123720900001	1.0002	sub-29	1	sequence	cue	Katze	NaN	NaN	NaN	NaN	NaN	NaN	NaN	NaN	NaN	NaN	NaN	NaN
215.1239502000008	2.0016	sub-29	1	sequence	blank	blank	NaN	NaN	NaN	NaN	NaN	NaN	NaN	NaN	NaN	NaN	NaN	NaN
217.12556080000104	0.3003	sub-29	1	sequence	fixation	dot	NaN	NaN	NaN	NaN	NaN	NaN	NaN	NaN	NaN	NaN	NaN	NaN
217.4441308000005	0.1152	sub-29	1	sequence	stimulus	Gesicht	NaN	NaN	512.0	NaN	NaN	1.0	1.0	NaN	NaN	NaN	NaN	NaN
217.5593130000016	0.5172	sub-29	1	sequence	interval	dot	NaN	NaN	NaN	NaN	NaN	NaN	NaN	NaN	NaN	NaN	NaN	NaN
218.0765186000008	0.1	sub-29	1	sequence	stimulus	Stuhl	NaN	NaN	512.0	NaN	NaN	5.0	2.0	NaN	NaN	NaN	NaN	NaN
218.17649520000123	0.5171	sub-29	1	sequence	interval	dot	NaN	NaN	NaN	NaN	NaN	NaN	NaN	NaN	NaN	NaN	NaN	NaN
218.6936383000011	0.1001	sub-29	1	sequence	stimulus	Katze	NaN	NaN	512.0	NaN	NaN	3.0	3.0	NaN	NaN	NaN	NaN	NaN
218.79369420000148	0.5171	sub-29	1	sequence	interval	dot	NaN	NaN	NaN	NaN	NaN	NaN	NaN	NaN	NaN	NaN	NaN	NaN
219.31082520000015	0.1	sub-29	1	sequence	stimulus	Haus	NaN	NaN	512.0	NaN	NaN	2.0	4.0	NaN	NaN	NaN	NaN	NaN
219.4108238000008	0.5172	sub-29	1	sequence	interval	dot	NaN	NaN	NaN	NaN	NaN	NaN	NaN	NaN	NaN	NaN	NaN	NaN
219.9280214999999	0.0998	sub-29	1	sequence	stimulus	Schuh	NaN	NaN	512.0	NaN	NaN	4.0	5.0	NaN	NaN	NaN	NaN	NaN
220.02786970000125	0.5171	sub-29	1	sequence	interval	dot	NaN	NaN	NaN	NaN	NaN	NaN	NaN	NaN	NaN	NaN	NaN	NaN
220.54495080000012	6.1532	sub-29	1	sequence	delay	dot	NaN	NaN	NaN	NaN	NaN	NaN	NaN	NaN	NaN	NaN	NaN	NaN
226.67313860000104	0.8777	sub-29	1	sequence	choice	choice	right	NaN	NaN	0.8523765999998432	True	NaN	NaN	right	True	4.0	3.0	3.0
227.55114210000104	0.5	sub-29	1	sequence	feedback	NaN	NaN	NaN	NaN	NaN	NaN	NaN	NaN	NaN	NaN	NaN	NaN	NaN
228.05134970000108	1.0006	sub-29	1	sequence	cue	Schuh	NaN	NaN	NaN	NaN	NaN	NaN	NaN	NaN	NaN	NaN	NaN	NaN
229.05196520000027	2.0016	sub-29	1	sequence	blank	blank	NaN	NaN	NaN	NaN	NaN	NaN	NaN	NaN	NaN	NaN	NaN	NaN
231.05359090000093	0.3003	sub-29	1	sequence	fixation	dot	NaN	NaN	NaN	NaN	NaN	NaN	NaN	NaN	NaN	NaN	NaN	NaN
231.37208680000003	0.1151	sub-29	1	sequence	stimulus	Haus	NaN	NaN	512.0	NaN	NaN	2.0	1.0	NaN	NaN	NaN	NaN	NaN
231.4871579999999	0.5174	sub-29	1	sequence	interval	dot	NaN	NaN	NaN	NaN	NaN	NaN	NaN	NaN	NaN	NaN	NaN	NaN
232.00451310000065	0.1	sub-29	1	sequence	stimulus	Schuh	NaN	NaN	512.0	NaN	NaN	4.0	2.0	NaN	NaN	NaN	NaN	NaN
232.10446670000056	0.5171	sub-29	1	sequence	interval	dot	NaN	NaN	NaN	NaN	NaN	NaN	NaN	NaN	NaN	NaN	NaN	NaN
232.62161280000143	0.1	sub-29	1	sequence	stimulus	Stuhl	NaN	NaN	512.0	NaN	NaN	5.0	3.0	NaN	NaN	NaN	NaN	NaN
232.7215797000008	0.5172	sub-29	1	sequence	interval	dot	NaN	NaN	NaN	NaN	NaN	NaN	NaN	NaN	NaN	NaN	NaN	NaN
233.2387712	0.1	sub-29	1	sequence	stimulus	Katze	NaN	NaN	512.0	NaN	NaN	3.0	4.0	NaN	NaN	NaN	NaN	NaN
233.33873550000132	0.5172	sub-29	1	sequence	interval	dot	NaN	NaN	NaN	NaN	NaN	NaN	NaN	NaN	NaN	NaN	NaN	NaN
233.8559724000006	0.1147	sub-29	1	sequence	stimulus	Gesicht	NaN	NaN	512.0	NaN	NaN	1.0	5.0	NaN	NaN	NaN	NaN	NaN
233.97069650000049	0.5191	sub-29	1	sequence	interval	dot	NaN	NaN	NaN	NaN	NaN	NaN	NaN	NaN	NaN	NaN	NaN	NaN
234.48981670000103	6.1363	sub-29	1	sequence	delay	dot	NaN	NaN	NaN	NaN	NaN	NaN	NaN	NaN	NaN	NaN	NaN	NaN
240.60834390000127	0.8705	sub-29	1	sequence	choice	choice	left	NaN	NaN	0.8525122000010015	True	NaN	NaN	left	True	2.0	4.0	2.0
241.47905050000008	0.5	sub-29	1	sequence	feedback	NaN	NaN	NaN	NaN	NaN	NaN	NaN	NaN	NaN	NaN	NaN	NaN	NaN
245.79976549999992	0.4993	sub-29	1	localizer	stimulus	Haus	NaN	180	2.501900500001341	NaN	False	NaN	NaN	NaN	NaN	NaN	NaN	NaN
246.28253159999983	2.5019	sub-29	1	localizer	blank	interval	NaN	NaN	NaN	NaN	NaN	NaN	NaN	NaN	NaN	NaN	NaN	NaN
249.0856937000008	0.4995	sub-29	1	localizer	stimulus	Haus	NaN	0	3.3193374999991363	NaN	True	NaN	NaN	NaN	NaN	NaN	NaN	NaN
249.5685117000012	3.3193	sub-29	1	localizer	blank	interval	NaN	NaN	NaN	NaN	NaN	NaN	NaN	NaN	NaN	NaN	NaN	NaN
253.18899240000064	0.4995	sub-29	1	localizer	stimulus	Katze	NaN	0	2.3018259999989823	NaN	True	NaN	NaN	NaN	NaN	NaN	NaN	NaN
253.6719690000009	2.3018	sub-29	1	localizer	blank	interval	NaN	NaN	NaN	NaN	NaN	NaN	NaN	NaN	NaN	NaN	NaN	NaN
256.27489440000136	0.4993	sub-29	1	localizer	stimulus	Katze	NaN	0	3.0858036000008724	NaN	True	NaN	NaN	NaN	NaN	NaN	NaN	NaN
256.75761240000065	3.0858	sub-29	1	localizer	blank	interval	NaN	NaN	NaN	NaN	NaN	NaN	NaN	NaN	NaN	NaN	NaN	NaN
260.1445891000003	0.4995	sub-29	1	localizer	stimulus	Haus	NaN	0	3.0190830000010465	NaN	True	NaN	NaN	NaN	NaN	NaN	NaN	NaN
260.6274383	3.0191	sub-29	1	localizer	blank	interval	NaN	NaN	NaN	NaN	NaN	NaN	NaN	NaN	NaN	NaN	NaN	NaN
263.94762380000066	0.4994	sub-29	1	localizer	stimulus	Gesicht	NaN	0	2.268338699999788	NaN	True	NaN	NaN	NaN	NaN	NaN	NaN	NaN
264.430607100001	2.2683	sub-29	1	localizer	blank	interval	NaN	NaN	NaN	NaN	NaN	NaN	NaN	NaN	NaN	NaN	NaN	NaN
267.0001357000001	0.4994	sub-29	1	localizer	stimulus	Haus	NaN	0	2.71876759999941	NaN	True	NaN	NaN	NaN	NaN	NaN	NaN	NaN
267.48297880000064	2.7188	sub-29	1	localizer	blank	interval	NaN	NaN	NaN	NaN	NaN	NaN	NaN	NaN	NaN	NaN	NaN	NaN
270.50292249999984	0.4995	sub-29	1	localizer	stimulus	Schuh	NaN	0	2.335181200000079	NaN	True	NaN	NaN	NaN	NaN	NaN	NaN	NaN
270.985812500001	2.3352	sub-29	1	localizer	blank	interval	NaN	NaN	NaN	NaN	NaN	NaN	NaN	NaN	NaN	NaN	NaN	NaN
273.62222360000123	0.4994	sub-29	1	localizer	stimulus	Katze	NaN	0	2.2518089999994118	NaN	True	NaN	NaN	NaN	NaN	NaN	NaN	NaN
274.10508240000127	2.2518	sub-29	1	localizer	blank	interval	NaN	NaN	NaN	NaN	NaN	NaN	NaN	NaN	NaN	NaN	NaN	NaN
276.65808260000085	0.4994	sub-29	1	localizer	stimulus	Stuhl	NaN	0	2.5351286999994045	NaN	True	NaN	NaN	NaN	NaN	NaN	NaN	NaN
277.1409173000011	2.5351	sub-29	1	localizer	blank	interval	NaN	NaN	NaN	NaN	NaN	NaN	NaN	NaN	NaN	NaN	NaN	NaN
279.9772130000001	0.4995	sub-29	1	localizer	stimulus	Katze	NaN	0	2.6187221000000136	NaN	True	NaN	NaN	NaN	NaN	NaN	NaN	NaN
280.46010000000024	2.6187	sub-29	1	localizer	blank	interval	NaN	NaN	NaN	NaN	NaN	NaN	NaN	NaN	NaN	NaN	NaN	NaN
283.3799822000001	0.4994	sub-29	1	localizer	stimulus	Schuh	NaN	180	2.6187245000000985	0.5703787999991619	True	NaN	NaN	NaN	NaN	NaN	NaN	NaN
283.86283730000105	2.6187	sub-29	1	localizer	blank	interval	NaN	NaN	NaN	NaN	NaN	NaN	NaN	NaN	NaN	NaN	NaN	NaN
286.7827105000015	0.4994	sub-29	1	localizer	stimulus	Stuhl	NaN	0	3.035699600000953	NaN	True	NaN	NaN	NaN	NaN	NaN	NaN	NaN
287.26568360000056	3.0357	sub-29	1	localizer	blank	interval	NaN	NaN	NaN	NaN	NaN	NaN	NaN	NaN	NaN	NaN	NaN	NaN
290.6024931000011	0.4995	sub-29	1	localizer	stimulus	Gesicht	NaN	0	2.635341699999117	NaN	True	NaN	NaN	NaN	NaN	NaN	NaN	NaN
291.08533250000073	2.6353	sub-29	1	localizer	blank	interval	NaN	NaN	NaN	NaN	NaN	NaN	NaN	NaN	NaN	NaN	NaN	NaN
294.0220124000007	0.4994	sub-29	1	localizer	stimulus	Katze	NaN	180	2.3184256000004666	0.5844434999999066	True	NaN	NaN	NaN	NaN	NaN	NaN	NaN
294.5049610000005	2.3184	sub-29	1	localizer	blank	interval	NaN	NaN	NaN	NaN	NaN	NaN	NaN	NaN	NaN	NaN	NaN	NaN
297.12463600000046	0.4995	sub-29	1	localizer	stimulus	Gesicht	NaN	0	2.134595999999874	NaN	True	NaN	NaN	NaN	NaN	NaN	NaN	NaN
297.6076062000011	2.1346	sub-29	1	localizer	blank	interval	NaN	NaN	NaN	NaN	NaN	NaN	NaN	NaN	NaN	NaN	NaN	NaN
300.0434489	0.4994	sub-29	1	localizer	stimulus	Gesicht	NaN	0	2.9201863999987836	NaN	True	NaN	NaN	NaN	NaN	NaN	NaN	NaN
300.5263934000013	2.9202	sub-29	1	localizer	blank	interval	NaN	NaN	NaN	NaN	NaN	NaN	NaN	NaN	NaN	NaN	NaN	NaN
303.74643260000084	0.4994	sub-29	1	localizer	stimulus	Schuh	NaN	0	1.884750900000654	NaN	True	NaN	NaN	NaN	NaN	NaN	NaN	NaN
304.22925589999977	1.8848	sub-29	1	localizer	blank	interval	NaN	NaN	NaN	NaN	NaN	NaN	NaN	NaN	NaN	NaN	NaN	NaN
306.4152303999999	0.4994	sub-29	1	localizer	stimulus	Gesicht	NaN	180	2.184978299999784	0.5511478999997053	True	NaN	NaN	NaN	NaN	NaN	NaN	NaN
306.8981418000003	2.185	sub-29	1	localizer	blank	interval	NaN	NaN	NaN	NaN	NaN	NaN	NaN	NaN	NaN	NaN	NaN	NaN
309.38432900000043	0.4994	sub-29	1	localizer	stimulus	Stuhl	NaN	0	3.15244150000035	NaN	True	NaN	NaN	NaN	NaN	NaN	NaN	NaN
309.867169000001	3.1524	sub-29	1	localizer	blank	interval	NaN	NaN	NaN	NaN	NaN	NaN	NaN	NaN	NaN	NaN	NaN	NaN
313.3208166000004	0.4994	sub-29	1	localizer	stimulus	Stuhl	NaN	0	2.368610499999704	NaN	True	NaN	NaN	NaN	NaN	NaN	NaN	NaN
313.8036886000009	2.3686	sub-29	1	localizer	blank	interval	NaN	NaN	NaN	NaN	NaN	NaN	NaN	NaN	NaN	NaN	NaN	NaN
316.47341770000094	0.4995	sub-29	1	localizer	stimulus	Haus	NaN	0	2.752036500000031	NaN	True	NaN	NaN	NaN	NaN	NaN	NaN	NaN
316.9563861000006	2.752	sub-29	1	localizer	blank	interval	NaN	NaN	NaN	NaN	NaN	NaN	NaN	NaN	NaN	NaN	NaN	NaN
320.0095175000006	0.4995	sub-29	1	localizer	stimulus	Stuhl	NaN	180	2.7187073000004602	0.620769900000596	True	NaN	NaN	NaN	NaN	NaN	NaN	NaN
320.4924269000003	2.7187	sub-29	1	localizer	blank	interval	NaN	NaN	NaN	NaN	NaN	NaN	NaN	NaN	NaN	NaN	NaN	NaN
323.51238040000135	0.4994	sub-29	1	localizer	stimulus	Schuh	NaN	0	2.535312399999384	NaN	True	NaN	NaN	NaN	NaN	NaN	NaN	NaN
323.9952589000004	2.5353	sub-29	1	localizer	blank	interval	NaN	NaN	NaN	NaN	NaN	NaN	NaN	NaN	NaN	NaN	NaN	NaN
326.8317102000001	0.4995	sub-29	1	localizer	stimulus	Schuh	NaN	0	2.885530400000789	NaN	True	NaN	NaN	NaN	NaN	NaN	NaN	NaN
327.31460270000025	2.8855	sub-29	1	localizer	blank	interval	NaN	NaN	NaN	NaN	NaN	NaN	NaN	NaN	NaN	NaN	NaN	NaN
333.6866329000004	1.0005	sub-29	1	sequence	cue	Haus	NaN	NaN	NaN	NaN	NaN	NaN	NaN	NaN	NaN	NaN	NaN	NaN
334.6871350000001	2.0018	sub-29	1	sequence	blank	blank	NaN	NaN	NaN	NaN	NaN	NaN	NaN	NaN	NaN	NaN	NaN	NaN
336.68890740000097	0.3001	sub-29	1	sequence	fixation	dot	NaN	NaN	NaN	NaN	NaN	NaN	NaN	NaN	NaN	NaN	NaN	NaN
337.00665950000075	0.0992	sub-29	1	sequence	stimulus	Schuh	NaN	NaN	64.0	NaN	NaN	4.0	1.0	NaN	NaN	NaN	NaN	NaN
337.10584110000127	0.0669	sub-29	1	sequence	interval	dot	NaN	NaN	NaN	NaN	NaN	NaN	NaN	NaN	NaN	NaN	NaN	NaN
337.1727322000006	0.0999	sub-29	1	sequence	stimulus	Stuhl	NaN	NaN	64.0	NaN	NaN	5.0	2.0	NaN	NaN	NaN	NaN	NaN
337.27262560000054	0.0669	sub-29	1	sequence	interval	dot	NaN	NaN	NaN	NaN	NaN	NaN	NaN	NaN	NaN	NaN	NaN	NaN
337.33948650000093	0.0999	sub-29	1	sequence	stimulus	Gesicht	NaN	NaN	64.0	NaN	NaN	1.0	3.0	NaN	NaN	NaN	NaN	NaN
337.4394362000003	0.0669	sub-29	1	sequence	interval	dot	NaN	NaN	NaN	NaN	NaN	NaN	NaN	NaN	NaN	NaN	NaN	NaN
337.5063530000007	0.0999	sub-29	1	sequence	stimulus	Katze	NaN	NaN	64.0	NaN	NaN	3.0	4.0	NaN	NaN	NaN	NaN	NaN
337.6062393000011	0.0668	sub-29	1	sequence	interval	dot	NaN	NaN	NaN	NaN	NaN	NaN	NaN	NaN	NaN	NaN	NaN	NaN
337.6730822999998	0.1	sub-29	1	sequence	stimulus	Haus	NaN	NaN	64.0	NaN	NaN	2.0	5.0	NaN	NaN	NaN	NaN	NaN
337.7731308000002	0.0666	sub-29	1	sequence	interval	dot	NaN	NaN	NaN	NaN	NaN	NaN	NaN	NaN	NaN	NaN	NaN	NaN
337.8397369000013	8.3716	sub-29	1	sequence	delay	dot	NaN	NaN	NaN	NaN	NaN	NaN	NaN	NaN	NaN	NaN	NaN	NaN
346.1918257000016	0.9722	sub-29	1	sequence	choice	choice	left	NaN	NaN	0.9390120999996724	True	NaN	NaN	left	True	5.0	4.0	5.0
347.16440520000106	0.4999	sub-29	1	sequence	feedback	NaN	NaN	NaN	NaN	NaN	NaN	NaN	NaN	NaN	NaN	NaN	NaN	NaN
347.66457620000074	1.0006	sub-29	1	sequence	cue	Gesicht	NaN	NaN	NaN	NaN	NaN	NaN	NaN	NaN	NaN	NaN	NaN	NaN
348.66519960000005	2.0015	sub-29	1	sequence	blank	blank	NaN	NaN	NaN	NaN	NaN	NaN	NaN	NaN	NaN	NaN	NaN	NaN
350.66667400000006	0.3003	sub-29	1	sequence	fixation	dot	NaN	NaN	NaN	NaN	NaN	NaN	NaN	NaN	NaN	NaN	NaN	NaN
350.98530910000045	0.115	sub-29	1	sequence	stimulus	Haus	NaN	NaN	64.0	NaN	NaN	2.0	1.0	NaN	NaN	NaN	NaN	NaN
351.10032370000044	0.0669	sub-29	1	sequence	interval	dot	NaN	NaN	NaN	NaN	NaN	NaN	NaN	NaN	NaN	NaN	NaN	NaN
351.16719340000054	0.1	sub-29	1	sequence	stimulus	Schuh	NaN	NaN	64.0	NaN	NaN	4.0	2.0	NaN	NaN	NaN	NaN	NaN
351.26716360000137	0.0668	sub-29	1	sequence	interval	dot	NaN	NaN	NaN	NaN	NaN	NaN	NaN	NaN	NaN	NaN	NaN	NaN
351.3339902000007	0.1	sub-29	1	sequence	stimulus	Katze	NaN	NaN	64.0	NaN	NaN	3.0	3.0	NaN	NaN	NaN	NaN	NaN
351.4339455999998	0.0668	sub-29	1	sequence	interval	dot	NaN	NaN	NaN	NaN	NaN	NaN	NaN	NaN	NaN	NaN	NaN	NaN
351.5007533000007	0.1	sub-29	1	sequence	stimulus	Stuhl	NaN	NaN	64.0	NaN	NaN	5.0	4.0	NaN	NaN	NaN	NaN	NaN
351.6007704000004	0.0668	sub-29	1	sequence	interval	dot	NaN	NaN	NaN	NaN	NaN	NaN	NaN	NaN	NaN	NaN	NaN	NaN
351.6676066	0.0999	sub-29	1	sequence	stimulus	Gesicht	NaN	NaN	64.0	NaN	NaN	1.0	5.0	NaN	NaN	NaN	NaN	NaN
351.7675507000004	0.0667	sub-29	1	sequence	interval	dot	NaN	NaN	NaN	NaN	NaN	NaN	NaN	NaN	NaN	NaN	NaN	NaN
351.8342730000004	8.3887	sub-29	1	sequence	delay	dot	NaN	NaN	NaN	NaN	NaN	NaN	NaN	NaN	NaN	NaN	NaN	NaN
360.20551070000147	1.12	sub-29	1	sequence	choice	choice	right	NaN	NaN	1.09540829999969	True	NaN	NaN	right	True	4.0	5.0	5.0
361.3258340000011	0.5	sub-29	1	sequence	feedback	NaN	NaN	NaN	NaN	NaN	NaN	NaN	NaN	NaN	NaN	NaN	NaN	NaN
361.82608230000005	1.0005	sub-29	1	sequence	cue	Katze	NaN	NaN	NaN	NaN	NaN	NaN	NaN	NaN	NaN	NaN	NaN	NaN
362.8265803000013	2.0015	sub-29	1	sequence	blank	blank	NaN	NaN	NaN	NaN	NaN	NaN	NaN	NaN	NaN	NaN	NaN	NaN
364.8280814999998	0.3003	sub-29	1	sequence	fixation	dot	NaN	NaN	NaN	NaN	NaN	NaN	NaN	NaN	NaN	NaN	NaN	NaN
365.1466849000008	0.1151	sub-29	1	sequence	stimulus	Schuh	NaN	NaN	128.0	NaN	NaN	4.0	1.0	NaN	NaN	NaN	NaN	NaN
365.26175560000047	0.1336	sub-29	1	sequence	interval	dot	NaN	NaN	NaN	NaN	NaN	NaN	NaN	NaN	NaN	NaN	NaN	NaN
365.3953170000004	0.1	sub-29	1	sequence	stimulus	Stuhl	NaN	NaN	128.0	NaN	NaN	5.0	2.0	NaN	NaN	NaN	NaN	NaN
365.49530940000113	0.1336	sub-29	1	sequence	interval	dot	NaN	NaN	NaN	NaN	NaN	NaN	NaN	NaN	NaN	NaN	NaN	NaN
365.62888530000055	0.0999	sub-29	1	sequence	stimulus	Haus	NaN	NaN	128.0	NaN	NaN	2.0	3.0	NaN	NaN	NaN	NaN	NaN
365.728794300001	0.1336	sub-29	1	sequence	interval	dot	NaN	NaN	NaN	NaN	NaN	NaN	NaN	NaN	NaN	NaN	NaN	NaN
365.8623757000005	0.0999	sub-29	1	sequence	stimulus	Katze	NaN	NaN	128.0	NaN	NaN	3.0	4.0	NaN	NaN	NaN	NaN	NaN
365.9623077000015	0.1336	sub-29	1	sequence	interval	dot	NaN	NaN	NaN	NaN	NaN	NaN	NaN	NaN	NaN	NaN	NaN	NaN
366.09590430000026	0.0999	sub-29	1	sequence	stimulus	Gesicht	NaN	NaN	128.0	NaN	NaN	1.0	5.0	NaN	NaN	NaN	NaN	NaN
366.195838900001	0.1334	sub-29	1	sequence	interval	dot	NaN	NaN	NaN	NaN	NaN	NaN	NaN	NaN	NaN	NaN	NaN	NaN
366.32928530000027	8.0715	sub-29	1	sequence	delay	dot	NaN	NaN	NaN	NaN	NaN	NaN	NaN	NaN	NaN	NaN	NaN	NaN
374.3751666000008	1.0784	sub-29	1	sequence	choice	choice	right	NaN	NaN	1.0375414999998611	True	NaN	NaN	right	True	2.0	4.0	4.0
375.4537836	0.5001	sub-29	1	sequence	feedback	NaN	NaN	NaN	NaN	NaN	NaN	NaN	NaN	NaN	NaN	NaN	NaN	NaN
375.9540410999998	1.0006	sub-29	1	sequence	cue	Haus	NaN	NaN	NaN	NaN	NaN	NaN	NaN	NaN	NaN	NaN	NaN	NaN
376.9546148999998	2.0017	sub-29	1	sequence	blank	blank	NaN	NaN	NaN	NaN	NaN	NaN	NaN	NaN	NaN	NaN	NaN	NaN
378.9562997000012	0.3003	sub-29	1	sequence	fixation	dot	NaN	NaN	NaN	NaN	NaN	NaN	NaN	NaN	NaN	NaN	NaN	NaN
379.27407440000025	0.0994	sub-29	1	sequence	stimulus	Gesicht	NaN	NaN	32.0	NaN	NaN	1.0	1.0	NaN	NaN	NaN	NaN	NaN
379.3734247000011	0.0336	sub-29	1	sequence	interval	dot	NaN	NaN	NaN	NaN	NaN	NaN	NaN	NaN	NaN	NaN	NaN	NaN
379.4070392000013	0.0997	sub-29	1	sequence	stimulus	Haus	NaN	NaN	32.0	NaN	NaN	2.0	2.0	NaN	NaN	NaN	NaN	NaN
379.5067489000012	0.0334	sub-29	1	sequence	interval	dot	NaN	NaN	NaN	NaN	NaN	NaN	NaN	NaN	NaN	NaN	NaN	NaN
379.5401622999998	0.1	sub-29	1	sequence	stimulus	Schuh	NaN	NaN	32.0	NaN	NaN	4.0	3.0	NaN	NaN	NaN	NaN	NaN
379.6401413000003	0.0336	sub-29	1	sequence	interval	dot	NaN	NaN	NaN	NaN	NaN	NaN	NaN	NaN	NaN	NaN	NaN	NaN
379.6737172000012	0.0999	sub-29	1	sequence	stimulus	Katze	NaN	NaN	32.0	NaN	NaN	3.0	4.0	NaN	NaN	NaN	NaN	NaN
379.7735958000012	0.0335	sub-29	1	sequence	interval	dot	NaN	NaN	NaN	NaN	NaN	NaN	NaN	NaN	NaN	NaN	NaN	NaN
379.8071144000005	0.0999	sub-29	1	sequence	stimulus	Stuhl	NaN	NaN	32.0	NaN	NaN	5.0	5.0	NaN	NaN	NaN	NaN	NaN
379.9070271000001	0.0333	sub-29	1	sequence	interval	dot	NaN	NaN	NaN	NaN	NaN	NaN	NaN	NaN	NaN	NaN	NaN	NaN
379.94037519999983	8.5218	sub-29	1	sequence	delay	dot	NaN	NaN	NaN	NaN	NaN	NaN	NaN	NaN	NaN	NaN	NaN	NaN
388.4408086000003	0.9074	sub-29	1	sequence	choice	choice	right	NaN	NaN	0.8721325000005891	True	NaN	NaN	right	True	3.0	2.0	2.0
389.3484536000015	0.5	sub-29	1	sequence	feedback	NaN	NaN	NaN	NaN	NaN	NaN	NaN	NaN	NaN	NaN	NaN	NaN	NaN
389.8486456999999	1.0005	sub-29	1	sequence	cue	Katze	NaN	NaN	NaN	NaN	NaN	NaN	NaN	NaN	NaN	NaN	NaN	NaN
390.8491840000006	2.0016	sub-29	1	sequence	blank	blank	NaN	NaN	NaN	NaN	NaN	NaN	NaN	NaN	NaN	NaN	NaN	NaN
392.85074780000105	0.3002	sub-29	1	sequence	fixation	dot	NaN	NaN	NaN	NaN	NaN	NaN	NaN	NaN	NaN	NaN	NaN	NaN
393.1687330000004	0.099	sub-29	1	sequence	stimulus	Gesicht	NaN	NaN	512.0	NaN	NaN	1.0	1.0	NaN	NaN	NaN	NaN	NaN
393.2677104000013	0.5172	sub-29	1	sequence	interval	dot	NaN	NaN	NaN	NaN	NaN	NaN	NaN	NaN	NaN	NaN	NaN	NaN
393.7849188	0.1	sub-29	1	sequence	stimulus	Stuhl	NaN	NaN	512.0	NaN	NaN	5.0	2.0	NaN	NaN	NaN	NaN	NaN
393.88489540000046	0.5172	sub-29	1	sequence	interval	dot	NaN	NaN	NaN	NaN	NaN	NaN	NaN	NaN	NaN	NaN	NaN	NaN
394.4021377000008	0.0999	sub-29	1	sequence	stimulus	Katze	NaN	NaN	512.0	NaN	NaN	3.0	3.0	NaN	NaN	NaN	NaN	NaN
394.5020390000009	0.5172	sub-29	1	sequence	interval	dot	NaN	NaN	NaN	NaN	NaN	NaN	NaN	NaN	NaN	NaN	NaN	NaN
395.0192611000002	0.0999	sub-29	1	sequence	stimulus	Haus	NaN	NaN	512.0	NaN	NaN	2.0	4.0	NaN	NaN	NaN	NaN	NaN
395.1192092000001	0.5218	sub-29	1	sequence	interval	dot	NaN	NaN	NaN	NaN	NaN	NaN	NaN	NaN	NaN	NaN	NaN	NaN
395.64104080000106	0.1121	sub-29	1	sequence	stimulus	Schuh	NaN	NaN	512.0	NaN	NaN	4.0	5.0	NaN	NaN	NaN	NaN	NaN
395.7531118000006	0.5171	sub-29	1	sequence	interval	dot	NaN	NaN	NaN	NaN	NaN	NaN	NaN	NaN	NaN	NaN	NaN	NaN
396.2701895999999	6.1534	sub-29	1	sequence	delay	dot	NaN	NaN	NaN	NaN	NaN	NaN	NaN	NaN	NaN	NaN	NaN	NaN
402.40264540000135	0.9401	sub-29	1	sequence	choice	choice	left	NaN	NaN	0.902691400000549	True	NaN	NaN	left	True	3.0	5.0	3.0
403.34299180000016	0.5	sub-29	1	sequence	feedback	NaN	NaN	NaN	NaN	NaN	NaN	NaN	NaN	NaN	NaN	NaN	NaN	NaN
403.8432620000003	1.0006	sub-29	1	sequence	cue	Haus	NaN	NaN	NaN	NaN	NaN	NaN	NaN	NaN	NaN	NaN	NaN	NaN
404.8438555000012	2.0015	sub-29	1	sequence	blank	blank	NaN	NaN	NaN	NaN	NaN	NaN	NaN	NaN	NaN	NaN	NaN	NaN
406.8453729000012	0.3003	sub-29	1	sequence	fixation	dot	NaN	NaN	NaN	NaN	NaN	NaN	NaN	NaN	NaN	NaN	NaN	NaN
407.1639715000001	0.1151	sub-29	1	sequence	stimulus	Gesicht	NaN	NaN	128.0	NaN	NaN	1.0	1.0	NaN	NaN	NaN	NaN	NaN
407.2790312000016	0.1335	sub-29	1	sequence	interval	dot	NaN	NaN	NaN	NaN	NaN	NaN	NaN	NaN	NaN	NaN	NaN	NaN
407.4125721	0.1	sub-29	1	sequence	stimulus	Stuhl	NaN	NaN	128.0	NaN	NaN	5.0	2.0	NaN	NaN	NaN	NaN	NaN
407.5125616000005	0.1335	sub-29	1	sequence	interval	dot	NaN	NaN	NaN	NaN	NaN	NaN	NaN	NaN	NaN	NaN	NaN	NaN
407.64611030000015	0.1	sub-29	1	sequence	stimulus	Schuh	NaN	NaN	128.0	NaN	NaN	4.0	3.0	NaN	NaN	NaN	NaN	NaN
407.74607730000025	0.1335	sub-29	1	sequence	interval	dot	NaN	NaN	NaN	NaN	NaN	NaN	NaN	NaN	NaN	NaN	NaN	NaN
407.8796253	0.0999	sub-29	1	sequence	stimulus	Haus	NaN	NaN	128.0	NaN	NaN	2.0	4.0	NaN	NaN	NaN	NaN	NaN
407.9795746	0.1336	sub-29	1	sequence	interval	dot	NaN	NaN	NaN	NaN	NaN	NaN	NaN	NaN	NaN	NaN	NaN	NaN
408.1131526999998	0.1	sub-29	1	sequence	stimulus	Katze	NaN	NaN	128.0	NaN	NaN	3.0	5.0	NaN	NaN	NaN	NaN	NaN
408.2131057000006	0.1336	sub-29	1	sequence	interval	dot	NaN	NaN	NaN	NaN	NaN	NaN	NaN	NaN	NaN	NaN	NaN	NaN
408.3466614000008	8.0546	sub-29	1	sequence	delay	dot	NaN	NaN	NaN	NaN	NaN	NaN	NaN	NaN	NaN	NaN	NaN	NaN
416.3901138000001	0.8972	sub-29	1	sequence	choice	choice	right	NaN	NaN	0.8849626000010176	False	NaN	NaN	left	True	4.0	3.0	4.0
417.2876054000008	0.5001	sub-29	1	sequence	feedback	NaN	NaN	NaN	NaN	NaN	NaN	NaN	NaN	NaN	NaN	NaN	NaN	NaN
417.7878982000002	1.0005	sub-29	1	sequence	cue	Stuhl	NaN	NaN	NaN	NaN	NaN	NaN	NaN	NaN	NaN	NaN	NaN	NaN
418.7884435000015	2.0017	sub-29	1	sequence	blank	blank	NaN	NaN	NaN	NaN	NaN	NaN	NaN	NaN	NaN	NaN	NaN	NaN
420.7901567000008	0.3002	sub-29	1	sequence	fixation	dot	NaN	NaN	NaN	NaN	NaN	NaN	NaN	NaN	NaN	NaN	NaN	NaN
421.1078643000001	0.0992	sub-29	1	sequence	stimulus	Haus	NaN	NaN	512.0	NaN	NaN	2.0	1.0	NaN	NaN	NaN	NaN	NaN
421.2070537	0.5172	sub-29	1	sequence	interval	dot	NaN	NaN	NaN	NaN	NaN	NaN	NaN	NaN	NaN	NaN	NaN	NaN
421.7242617000011	0.1	sub-29	1	sequence	stimulus	Schuh	NaN	NaN	512.0	NaN	NaN	4.0	2.0	NaN	NaN	NaN	NaN	NaN
421.8242541	0.5172	sub-29	1	sequence	interval	dot	NaN	NaN	NaN	NaN	NaN	NaN	NaN	NaN	NaN	NaN	NaN	NaN
422.341461	0.1146	sub-29	1	sequence	stimulus	Stuhl	NaN	NaN	512.0	NaN	NaN	5.0	3.0	NaN	NaN	NaN	NaN	NaN
422.4560712000002	0.5193	sub-29	1	sequence	interval	dot	NaN	NaN	NaN	NaN	NaN	NaN	NaN	NaN	NaN	NaN	NaN	NaN
422.9754035000005	0.1	sub-29	1	sequence	stimulus	Katze	NaN	NaN	512.0	NaN	NaN	3.0	4.0	NaN	NaN	NaN	NaN	NaN
423.0753569000008	0.5172	sub-29	1	sequence	interval	dot	NaN	NaN	NaN	NaN	NaN	NaN	NaN	NaN	NaN	NaN	NaN	NaN
423.5925507000011	0.0999	sub-29	1	sequence	stimulus	Gesicht	NaN	NaN	512.0	NaN	NaN	1.0	5.0	NaN	NaN	NaN	NaN	NaN
423.6924983000008	0.5169	sub-29	1	sequence	interval	dot	NaN	NaN	NaN	NaN	NaN	NaN	NaN	NaN	NaN	NaN	NaN	NaN
424.2093646000012	6.1367	sub-29	1	sequence	delay	dot	NaN	NaN	NaN	NaN	NaN	NaN	NaN	NaN	NaN	NaN	NaN	NaN
430.3258822000007	1.0062	sub-29	1	sequence	choice	choice	right	NaN	NaN	0.972223299999314	True	NaN	NaN	right	True	4.0	3.0	3.0
431.33231890000025	0.5	sub-29	1	sequence	feedback	NaN	NaN	NaN	NaN	NaN	NaN	NaN	NaN	NaN	NaN	NaN	NaN	NaN
431.83254940000006	1.0005	sub-29	1	sequence	cue	Katze	NaN	NaN	NaN	NaN	NaN	NaN	NaN	NaN	NaN	NaN	NaN	NaN
432.8330547000005	2.0017	sub-29	1	sequence	blank	blank	NaN	NaN	NaN	NaN	NaN	NaN	NaN	NaN	NaN	NaN	NaN	NaN
434.8347443000002	0.3002	sub-29	1	sequence	fixation	dot	NaN	NaN	NaN	NaN	NaN	NaN	NaN	NaN	NaN	NaN	NaN	NaN
435.1525167	0.0991	sub-29	1	sequence	stimulus	Stuhl	NaN	NaN	32.0	NaN	NaN	5.0	1.0	NaN	NaN	NaN	NaN	NaN
435.2515972000001	0.0336	sub-29	1	sequence	interval	dot	NaN	NaN	NaN	NaN	NaN	NaN	NaN	NaN	NaN	NaN	NaN	NaN
435.2851569000013	0.1	sub-29	1	sequence	stimulus	Haus	NaN	NaN	32.0	NaN	NaN	2.0	2.0	NaN	NaN	NaN	NaN	NaN
435.3851455000004	0.0334	sub-29	1	sequence	interval	dot	NaN	NaN	NaN	NaN	NaN	NaN	NaN	NaN	NaN	NaN	NaN	NaN
435.4185870000001	0.1	sub-29	1	sequence	stimulus	Gesicht	NaN	NaN	32.0	NaN	NaN	1.0	3.0	NaN	NaN	NaN	NaN	NaN
435.51857670000027	0.0335	sub-29	1	sequence	interval	dot	NaN	NaN	NaN	NaN	NaN	NaN	NaN	NaN	NaN	NaN	NaN	NaN
435.5520414000002	0.0999	sub-29	1	sequence	stimulus	Schuh	NaN	NaN	32.0	NaN	NaN	4.0	4.0	NaN	NaN	NaN	NaN	NaN
435.6519887000013	0.0335	sub-29	1	sequence	interval	dot	NaN	NaN	NaN	NaN	NaN	NaN	NaN	NaN	NaN	NaN	NaN	NaN
435.6854595000004	0.0999	sub-29	1	sequence	stimulus	Katze	NaN	NaN	32.0	NaN	NaN	3.0	5.0	NaN	NaN	NaN	NaN	NaN
435.7853972000012	0.0333	sub-29	1	sequence	interval	dot	NaN	NaN	NaN	NaN	NaN	NaN	NaN	NaN	NaN	NaN	NaN	NaN
435.8187444000014	8.5386	sub-29	1	sequence	delay	dot	NaN	NaN	NaN	NaN	NaN	NaN	NaN	NaN	NaN	NaN	NaN	NaN
444.3395295999999	0.9037	sub-29	1	sequence	choice	choice	right	NaN	NaN	0.8728135000001203	False	NaN	NaN	left	True	5.0	3.0	5.0
445.2434563000006	0.5001	sub-29	1	sequence	feedback	NaN	NaN	NaN	NaN	NaN	NaN	NaN	NaN	NaN	NaN	NaN	NaN	NaN
445.744069100001	7.9727	sub-29	1	other	break	break	NaN	NaN	NaN	NaN	NaN	NaN	NaN	NaN	NaN	NaN	NaN	NaN
457.53726670000106	0.4995	sub-29	1	localizer	stimulus	Haus	NaN	0	2.3684973000017635	NaN	True	NaN	NaN	NaN	NaN	NaN	NaN	NaN
458.0367514999998	2.3685	sub-29	1	localizer	blank	interval	NaN	NaN	NaN	NaN	NaN	NaN	NaN	NaN	NaN	NaN	NaN	NaN
460.7065078000014	0.4995	sub-29	1	localizer	stimulus	Katze	NaN	0	3.151730900000871	NaN	True	NaN	NaN	NaN	NaN	NaN	NaN	NaN
461.190267	3.1517	sub-29	1	localizer	blank	interval	NaN	NaN	NaN	NaN	NaN	NaN	NaN	NaN	NaN	NaN	NaN	NaN
464.64315820000047	0.4995	sub-29	1	localizer	stimulus	Gesicht	NaN	0	3.202164799999082	NaN	True	NaN	NaN	NaN	NaN	NaN	NaN	NaN
465.1261611000009	3.2022	sub-29	1	localizer	blank	interval	NaN	NaN	NaN	NaN	NaN	NaN	NaN	NaN	NaN	NaN	NaN	NaN
468.6295202000001	0.4994	sub-29	1	localizer	stimulus	Schuh	NaN	0	2.58528170000136	NaN	True	NaN	NaN	NaN	NaN	NaN	NaN	NaN
469.1124147999999	2.5853	sub-29	1	localizer	blank	interval	NaN	NaN	NaN	NaN	NaN	NaN	NaN	NaN	NaN	NaN	NaN	NaN
471.9988976000004	0.4994	sub-29	1	localizer	stimulus	Gesicht	NaN	180	2.101512999999727	0.5111192000003939	True	NaN	NaN	NaN	NaN	NaN	NaN	NaN
472.4818020000002	2.1015	sub-29	1	localizer	blank	interval	NaN	NaN	NaN	NaN	NaN	NaN	NaN	NaN	NaN	NaN	NaN	NaN
474.884594000001	0.4994	sub-29	1	localizer	stimulus	Gesicht	NaN	0	2.318402099999787	NaN	True	NaN	NaN	NaN	NaN	NaN	NaN	NaN
475.3674522000001	2.3184	sub-29	1	localizer	blank	interval	NaN	NaN	NaN	NaN	NaN	NaN	NaN	NaN	NaN	NaN	NaN	NaN
477.9884980000006	0.5147	sub-29	1	localizer	stimulus	Haus	NaN	180	1.9514094999994427	0.5215282999997726	True	NaN	NaN	NaN	NaN	NaN	NaN	NaN
478.4700065000016	1.9514	sub-29	1	localizer	blank	interval	NaN	NaN	NaN	NaN	NaN	NaN	NaN	NaN	NaN	NaN	NaN	NaN
480.7226158000012	0.4995	sub-29	1	localizer	stimulus	Gesicht	NaN	0	2.284675300001254	NaN	True	NaN	NaN	NaN	NaN	NaN	NaN	NaN
481.20602940000026	2.2847	sub-29	1	localizer	blank	interval	NaN	NaN	NaN	NaN	NaN	NaN	NaN	NaN	NaN	NaN	NaN	NaN
483.7918026000007	0.4995	sub-29	1	localizer	stimulus	Stuhl	NaN	0	2.9354552999993757	NaN	True	NaN	NaN	NaN	NaN	NaN	NaN	NaN
484.2747754000011	2.9355	sub-29	1	localizer	blank	interval	NaN	NaN	NaN	NaN	NaN	NaN	NaN	NaN	NaN	NaN	NaN	NaN
487.5114113	0.4994	sub-29	1	localizer	stimulus	Schuh	NaN	180	3.002304499999866	0.5425474000003305	True	NaN	NaN	NaN	NaN	NaN	NaN	NaN
487.99429670000063	3.0023	sub-29	1	localizer	blank	interval	NaN	NaN	NaN	NaN	NaN	NaN	NaN	NaN	NaN	NaN	NaN	NaN
491.2978085000013	0.4994	sub-29	1	localizer	stimulus	Schuh	NaN	0	3.052343600000256	NaN	True	NaN	NaN	NaN	NaN	NaN	NaN	NaN
491.7806992000005	3.0523	sub-29	1	localizer	blank	interval	NaN	NaN	NaN	NaN	NaN	NaN	NaN	NaN	NaN	NaN	NaN	NaN
495.1342435000006	0.4994	sub-29	1	localizer	stimulus	Stuhl	NaN	0	2.90222569999969	NaN	True	NaN	NaN	NaN	NaN	NaN	NaN	NaN
495.6171035000007	2.9022	sub-29	1	localizer	blank	interval	NaN	NaN	NaN	NaN	NaN	NaN	NaN	NaN	NaN	NaN	NaN	NaN
498.8205505000005	0.4995	sub-29	1	localizer	stimulus	Katze	NaN	180	2.5013741000002483	0.5214123000005202	True	NaN	NaN	NaN	NaN	NaN	NaN	NaN
499.30395540000063	2.5014	sub-29	1	localizer	blank	interval	NaN	NaN	NaN	NaN	NaN	NaN	NaN	NaN	NaN	NaN	NaN	NaN
502.1065586000004	0.4994	sub-29	1	localizer	stimulus	Schuh	NaN	0	2.8022595000002184	NaN	True	NaN	NaN	NaN	NaN	NaN	NaN	NaN
502.58949960000064	2.8023	sub-29	1	localizer	blank	interval	NaN	NaN	NaN	NaN	NaN	NaN	NaN	NaN	NaN	NaN	NaN	NaN
505.6928461000007	0.4975	sub-29	1	localizer	stimulus	Katze	NaN	0	2.8040895000012824	NaN	True	NaN	NaN	NaN	NaN	NaN	NaN	NaN
506.1903474999999	2.8041	sub-29	1	localizer	blank	interval	NaN	NaN	NaN	NaN	NaN	NaN	NaN	NaN	NaN	NaN	NaN	NaN
509.2956871000006	0.4994	sub-29	1	localizer	stimulus	Katze	NaN	0	1.9848157000015476	NaN	True	NaN	NaN	NaN	NaN	NaN	NaN	NaN
509.7785408	1.9848	sub-29	1	localizer	blank	interval	NaN	NaN	NaN	NaN	NaN	NaN	NaN	NaN	NaN	NaN	NaN	NaN
512.0645537	0.4994	sub-29	1	localizer	stimulus	Stuhl	NaN	0	2.835487500000454	NaN	True	NaN	NaN	NaN	NaN	NaN	NaN	NaN
512.547431500001	2.8355	sub-29	1	localizer	blank	interval	NaN	NaN	NaN	NaN	NaN	NaN	NaN	NaN	NaN	NaN	NaN	NaN
515.6842092000006	0.4994	sub-29	1	localizer	stimulus	Gesicht	NaN	0	2.635366200000135	NaN	True	NaN	NaN	NaN	NaN	NaN	NaN	NaN
516.1670178000004	2.6354	sub-29	1	localizer	blank	interval	NaN	NaN	NaN	NaN	NaN	NaN	NaN	NaN	NaN	NaN	NaN	NaN
519.1036745000001	0.4993	sub-29	1	localizer	stimulus	Katze	NaN	0	2.435175300000992	NaN	True	NaN	NaN	NaN	NaN	NaN	NaN	NaN
519.5864748000004	2.4352	sub-29	1	localizer	blank	interval	NaN	NaN	NaN	NaN	NaN	NaN	NaN	NaN	NaN	NaN	NaN	NaN
522.3229029000013	0.4994	sub-29	1	localizer	stimulus	Haus	NaN	0	2.535348299999896	NaN	True	NaN	NaN	NaN	NaN	NaN	NaN	NaN
522.8057371000014	2.5353	sub-29	1	localizer	blank	interval	NaN	NaN	NaN	NaN	NaN	NaN	NaN	NaN	NaN	NaN	NaN	NaN
525.6422680000014	0.4995	sub-29	1	localizer	stimulus	Haus	NaN	0	2.151619700000083	NaN	True	NaN	NaN	NaN	NaN	NaN	NaN	NaN
526.1253723999998	2.1516	sub-29	1	localizer	blank	interval	NaN	NaN	NaN	NaN	NaN	NaN	NaN	NaN	NaN	NaN	NaN	NaN
528.578113900001	0.4992	sub-29	1	localizer	stimulus	Schuh	NaN	0	2.4353317999994033	NaN	True	NaN	NaN	NaN	NaN	NaN	NaN	NaN
529.0607914000011	2.4353	sub-29	1	localizer	blank	interval	NaN	NaN	NaN	NaN	NaN	NaN	NaN	NaN	NaN	NaN	NaN	NaN
531.7971995000007	0.4995	sub-29	1	localizer	stimulus	Haus	NaN	0	1.7679964999988442	NaN	True	NaN	NaN	NaN	NaN	NaN	NaN	NaN
532.2801439000013	1.768	sub-29	1	localizer	blank	interval	NaN	NaN	NaN	NaN	NaN	NaN	NaN	NaN	NaN	NaN	NaN	NaN
534.3492247000013	0.4994	sub-29	1	localizer	stimulus	Stuhl	NaN	180	2.6352377999992314	0.616835999999239	True	NaN	NaN	NaN	NaN	NaN	NaN	NaN
534.8322400000015	2.6352	sub-29	1	localizer	blank	interval	NaN	NaN	NaN	NaN	NaN	NaN	NaN	NaN	NaN	NaN	NaN	NaN
537.7686858000015	0.4995	sub-29	1	localizer	stimulus	Stuhl	NaN	0	3.9696555999998964	NaN	True	NaN	NaN	NaN	NaN	NaN	NaN	NaN
538.2515995000012	3.9697	sub-29	1	localizer	blank	interval	NaN	NaN	NaN	NaN	NaN	NaN	NaN	NaN	NaN	NaN	NaN	NaN
545.7079313000013	1.0005	sub-29	1	sequence	cue	Haus	NaN	NaN	NaN	NaN	NaN	NaN	NaN	NaN	NaN	NaN	NaN	NaN
546.7084178000005	2.0018	sub-29	1	sequence	blank	blank	NaN	NaN	NaN	NaN	NaN	NaN	NaN	NaN	NaN	NaN	NaN	NaN
548.7102555000001	0.3002	sub-29	1	sequence	fixation	dot	NaN	NaN	NaN	NaN	NaN	NaN	NaN	NaN	NaN	NaN	NaN	NaN
549.0287051000014	0.1152	sub-29	1	sequence	stimulus	Gesicht	NaN	NaN	512.0	NaN	NaN	1.0	1.0	NaN	NaN	NaN	NaN	NaN
549.1438698000002	0.517	sub-29	1	sequence	interval	dot	NaN	NaN	NaN	NaN	NaN	NaN	NaN	NaN	NaN	NaN	NaN	NaN
549.6609048000009	0.0998	sub-29	1	sequence	stimulus	Stuhl	NaN	NaN	512.0	NaN	NaN	5.0	2.0	NaN	NaN	NaN	NaN	NaN
549.7607290000014	0.5173	sub-29	1	sequence	interval	dot	NaN	NaN	NaN	NaN	NaN	NaN	NaN	NaN	NaN	NaN	NaN	NaN
550.2780201000005	0.0999	sub-29	1	sequence	stimulus	Katze	NaN	NaN	512.0	NaN	NaN	3.0	3.0	NaN	NaN	NaN	NaN	NaN
550.3778705000004	0.5173	sub-29	1	sequence	interval	dot	NaN	NaN	NaN	NaN	NaN	NaN	NaN	NaN	NaN	NaN	NaN	NaN
550.8952088000005	0.1	sub-29	1	sequence	stimulus	Haus	NaN	NaN	512.0	NaN	NaN	2.0	4.0	NaN	NaN	NaN	NaN	NaN
550.9951809000013	0.5172	sub-29	1	sequence	interval	dot	NaN	NaN	NaN	NaN	NaN	NaN	NaN	NaN	NaN	NaN	NaN	NaN
551.5123461000003	0.0999	sub-29	1	sequence	stimulus	Schuh	NaN	NaN	512.0	NaN	NaN	4.0	5.0	NaN	NaN	NaN	NaN	NaN
551.6122028000009	0.5171	sub-29	1	sequence	interval	dot	NaN	NaN	NaN	NaN	NaN	NaN	NaN	NaN	NaN	NaN	NaN	NaN
552.1292687000005	6.1533	sub-29	1	sequence	delay	dot	NaN	NaN	NaN	NaN	NaN	NaN	NaN	NaN	NaN	NaN	NaN	NaN
558.2688438000005	1.984	sub-29	1	sequence	choice	choice	right	NaN	NaN	1.9633704000007128	True	NaN	NaN	right	True	3.0	4.0	4.0
560.2531753000003	0.4999	sub-29	1	sequence	feedback	NaN	NaN	NaN	NaN	NaN	NaN	NaN	NaN	NaN	NaN	NaN	NaN	NaN
560.7532370000008	1.0007	sub-29	1	sequence	cue	Schuh	NaN	NaN	NaN	NaN	NaN	NaN	NaN	NaN	NaN	NaN	NaN	NaN
561.7539191000014	2.0016	sub-29	1	sequence	blank	blank	NaN	NaN	NaN	NaN	NaN	NaN	NaN	NaN	NaN	NaN	NaN	NaN
563.7554926000012	0.3001	sub-29	1	sequence	fixation	dot	NaN	NaN	NaN	NaN	NaN	NaN	NaN	NaN	NaN	NaN	NaN	NaN
564.0739272999999	0.1151	sub-29	1	sequence	stimulus	Stuhl	NaN	NaN	32.0	NaN	NaN	5.0	1.0	NaN	NaN	NaN	NaN	NaN
564.1890170000006	0.0335	sub-29	1	sequence	interval	dot	NaN	NaN	NaN	NaN	NaN	NaN	NaN	NaN	NaN	NaN	NaN	NaN
564.2225341000012	0.0999	sub-29	1	sequence	stimulus	Haus	NaN	NaN	32.0	NaN	NaN	2.0	2.0	NaN	NaN	NaN	NaN	NaN
564.3224538000013	0.0335	sub-29	1	sequence	interval	dot	NaN	NaN	NaN	NaN	NaN	NaN	NaN	NaN	NaN	NaN	NaN	NaN
564.3559627000013	0.0999	sub-29	1	sequence	stimulus	Gesicht	NaN	NaN	32.0	NaN	NaN	1.0	3.0	NaN	NaN	NaN	NaN	NaN
564.4559078000002	0.0335	sub-29	1	sequence	interval	dot	NaN	NaN	NaN	NaN	NaN	NaN	NaN	NaN	NaN	NaN	NaN	NaN
564.4893820000016	0.1	sub-29	1	sequence	stimulus	Schuh	NaN	NaN	32.0	NaN	NaN	4.0	4.0	NaN	NaN	NaN	NaN	NaN
564.5893433000001	0.0335	sub-29	1	sequence	interval	dot	NaN	NaN	NaN	NaN	NaN	NaN	NaN	NaN	NaN	NaN	NaN	NaN
564.6228072000013	0.1	sub-29	1	sequence	stimulus	Katze	NaN	NaN	32.0	NaN	NaN	3.0	5.0	NaN	NaN	NaN	NaN	NaN
564.7227944000006	0.0334	sub-29	1	sequence	interval	dot	NaN	NaN	NaN	NaN	NaN	NaN	NaN	NaN	NaN	NaN	NaN	NaN
564.7561669000006	8.5385	sub-29	1	sequence	delay	dot	NaN	NaN	NaN	NaN	NaN	NaN	NaN	NaN	NaN	NaN	NaN	NaN
573.2705456000003	1.0269	sub-29	1	sequence	choice	choice	left	NaN	NaN	0.9912480000002688	True	NaN	NaN	left	True	4.0	5.0	4.0
574.2976755	0.5	sub-29	1	sequence	feedback	NaN	NaN	NaN	NaN	NaN	NaN	NaN	NaN	NaN	NaN	NaN	NaN	NaN
574.7977652000009	1.0008	sub-29	1	sequence	cue	Stuhl	NaN	NaN	NaN	NaN	NaN	NaN	NaN	NaN	NaN	NaN	NaN	NaN
575.7985366000012	2.0016	sub-29	1	sequence	blank	blank	NaN	NaN	NaN	NaN	NaN	NaN	NaN	NaN	NaN	NaN	NaN	NaN
577.8001579000011	0.3001	sub-29	1	sequence	fixation	dot	NaN	NaN	NaN	NaN	NaN	NaN	NaN	NaN	NaN	NaN	NaN	NaN
578.1178884000001	0.0991	sub-29	1	sequence	stimulus	Gesicht	NaN	NaN	32.0	NaN	NaN	1.0	1.0	NaN	NaN	NaN	NaN	NaN
578.2170268999998	0.0335	sub-29	1	sequence	interval	dot	NaN	NaN	NaN	NaN	NaN	NaN	NaN	NaN	NaN	NaN	NaN	NaN
578.2505664	0.0999	sub-29	1	sequence	stimulus	Haus	NaN	NaN	32.0	NaN	NaN	2.0	2.0	NaN	NaN	NaN	NaN	NaN
578.3504573000009	0.0335	sub-29	1	sequence	interval	dot	NaN	NaN	NaN	NaN	NaN	NaN	NaN	NaN	NaN	NaN	NaN	NaN
578.3839361999999	0.1	sub-29	1	sequence	stimulus	Schuh	NaN	NaN	32.0	NaN	NaN	4.0	3.0	NaN	NaN	NaN	NaN	NaN
578.4839042000003	0.0335	sub-29	1	sequence	interval	dot	NaN	NaN	NaN	NaN	NaN	NaN	NaN	NaN	NaN	NaN	NaN	NaN
578.5173615000003	0.1	sub-29	1	sequence	stimulus	Katze	NaN	NaN	32.0	NaN	NaN	3.0	4.0	NaN	NaN	NaN	NaN	NaN
578.6173167000015	0.0335	sub-29	1	sequence	interval	dot	NaN	NaN	NaN	NaN	NaN	NaN	NaN	NaN	NaN	NaN	NaN	NaN
578.6508085000005	0.1	sub-29	1	sequence	stimulus	Stuhl	NaN	NaN	32.0	NaN	NaN	5.0	5.0	NaN	NaN	NaN	NaN	NaN
578.7507733000002	0.0334	sub-29	1	sequence	interval	dot	NaN	NaN	NaN	NaN	NaN	NaN	NaN	NaN	NaN	NaN	NaN	NaN
578.7841346000005	8.5552	sub-29	1	sequence	delay	dot	NaN	NaN	NaN	NaN	NaN	NaN	NaN	NaN	NaN	NaN	NaN	NaN
587.3104387000003	1.3488	sub-29	1	sequence	choice	choice	right	NaN	NaN	1.3065298000001349	False	NaN	NaN	left	True	5.0	4.0	5.0
588.6594550000009	0.5	sub-29	1	sequence	feedback	NaN	NaN	NaN	NaN	NaN	NaN	NaN	NaN	NaN	NaN	NaN	NaN	NaN
589.1596468000007	1.0006	sub-29	1	sequence	cue	Katze	NaN	NaN	NaN	NaN	NaN	NaN	NaN	NaN	NaN	NaN	NaN	NaN
590.1602164000014	2.0014	sub-29	1	sequence	blank	blank	NaN	NaN	NaN	NaN	NaN	NaN	NaN	NaN	NaN	NaN	NaN	NaN
592.1616184000013	0.3004	sub-29	1	sequence	fixation	dot	NaN	NaN	NaN	NaN	NaN	NaN	NaN	NaN	NaN	NaN	NaN	NaN
592.4803900000006	0.1149	sub-29	1	sequence	stimulus	Gesicht	NaN	NaN	128.0	NaN	NaN	1.0	1.0	NaN	NaN	NaN	NaN	NaN
592.5952842000006	0.1336	sub-29	1	sequence	interval	dot	NaN	NaN	NaN	NaN	NaN	NaN	NaN	NaN	NaN	NaN	NaN	NaN
592.7288401000005	0.1	sub-29	1	sequence	stimulus	Stuhl	NaN	NaN	128.0	NaN	NaN	5.0	2.0	NaN	NaN	NaN	NaN	NaN
592.8287983999999	0.1336	sub-29	1	sequence	interval	dot	NaN	NaN	NaN	NaN	NaN	NaN	NaN	NaN	NaN	NaN	NaN	NaN
592.9623563000005	0.1	sub-29	1	sequence	stimulus	Schuh	NaN	NaN	128.0	NaN	NaN	4.0	3.0	NaN	NaN	NaN	NaN	NaN
593.0623097000007	0.1336	sub-29	1	sequence	interval	dot	NaN	NaN	NaN	NaN	NaN	NaN	NaN	NaN	NaN	NaN	NaN	NaN
593.1959154000015	0.0999	sub-29	1	sequence	stimulus	Haus	NaN	NaN	128.0	NaN	NaN	2.0	4.0	NaN	NaN	NaN	NaN	NaN
593.2958490000001	0.1336	sub-29	1	sequence	interval	dot	NaN	NaN	NaN	NaN	NaN	NaN	NaN	NaN	NaN	NaN	NaN	NaN
593.4294192000016	0.0999	sub-29	1	sequence	stimulus	Katze	NaN	NaN	128.0	NaN	NaN	3.0	5.0	NaN	NaN	NaN	NaN	NaN
593.5293563000014	0.1335	sub-29	1	sequence	interval	dot	NaN	NaN	NaN	NaN	NaN	NaN	NaN	NaN	NaN	NaN	NaN	NaN
593.6628264999999	8.0882	sub-29	1	sequence	delay	dot	NaN	NaN	NaN	NaN	NaN	NaN	NaN	NaN	NaN	NaN	NaN	NaN
601.7143590000014	1.223	sub-29	1	sequence	choice	choice	right	NaN	NaN	1.1747949999989942	True	NaN	NaN	right	True	2.0	5.0	5.0
602.9375789000005	0.5001	sub-29	1	sequence	feedback	NaN	NaN	NaN	NaN	NaN	NaN	NaN	NaN	NaN	NaN	NaN	NaN	NaN
603.4378560000005	1.0004	sub-29	1	sequence	cue	Gesicht	NaN	NaN	NaN	NaN	NaN	NaN	NaN	NaN	NaN	NaN	NaN	NaN
604.4382462000012	2.0016	sub-29	1	sequence	blank	blank	NaN	NaN	NaN	NaN	NaN	NaN	NaN	NaN	NaN	NaN	NaN	NaN
606.4398070000007	0.3003	sub-29	1	sequence	fixation	dot	NaN	NaN	NaN	NaN	NaN	NaN	NaN	NaN	NaN	NaN	NaN	NaN
606.7585393999998	0.115	sub-29	1	sequence	stimulus	Haus	NaN	NaN	64.0	NaN	NaN	2.0	1.0	NaN	NaN	NaN	NaN	NaN
606.8735448000007	0.0669	sub-29	1	sequence	interval	dot	NaN	NaN	NaN	NaN	NaN	NaN	NaN	NaN	NaN	NaN	NaN	NaN
606.9404633000013	0.0999	sub-29	1	sequence	stimulus	Schuh	NaN	NaN	64.0	NaN	NaN	4.0	2.0	NaN	NaN	NaN	NaN	NaN
607.0403423000007	0.0668	sub-29	1	sequence	interval	dot	NaN	NaN	NaN	NaN	NaN	NaN	NaN	NaN	NaN	NaN	NaN	NaN
607.1071210999999	0.1	sub-29	1	sequence	stimulus	Katze	NaN	NaN	64.0	NaN	NaN	3.0	3.0	NaN	NaN	NaN	NaN	NaN
607.2070801000009	0.0668	sub-29	1	sequence	interval	dot	NaN	NaN	NaN	NaN	NaN	NaN	NaN	NaN	NaN	NaN	NaN	NaN
607.2739117000001	0.1	sub-29	1	sequence	stimulus	Stuhl	NaN	NaN	64.0	NaN	NaN	5.0	4.0	NaN	NaN	NaN	NaN	NaN
607.3738752000008	0.0669	sub-29	1	sequence	interval	dot	NaN	NaN	NaN	NaN	NaN	NaN	NaN	NaN	NaN	NaN	NaN	NaN
607.4407305000004	0.1	sub-29	1	sequence	stimulus	Gesicht	NaN	NaN	64.0	NaN	NaN	1.0	5.0	NaN	NaN	NaN	NaN	NaN
607.5406899000009	0.0667	sub-29	1	sequence	interval	dot	NaN	NaN	NaN	NaN	NaN	NaN	NaN	NaN	NaN	NaN	NaN	NaN
607.6073957000008	8.3717	sub-29	1	sequence	delay	dot	NaN	NaN	NaN	NaN	NaN	NaN	NaN	NaN	NaN	NaN	NaN	NaN
615.9615826000008	1.1371	sub-29	1	sequence	choice	choice	left	NaN	NaN	1.114661999999953	True	NaN	NaN	left	True	5.0	4.0	5.0
617.0989082000015	0.5	sub-29	1	sequence	feedback	NaN	NaN	NaN	NaN	NaN	NaN	NaN	NaN	NaN	NaN	NaN	NaN	NaN
617.599166	1.0006	sub-29	1	sequence	cue	Schuh	NaN	NaN	NaN	NaN	NaN	NaN	NaN	NaN	NaN	NaN	NaN	NaN
618.5998071000013	2.0016	sub-29	1	sequence	blank	blank	NaN	NaN	NaN	NaN	NaN	NaN	NaN	NaN	NaN	NaN	NaN	NaN
620.6013799000011	0.3002	sub-29	1	sequence	fixation	dot	NaN	NaN	NaN	NaN	NaN	NaN	NaN	NaN	NaN	NaN	NaN	NaN
620.9191304000014	0.0991	sub-29	1	sequence	stimulus	Schuh	NaN	NaN	128.0	NaN	NaN	4.0	1.0	NaN	NaN	NaN	NaN	NaN
621.0182566000003	0.1336	sub-29	1	sequence	interval	dot	NaN	NaN	NaN	NaN	NaN	NaN	NaN	NaN	NaN	NaN	NaN	NaN
621.151811400001	0.1	sub-29	1	sequence	stimulus	Stuhl	NaN	NaN	128.0	NaN	NaN	5.0	2.0	NaN	NaN	NaN	NaN	NaN
621.2517667000011	0.1336	sub-29	1	sequence	interval	dot	NaN	NaN	NaN	NaN	NaN	NaN	NaN	NaN	NaN	NaN	NaN	NaN
621.3853654000013	0.0999	sub-29	1	sequence	stimulus	Haus	NaN	NaN	128.0	NaN	NaN	2.0	3.0	NaN	NaN	NaN	NaN	NaN
621.4852926000003	0.1336	sub-29	1	sequence	interval	dot	NaN	NaN	NaN	NaN	NaN	NaN	NaN	NaN	NaN	NaN	NaN	NaN
621.6188739000008	0.0999	sub-29	1	sequence	stimulus	Katze	NaN	NaN	128.0	NaN	NaN	3.0	4.0	NaN	NaN	NaN	NaN	NaN
621.7188221000015	0.1335	sub-29	1	sequence	interval	dot	NaN	NaN	NaN	NaN	NaN	NaN	NaN	NaN	NaN	NaN	NaN	NaN
621.8523685	0.1	sub-29	1	sequence	stimulus	Gesicht	NaN	NaN	128.0	NaN	NaN	1.0	5.0	NaN	NaN	NaN	NaN	NaN
621.9523389000005	0.1334	sub-29	1	sequence	interval	dot	NaN	NaN	NaN	NaN	NaN	NaN	NaN	NaN	NaN	NaN	NaN	NaN
622.0857876000009	8.0715	sub-29	1	sequence	delay	dot	NaN	NaN	NaN	NaN	NaN	NaN	NaN	NaN	NaN	NaN	NaN	NaN
630.1313461000009	0.8623	sub-29	1	sequence	choice	choice	right	NaN	NaN	0.8331103999989864	True	NaN	NaN	right	True	5.0	1.0	1.0
630.9938613000013	0.4997	sub-29	1	sequence	feedback	NaN	NaN	NaN	NaN	NaN	NaN	NaN	NaN	NaN	NaN	NaN	NaN	NaN
631.4937891000009	1.0007	sub-29	1	sequence	cue	Katze	NaN	NaN	NaN	NaN	NaN	NaN	NaN	NaN	NaN	NaN	NaN	NaN
632.4944512000002	2.0015	sub-29	1	sequence	blank	blank	NaN	NaN	NaN	NaN	NaN	NaN	NaN	NaN	NaN	NaN	NaN	NaN
634.4959415000012	0.3002	sub-29	1	sequence	fixation	dot	NaN	NaN	NaN	NaN	NaN	NaN	NaN	NaN	NaN	NaN	NaN	NaN
634.8138403000012	0.0989	sub-29	1	sequence	stimulus	Haus	NaN	NaN	512.0	NaN	NaN	2.0	1.0	NaN	NaN	NaN	NaN	NaN
634.9127775000015	0.5172	sub-29	1	sequence	interval	dot	NaN	NaN	NaN	NaN	NaN	NaN	NaN	NaN	NaN	NaN	NaN	NaN
635.4300023000014	0.1	sub-29	1	sequence	stimulus	Schuh	NaN	NaN	512.0	NaN	NaN	4.0	2.0	NaN	NaN	NaN	NaN	NaN
635.5299703000001	0.5172	sub-29	1	sequence	interval	dot	NaN	NaN	NaN	NaN	NaN	NaN	NaN	NaN	NaN	NaN	NaN	NaN
636.0472101000014	0.1	sub-29	1	sequence	stimulus	Stuhl	NaN	NaN	512.0	NaN	NaN	5.0	3.0	NaN	NaN	NaN	NaN	NaN
636.1472318000015	0.5172	sub-29	1	sequence	interval	dot	NaN	NaN	NaN	NaN	NaN	NaN	NaN	NaN	NaN	NaN	NaN	NaN
636.6644661999999	0.0999	sub-29	1	sequence	stimulus	Katze	NaN	NaN	512.0	NaN	NaN	3.0	4.0	NaN	NaN	NaN	NaN	NaN
636.7643211000013	0.5173	sub-29	1	sequence	interval	dot	NaN	NaN	NaN	NaN	NaN	NaN	NaN	NaN	NaN	NaN	NaN	NaN
637.2816088	0.0998	sub-29	1	sequence	stimulus	Gesicht	NaN	NaN	512.0	NaN	NaN	1.0	5.0	NaN	NaN	NaN	NaN	NaN
637.3814339	0.5172	sub-29	1	sequence	interval	dot	NaN	NaN	NaN	NaN	NaN	NaN	NaN	NaN	NaN	NaN	NaN	NaN
637.8986087000012	6.1363	sub-29	1	sequence	delay	dot	NaN	NaN	NaN	NaN	NaN	NaN	NaN	NaN	NaN	NaN	NaN	NaN
644.0149997000008	0.9562	sub-29	1	sequence	choice	choice	right	NaN	NaN	0.930846900000688	True	NaN	NaN	right	True	5.0	4.0	4.0
644.9714604000001	0.5	sub-29	1	sequence	feedback	NaN	NaN	NaN	NaN	NaN	NaN	NaN	NaN	NaN	NaN	NaN	NaN	NaN
645.4716513000003	1.0005	sub-29	1	sequence	cue	Haus	NaN	NaN	NaN	NaN	NaN	NaN	NaN	NaN	NaN	NaN	NaN	NaN
646.4722074000001	2.0016	sub-29	1	sequence	blank	blank	NaN	NaN	NaN	NaN	NaN	NaN	NaN	NaN	NaN	NaN	NaN	NaN
648.4737917000002	0.3002	sub-29	1	sequence	fixation	dot	NaN	NaN	NaN	NaN	NaN	NaN	NaN	NaN	NaN	NaN	NaN	NaN
648.7924834000005	0.1149	sub-29	1	sequence	stimulus	Schuh	NaN	NaN	64.0	NaN	NaN	4.0	1.0	NaN	NaN	NaN	NaN	NaN
648.907397500001	0.0669	sub-29	1	sequence	interval	dot	NaN	NaN	NaN	NaN	NaN	NaN	NaN	NaN	NaN	NaN	NaN	NaN
648.9742835000015	0.1	sub-29	1	sequence	stimulus	Stuhl	NaN	NaN	64.0	NaN	NaN	5.0	2.0	NaN	NaN	NaN	NaN	NaN
649.0742374000001	0.0668	sub-29	1	sequence	interval	dot	NaN	NaN	NaN	NaN	NaN	NaN	NaN	NaN	NaN	NaN	NaN	NaN
649.1410552000016	0.1	sub-29	1	sequence	stimulus	Gesicht	NaN	NaN	64.0	NaN	NaN	1.0	3.0	NaN	NaN	NaN	NaN	NaN
649.241030000001	0.0669	sub-29	1	sequence	interval	dot	NaN	NaN	NaN	NaN	NaN	NaN	NaN	NaN	NaN	NaN	NaN	NaN
649.3078897000014	0.0999	sub-29	1	sequence	stimulus	Katze	NaN	NaN	64.0	NaN	NaN	3.0	4.0	NaN	NaN	NaN	NaN	NaN
649.4078137000015	0.0669	sub-29	1	sequence	interval	dot	NaN	NaN	NaN	NaN	NaN	NaN	NaN	NaN	NaN	NaN	NaN	NaN
649.4746910000013	0.1	sub-29	1	sequence	stimulus	Haus	NaN	NaN	64.0	NaN	NaN	2.0	5.0	NaN	NaN	NaN	NaN	NaN
649.5746436999998	0.0667	sub-29	1	sequence	interval	dot	NaN	NaN	NaN	NaN	NaN	NaN	NaN	NaN	NaN	NaN	NaN	NaN
649.6413785000004	8.3718	sub-29	1	sequence	delay	dot	NaN	NaN	NaN	NaN	NaN	NaN	NaN	NaN	NaN	NaN	NaN	NaN
658.0025998000001	0.8632	sub-29	1	sequence	choice	choice	left	NaN	NaN	0.8485930000006192	True	NaN	NaN	left	True	5.0	2.0	5.0
658.8660231000013	0.4999	sub-29	1	sequence	feedback	NaN	NaN	NaN	NaN	NaN	NaN	NaN	NaN	NaN	NaN	NaN	NaN	NaN
663.1866373000012	0.4995	sub-29	1	localizer	stimulus	Haus	NaN	180	2.6854102999986935	0.9310869999990246	True	NaN	NaN	NaN	NaN	NaN	NaN	NaN
663.6695262000012	2.6854	sub-29	1	localizer	blank	interval	NaN	NaN	NaN	NaN	NaN	NaN	NaN	NaN	NaN	NaN	NaN	NaN
666.6561003000006	0.4994	sub-29	1	localizer	stimulus	Haus	NaN	0	2.5851715999997396	NaN	True	NaN	NaN	NaN	NaN	NaN	NaN	NaN
667.1390566000009	2.5852	sub-29	1	localizer	blank	interval	NaN	NaN	NaN	NaN	NaN	NaN	NaN	NaN	NaN	NaN	NaN	NaN
670.0254624999998	0.4994	sub-29	1	localizer	stimulus	Schuh	NaN	180	2.9192028999987087	0.540166799999497	True	NaN	NaN	NaN	NaN	NaN	NaN	NaN
670.5083069000011	2.9192	sub-29	1	localizer	blank	interval	NaN	NaN	NaN	NaN	NaN	NaN	NaN	NaN	NaN	NaN	NaN	NaN
673.7458872000007	0.499	sub-29	1	localizer	stimulus	Schuh	NaN	0	2.618587499999194	NaN	True	NaN	NaN	NaN	NaN	NaN	NaN	NaN
674.2114921000011	2.6186	sub-29	1	localizer	blank	interval	NaN	NaN	NaN	NaN	NaN	NaN	NaN	NaN	NaN	NaN	NaN	NaN
677.1311944000008	0.4994	sub-29	1	localizer	stimulus	Katze	NaN	0	2.0849042999998346	NaN	True	NaN	NaN	NaN	NaN	NaN	NaN	NaN
677.6141339000005	2.0849	sub-29	1	localizer	blank	interval	NaN	NaN	NaN	NaN	NaN	NaN	NaN	NaN	NaN	NaN	NaN	NaN
680.0001521000013	0.4994	sub-29	1	localizer	stimulus	Katze	NaN	180	2.318297199999506	0.5894305000001623	True	NaN	NaN	NaN	NaN	NaN	NaN	NaN
680.4831852000007	2.3183	sub-29	1	localizer	blank	interval	NaN	NaN	NaN	NaN	NaN	NaN	NaN	NaN	NaN	NaN	NaN	NaN
683.1027008000001	0.4994	sub-29	1	localizer	stimulus	Haus	NaN	0	2.134910700000546	NaN	True	NaN	NaN	NaN	NaN	NaN	NaN	NaN
683.5855759000005	2.1349	sub-29	1	localizer	blank	interval	NaN	NaN	NaN	NaN	NaN	NaN	NaN	NaN	NaN	NaN	NaN	NaN
686.0217071000006	0.4994	sub-29	1	localizer	stimulus	Stuhl	NaN	0	2.952268400000321	NaN	True	NaN	NaN	NaN	NaN	NaN	NaN	NaN
686.5045351000008	2.9523	sub-29	1	localizer	blank	interval	NaN	NaN	NaN	NaN	NaN	NaN	NaN	NaN	NaN	NaN	NaN	NaN
689.7580118000005	0.4996	sub-29	1	localizer	stimulus	Katze	NaN	0	2.7523433999995177	NaN	True	NaN	NaN	NaN	NaN	NaN	NaN	NaN
690.2409058000012	2.7523	sub-29	1	localizer	blank	interval	NaN	NaN	NaN	NaN	NaN	NaN	NaN	NaN	NaN	NaN	NaN	NaN
693.2942610000009	0.4996	sub-29	1	localizer	stimulus	Gesicht	NaN	0	2.5365953000000445	0.5593214999989868	False	NaN	NaN	NaN	NaN	NaN	NaN	NaN
693.7773038000014	2.5366	sub-29	1	localizer	blank	interval	NaN	NaN	NaN	NaN	NaN	NaN	NaN	NaN	NaN	NaN	NaN	NaN
696.630268500001	0.4995	sub-29	1	localizer	stimulus	Haus	NaN	0	2.6185169000000315	NaN	True	NaN	NaN	NaN	NaN	NaN	NaN	NaN
697.0965906000001	2.6185	sub-29	1	localizer	blank	interval	NaN	NaN	NaN	NaN	NaN	NaN	NaN	NaN	NaN	NaN	NaN	NaN
700.0163256000014	0.4995	sub-29	1	localizer	stimulus	Katze	NaN	0	2.101595300000554	NaN	True	NaN	NaN	NaN	NaN	NaN	NaN	NaN
700.4992237000006	2.1016	sub-29	1	localizer	blank	interval	NaN	NaN	NaN	NaN	NaN	NaN	NaN	NaN	NaN	NaN	NaN	NaN
702.9020168000006	0.4994	sub-29	1	localizer	stimulus	Stuhl	NaN	0	2.635246499999994	NaN	True	NaN	NaN	NaN	NaN	NaN	NaN	NaN
703.3849391000003	2.6352	sub-29	1	localizer	blank	interval	NaN	NaN	NaN	NaN	NaN	NaN	NaN	NaN	NaN	NaN	NaN	NaN
706.3214401000005	0.4994	sub-29	1	localizer	stimulus	Haus	NaN	0	2.968971700000111	NaN	True	NaN	NaN	NaN	NaN	NaN	NaN	NaN
706.8043280000002	2.969	sub-29	1	localizer	blank	interval	NaN	NaN	NaN	NaN	NaN	NaN	NaN	NaN	NaN	NaN	NaN	NaN
710.0744506999999	0.4994	sub-29	1	localizer	stimulus	Gesicht	NaN	0	3.152665999999954	NaN	True	NaN	NaN	NaN	NaN	NaN	NaN	NaN
710.5573014000001	3.1527	sub-29	1	localizer	blank	interval	NaN	NaN	NaN	NaN	NaN	NaN	NaN	NaN	NaN	NaN	NaN	NaN
714.0110024000005	0.4995	sub-29	1	localizer	stimulus	Stuhl	NaN	0	3.052193999999872	NaN	True	NaN	NaN	NaN	NaN	NaN	NaN	NaN
714.4939962000008	3.0522	sub-29	1	localizer	blank	interval	NaN	NaN	NaN	NaN	NaN	NaN	NaN	NaN	NaN	NaN	NaN	NaN
717.847373300001	0.4995	sub-29	1	localizer	stimulus	Stuhl	NaN	180	3.3026664999997593	0.6142395999995642	True	NaN	NaN	NaN	NaN	NaN	NaN	NaN
718.3302338000012	3.3027	sub-29	1	localizer	blank	interval	NaN	NaN	NaN	NaN	NaN	NaN	NaN	NaN	NaN	NaN	NaN	NaN
721.9340086000011	0.4994	sub-29	1	localizer	stimulus	Schuh	NaN	0	2.618807700000616	NaN	True	NaN	NaN	NaN	NaN	NaN	NaN	NaN
722.4168582000002	2.6188	sub-29	1	localizer	blank	interval	NaN	NaN	NaN	NaN	NaN	NaN	NaN	NaN	NaN	NaN	NaN	NaN
725.3367631000001	0.4994	sub-29	1	localizer	stimulus	Gesicht	NaN	0	2.468657699999312	NaN	True	NaN	NaN	NaN	NaN	NaN	NaN	NaN
725.8196473000007	2.4687	sub-29	1	localizer	blank	interval	NaN	NaN	NaN	NaN	NaN	NaN	NaN	NaN	NaN	NaN	NaN	NaN
728.5893711000008	0.4994	sub-29	1	localizer	stimulus	Gesicht	NaN	0	3.0522412000009354	NaN	True	NaN	NaN	NaN	NaN	NaN	NaN	NaN
729.0723588000001	3.0522	sub-29	1	localizer	blank	interval	NaN	NaN	NaN	NaN	NaN	NaN	NaN	NaN	NaN	NaN	NaN	NaN
732.4258103000011	0.4994	sub-29	1	localizer	stimulus	Schuh	NaN	0	1.8013993999993545	NaN	True	NaN	NaN	NaN	NaN	NaN	NaN	NaN
732.9087355000011	1.8014	sub-29	1	localizer	blank	interval	NaN	NaN	NaN	NaN	NaN	NaN	NaN	NaN	NaN	NaN	NaN	NaN
735.0113009000015	0.4995	sub-29	1	localizer	stimulus	Stuhl	NaN	0	3.986326599999302	NaN	True	NaN	NaN	NaN	NaN	NaN	NaN	NaN
735.4942488000015	3.9863	sub-29	1	localizer	blank	interval	NaN	NaN	NaN	NaN	NaN	NaN	NaN	NaN	NaN	NaN	NaN	NaN
739.7817623999999	0.4994	sub-29	1	localizer	stimulus	Gesicht	NaN	180	2.134955599998648	0.6158197000004293	True	NaN	NaN	NaN	NaN	NaN	NaN	NaN
740.2646123000013	2.135	sub-29	1	localizer	blank	interval	NaN	NaN	NaN	NaN	NaN	NaN	NaN	NaN	NaN	NaN	NaN	NaN
742.7007708000001	0.5003	sub-29	1	localizer	stimulus	Katze	NaN	0	2.685107400000561	NaN	True	NaN	NaN	NaN	NaN	NaN	NaN	NaN
743.18397	2.6851	sub-29	1	localizer	blank	interval	NaN	NaN	NaN	NaN	NaN	NaN	NaN	NaN	NaN	NaN	NaN	NaN
746.1702420000001	0.4994	sub-29	1	localizer	stimulus	Schuh	NaN	0	1.9679942000002484	NaN	True	NaN	NaN	NaN	NaN	NaN	NaN	NaN
746.6532378000011	1.968	sub-29	1	localizer	blank	interval	NaN	NaN	NaN	NaN	NaN	NaN	NaN	NaN	NaN	NaN	NaN	NaN
752.1078464000002	1.0005	sub-29	1	sequence	cue	Schuh	NaN	NaN	NaN	NaN	NaN	NaN	NaN	NaN	NaN	NaN	NaN	NaN
753.1083587000012	2.0015	sub-29	1	sequence	blank	blank	NaN	NaN	NaN	NaN	NaN	NaN	NaN	NaN	NaN	NaN	NaN	NaN
755.1098448000012	0.3003	sub-29	1	sequence	fixation	dot	NaN	NaN	NaN	NaN	NaN	NaN	NaN	NaN	NaN	NaN	NaN	NaN
755.428464300001	0.1151	sub-29	1	sequence	stimulus	Haus	NaN	NaN	512.0	NaN	NaN	2.0	1.0	NaN	NaN	NaN	NaN	NaN
755.5435897000007	0.5173	sub-29	1	sequence	interval	dot	NaN	NaN	NaN	NaN	NaN	NaN	NaN	NaN	NaN	NaN	NaN	NaN
756.0608680000005	0.0999	sub-29	1	sequence	stimulus	Schuh	NaN	NaN	512.0	NaN	NaN	4.0	2.0	NaN	NaN	NaN	NaN	NaN
756.1608092000006	0.5171	sub-29	1	sequence	interval	dot	NaN	NaN	NaN	NaN	NaN	NaN	NaN	NaN	NaN	NaN	NaN	NaN
756.6779553000015	0.1	sub-29	1	sequence	stimulus	Stuhl	NaN	NaN	512.0	NaN	NaN	5.0	3.0	NaN	NaN	NaN	NaN	NaN
756.7779748000012	0.5173	sub-29	1	sequence	interval	dot	NaN	NaN	NaN	NaN	NaN	NaN	NaN	NaN	NaN	NaN	NaN	NaN
757.2952623000001	0.0979	sub-29	1	sequence	stimulus	Katze	NaN	NaN	512.0	NaN	NaN	3.0	4.0	NaN	NaN	NaN	NaN	NaN
757.393173800001	0.5193	sub-29	1	sequence	interval	dot	NaN	NaN	NaN	NaN	NaN	NaN	NaN	NaN	NaN	NaN	NaN	NaN
757.9124286000006	0.0999	sub-29	1	sequence	stimulus	Gesicht	NaN	NaN	512.0	NaN	NaN	1.0	5.0	NaN	NaN	NaN	NaN	NaN
758.0123370000001	0.5171	sub-29	1	sequence	interval	dot	NaN	NaN	NaN	NaN	NaN	NaN	NaN	NaN	NaN	NaN	NaN	NaN
758.5294735000007	6.1363	sub-29	1	sequence	delay	dot	NaN	NaN	NaN	NaN	NaN	NaN	NaN	NaN	NaN	NaN	NaN	NaN
764.6520993000013	1.0499	sub-29	1	sequence	choice	choice	right	NaN	NaN	1.027756599998611	True	NaN	NaN	right	True	5.0	2.0	2.0
765.7023540999999	0.5	sub-29	1	sequence	feedback	NaN	NaN	NaN	NaN	NaN	NaN	NaN	NaN	NaN	NaN	NaN	NaN	NaN
766.2025786000013	1.0004	sub-29	1	sequence	cue	Schuh	NaN	NaN	NaN	NaN	NaN	NaN	NaN	NaN	NaN	NaN	NaN	NaN
767.202937600001	2.0016	sub-29	1	sequence	blank	blank	NaN	NaN	NaN	NaN	NaN	NaN	NaN	NaN	NaN	NaN	NaN	NaN
769.2045482000012	0.3002	sub-29	1	sequence	fixation	dot	NaN	NaN	NaN	NaN	NaN	NaN	NaN	NaN	NaN	NaN	NaN	NaN
769.5224343999998	0.0991	sub-29	1	sequence	stimulus	Stuhl	NaN	NaN	32.0	NaN	NaN	5.0	1.0	NaN	NaN	NaN	NaN	NaN
769.6215446000006	0.0335	sub-29	1	sequence	interval	dot	NaN	NaN	NaN	NaN	NaN	NaN	NaN	NaN	NaN	NaN	NaN	NaN
769.6550247000014	0.1	sub-29	1	sequence	stimulus	Haus	NaN	NaN	32.0	NaN	NaN	2.0	2.0	NaN	NaN	NaN	NaN	NaN
769.7549976999999	0.0335	sub-29	1	sequence	interval	dot	NaN	NaN	NaN	NaN	NaN	NaN	NaN	NaN	NaN	NaN	NaN	NaN
769.7884582000006	0.1005	sub-29	1	sequence	stimulus	Gesicht	NaN	NaN	32.0	NaN	NaN	1.0	3.0	NaN	NaN	NaN	NaN	NaN
769.8889166000008	0.033	sub-29	1	sequence	interval	dot	NaN	NaN	NaN	NaN	NaN	NaN	NaN	NaN	NaN	NaN	NaN	NaN
769.9219251000013	0.0999	sub-29	1	sequence	stimulus	Schuh	NaN	NaN	32.0	NaN	NaN	4.0	4.0	NaN	NaN	NaN	NaN	NaN
770.0218542000002	0.0335	sub-29	1	sequence	interval	dot	NaN	NaN	NaN	NaN	NaN	NaN	NaN	NaN	NaN	NaN	NaN	NaN
770.0553494000014	0.1	sub-29	1	sequence	stimulus	Katze	NaN	NaN	32.0	NaN	NaN	3.0	5.0	NaN	NaN	NaN	NaN	NaN
770.1553079000005	0.0334	sub-29	1	sequence	interval	dot	NaN	NaN	NaN	NaN	NaN	NaN	NaN	NaN	NaN	NaN	NaN	NaN
770.1886737000004	8.5554	sub-29	1	sequence	delay	dot	NaN	NaN	NaN	NaN	NaN	NaN	NaN	NaN	NaN	NaN	NaN	NaN
778.7177136000009	1.0458	sub-29	1	sequence	choice	choice	right	NaN	NaN	1.005417899999884	True	NaN	NaN	right	True	3.0	4.0	4.0
779.7638310000002	0.5001	sub-29	1	sequence	feedback	NaN	NaN	NaN	NaN	NaN	NaN	NaN	NaN	NaN	NaN	NaN	NaN	NaN
780.2641358000001	1.0002	sub-29	1	sequence	cue	Haus	NaN	NaN	NaN	NaN	NaN	NaN	NaN	NaN	NaN	NaN	NaN	NaN
781.2643154000016	2.0016	sub-29	1	sequence	blank	blank	NaN	NaN	NaN	NaN	NaN	NaN	NaN	NaN	NaN	NaN	NaN	NaN
783.2659592	0.3004	sub-29	1	sequence	fixation	dot	NaN	NaN	NaN	NaN	NaN	NaN	NaN	NaN	NaN	NaN	NaN	NaN
783.5838306000005	0.1005	sub-29	1	sequence	stimulus	Gesicht	NaN	NaN	128.0	NaN	NaN	1.0	1.0	NaN	NaN	NaN	NaN	NaN
783.6843134999999	0.1321	sub-29	1	sequence	interval	dot	NaN	NaN	NaN	NaN	NaN	NaN	NaN	NaN	NaN	NaN	NaN	NaN
783.8164623000011	0.0999	sub-29	1	sequence	stimulus	Stuhl	NaN	NaN	128.0	NaN	NaN	5.0	2.0	NaN	NaN	NaN	NaN	NaN
783.9164109000012	0.1336	sub-29	1	sequence	interval	dot	NaN	NaN	NaN	NaN	NaN	NaN	NaN	NaN	NaN	NaN	NaN	NaN
784.0500135000002	0.1	sub-29	1	sequence	stimulus	Schuh	NaN	NaN	128.0	NaN	NaN	4.0	3.0	NaN	NaN	NaN	NaN	NaN
784.1500185000004	0.1335	sub-29	1	sequence	interval	dot	NaN	NaN	NaN	NaN	NaN	NaN	NaN	NaN	NaN	NaN	NaN	NaN
784.2835048000015	0.1	sub-29	1	sequence	stimulus	Haus	NaN	NaN	128.0	NaN	NaN	2.0	4.0	NaN	NaN	NaN	NaN	NaN
784.3834609000005	0.1336	sub-29	1	sequence	interval	dot	NaN	NaN	NaN	NaN	NaN	NaN	NaN	NaN	NaN	NaN	NaN	NaN
784.5170429999998	0.1	sub-29	1	sequence	stimulus	Katze	NaN	NaN	128.0	NaN	NaN	3.0	5.0	NaN	NaN	NaN	NaN	NaN
784.6170671	0.1334	sub-29	1	sequence	interval	dot	NaN	NaN	NaN	NaN	NaN	NaN	NaN	NaN	NaN	NaN	NaN	NaN
784.7504335000012	8.0548	sub-29	1	sequence	delay	dot	NaN	NaN	NaN	NaN	NaN	NaN	NaN	NaN	NaN	NaN	NaN	NaN
792.7834191000002	1.0746	sub-29	1	sequence	choice	choice	left	NaN	NaN	1.0483607999995002	True	NaN	NaN	left	True	4.0	3.0	4.0
793.8582767000007	0.5008	sub-29	1	sequence	feedback	NaN	NaN	NaN	NaN	NaN	NaN	NaN	NaN	NaN	NaN	NaN	NaN	NaN
794.359203	1.0007	sub-29	1	sequence	cue	Haus	NaN	NaN	NaN	NaN	NaN	NaN	NaN	NaN	NaN	NaN	NaN	NaN
795.3598755000003	2.0009	sub-29	1	sequence	blank	blank	NaN	NaN	NaN	NaN	NaN	NaN	NaN	NaN	NaN	NaN	NaN	NaN
797.3607838000007	0.3002	sub-29	1	sequence	fixation	dot	NaN	NaN	NaN	NaN	NaN	NaN	NaN	NaN	NaN	NaN	NaN	NaN
797.6792062000004	0.1153	sub-29	1	sequence	stimulus	Gesicht	NaN	NaN	32.0	NaN	NaN	1.0	1.0	NaN	NaN	NaN	NaN	NaN
797.7945033000015	0.0335	sub-29	1	sequence	interval	dot	NaN	NaN	NaN	NaN	NaN	NaN	NaN	NaN	NaN	NaN	NaN	NaN
797.8279691000007	0.0999	sub-29	1	sequence	stimulus	Haus	NaN	NaN	32.0	NaN	NaN	2.0	2.0	NaN	NaN	NaN	NaN	NaN
797.9278735000007	0.0335	sub-29	1	sequence	interval	dot	NaN	NaN	NaN	NaN	NaN	NaN	NaN	NaN	NaN	NaN	NaN	NaN
797.961356400001	0.1	sub-29	1	sequence	stimulus	Schuh	NaN	NaN	32.0	NaN	NaN	4.0	3.0	NaN	NaN	NaN	NaN	NaN
798.0613320000011	0.0335	sub-29	1	sequence	interval	dot	NaN	NaN	NaN	NaN	NaN	NaN	NaN	NaN	NaN	NaN	NaN	NaN
798.0948056000016	0.0999	sub-29	1	sequence	stimulus	Katze	NaN	NaN	32.0	NaN	NaN	3.0	4.0	NaN	NaN	NaN	NaN	NaN
798.1947240000009	0.0335	sub-29	1	sequence	interval	dot	NaN	NaN	NaN	NaN	NaN	NaN	NaN	NaN	NaN	NaN	NaN	NaN
798.2282192000002	0.0979	sub-29	1	sequence	stimulus	Stuhl	NaN	NaN	32.0	NaN	NaN	5.0	5.0	NaN	NaN	NaN	NaN	NaN
798.3261662000004	0.0354	sub-29	1	sequence	interval	dot	NaN	NaN	NaN	NaN	NaN	NaN	NaN	NaN	NaN	NaN	NaN	NaN
798.3615379000003	8.5384	sub-29	1	sequence	delay	dot	NaN	NaN	NaN	NaN	NaN	NaN	NaN	NaN	NaN	NaN	NaN	NaN
806.8750678000015	1.9951	sub-29	1	sequence	choice	choice	left	NaN	NaN	1.9536943000002795	True	NaN	NaN	left	True	2.0	5.0	2.0
808.8704418000016	0.501	sub-29	1	sequence	feedback	NaN	NaN	NaN	NaN	NaN	NaN	NaN	NaN	NaN	NaN	NaN	NaN	NaN
809.3715992000016	0.9996	sub-29	1	sequence	cue	Schuh	NaN	NaN	NaN	NaN	NaN	NaN	NaN	NaN	NaN	NaN	NaN	NaN
810.3712389000011	2.0016	sub-29	1	sequence	blank	blank	NaN	NaN	NaN	NaN	NaN	NaN	NaN	NaN	NaN	NaN	NaN	NaN
812.3728804000002	0.3016	sub-29	1	sequence	fixation	dot	NaN	NaN	NaN	NaN	NaN	NaN	NaN	NaN	NaN	NaN	NaN	NaN
812.6912503000003	0.0985	sub-29	1	sequence	stimulus	Gesicht	NaN	NaN	512.0	NaN	NaN	1.0	1.0	NaN	NaN	NaN	NaN	NaN
812.7897119999998	0.5173	sub-29	1	sequence	interval	dot	NaN	NaN	NaN	NaN	NaN	NaN	NaN	NaN	NaN	NaN	NaN	NaN
813.3070165000008	0.1	sub-29	1	sequence	stimulus	Stuhl	NaN	NaN	512.0	NaN	NaN	5.0	2.0	NaN	NaN	NaN	NaN	NaN
813.4069931000013	0.5172	sub-29	1	sequence	interval	dot	NaN	NaN	NaN	NaN	NaN	NaN	NaN	NaN	NaN	NaN	NaN	NaN
813.9241606000014	0.0999	sub-29	1	sequence	stimulus	Katze	NaN	NaN	512.0	NaN	NaN	3.0	3.0	NaN	NaN	NaN	NaN	NaN
814.0240803000015	0.5172	sub-29	1	sequence	interval	dot	NaN	NaN	NaN	NaN	NaN	NaN	NaN	NaN	NaN	NaN	NaN	NaN
814.5413046000012	0.0999	sub-29	1	sequence	stimulus	Haus	NaN	NaN	512.0	NaN	NaN	2.0	4.0	NaN	NaN	NaN	NaN	NaN
814.6412505000008	0.5173	sub-29	1	sequence	interval	dot	NaN	NaN	NaN	NaN	NaN	NaN	NaN	NaN	NaN	NaN	NaN	NaN
815.1585742000007	0.0998	sub-29	1	sequence	stimulus	Schuh	NaN	NaN	512.0	NaN	NaN	4.0	5.0	NaN	NaN	NaN	NaN	NaN
815.2583608000004	0.5172	sub-29	1	sequence	interval	dot	NaN	NaN	NaN	NaN	NaN	NaN	NaN	NaN	NaN	NaN	NaN	NaN
815.7755529000005	6.1532	sub-29	1	sequence	delay	dot	NaN	NaN	NaN	NaN	NaN	NaN	NaN	NaN	NaN	NaN	NaN	NaN
821.9026810000014	0.9621	sub-29	1	sequence	choice	choice	right	NaN	NaN	0.932685699999638	True	NaN	NaN	right	True	3.0	5.0	5.0
822.8650243000011	0.5	sub-29	1	sequence	feedback	NaN	NaN	NaN	NaN	NaN	NaN	NaN	NaN	NaN	NaN	NaN	NaN	NaN
823.3652273000007	1.0005	sub-29	1	sequence	cue	Schuh	NaN	NaN	NaN	NaN	NaN	NaN	NaN	NaN	NaN	NaN	NaN	NaN
824.3657424000012	2.0016	sub-29	1	sequence	blank	blank	NaN	NaN	NaN	NaN	NaN	NaN	NaN	NaN	NaN	NaN	NaN	NaN
826.3673533000001	0.3004	sub-29	1	sequence	fixation	dot	NaN	NaN	NaN	NaN	NaN	NaN	NaN	NaN	NaN	NaN	NaN	NaN
826.6853735000004	0.099	sub-29	1	sequence	stimulus	Haus	NaN	NaN	64.0	NaN	NaN	2.0	1.0	NaN	NaN	NaN	NaN	NaN
826.7843512	0.0669	sub-29	1	sequence	interval	dot	NaN	NaN	NaN	NaN	NaN	NaN	NaN	NaN	NaN	NaN	NaN	NaN
826.8512128000002	0.0999	sub-29	1	sequence	stimulus	Schuh	NaN	NaN	64.0	NaN	NaN	4.0	2.0	NaN	NaN	NaN	NaN	NaN
826.9511467000011	0.0668	sub-29	1	sequence	interval	dot	NaN	NaN	NaN	NaN	NaN	NaN	NaN	NaN	NaN	NaN	NaN	NaN
827.0179856000013	0.1	sub-29	1	sequence	stimulus	Katze	NaN	NaN	64.0	NaN	NaN	3.0	3.0	NaN	NaN	NaN	NaN	NaN
827.1179612000014	0.0668	sub-29	1	sequence	interval	dot	NaN	NaN	NaN	NaN	NaN	NaN	NaN	NaN	NaN	NaN	NaN	NaN
827.1847870000001	0.1	sub-29	1	sequence	stimulus	Stuhl	NaN	NaN	64.0	NaN	NaN	5.0	4.0	NaN	NaN	NaN	NaN	NaN
827.2847579999998	0.0669	sub-29	1	sequence	interval	dot	NaN	NaN	NaN	NaN	NaN	NaN	NaN	NaN	NaN	NaN	NaN	NaN
827.3516983999998	0.0999	sub-29	1	sequence	stimulus	Gesicht	NaN	NaN	64.0	NaN	NaN	1.0	5.0	NaN	NaN	NaN	NaN	NaN
827.4515553000001	0.0667	sub-29	1	sequence	interval	dot	NaN	NaN	NaN	NaN	NaN	NaN	NaN	NaN	NaN	NaN	NaN	NaN
827.5182486000012	8.4052	sub-29	1	sequence	delay	dot	NaN	NaN	NaN	NaN	NaN	NaN	NaN	NaN	NaN	NaN	NaN	NaN
835.8904995000012	0.9022	sub-29	1	sequence	choice	choice	right	NaN	NaN	0.8580381000010675	False	NaN	NaN	left	True	2.0	3.0	2.0
836.7929014000001	0.5	sub-29	1	sequence	feedback	NaN	NaN	NaN	NaN	NaN	NaN	NaN	NaN	NaN	NaN	NaN	NaN	NaN
837.2931174000005	1.0006	sub-29	1	sequence	cue	Gesicht	NaN	NaN	NaN	NaN	NaN	NaN	NaN	NaN	NaN	NaN	NaN	NaN
838.2936879000008	2.0017	sub-29	1	sequence	blank	blank	NaN	NaN	NaN	NaN	NaN	NaN	NaN	NaN	NaN	NaN	NaN	NaN
840.2954373000011	0.3003	sub-29	1	sequence	fixation	dot	NaN	NaN	NaN	NaN	NaN	NaN	NaN	NaN	NaN	NaN	NaN	NaN
840.6139195000014	0.1152	sub-29	1	sequence	stimulus	Schuh	NaN	NaN	128.0	NaN	NaN	4.0	1.0	NaN	NaN	NaN	NaN	NaN
840.7290733999998	0.1335	sub-29	1	sequence	interval	dot	NaN	NaN	NaN	NaN	NaN	NaN	NaN	NaN	NaN	NaN	NaN	NaN
840.8626135000013	0.1	sub-29	1	sequence	stimulus	Stuhl	NaN	NaN	128.0	NaN	NaN	5.0	2.0	NaN	NaN	NaN	NaN	NaN
840.9626182000011	0.1337	sub-29	1	sequence	interval	dot	NaN	NaN	NaN	NaN	NaN	NaN	NaN	NaN	NaN	NaN	NaN	NaN
841.0962944000003	0.0981	sub-29	1	sequence	stimulus	Haus	NaN	NaN	128.0	NaN	NaN	2.0	3.0	NaN	NaN	NaN	NaN	NaN
841.1943518000007	0.1334	sub-29	1	sequence	interval	dot	NaN	NaN	NaN	NaN	NaN	NaN	NaN	NaN	NaN	NaN	NaN	NaN
841.3277280000002	0.1	sub-29	1	sequence	stimulus	Katze	NaN	NaN	128.0	NaN	NaN	3.0	4.0	NaN	NaN	NaN	NaN	NaN
841.4277005000004	0.1336	sub-29	1	sequence	interval	dot	NaN	NaN	NaN	NaN	NaN	NaN	NaN	NaN	NaN	NaN	NaN	NaN
841.5613281000005	0.1034	sub-29	1	sequence	stimulus	Gesicht	NaN	NaN	128.0	NaN	NaN	1.0	5.0	NaN	NaN	NaN	NaN	NaN
841.6646951000002	0.132	sub-29	1	sequence	interval	dot	NaN	NaN	NaN	NaN	NaN	NaN	NaN	NaN	NaN	NaN	NaN	NaN
841.7966753000001	8.0713	sub-29	1	sequence	delay	dot	NaN	NaN	NaN	NaN	NaN	NaN	NaN	NaN	NaN	NaN	NaN	NaN
849.8521120000005	0.8851	sub-29	1	sequence	choice	choice	right	NaN	NaN	0.865416799999366	True	NaN	NaN	right	True	4.0	5.0	5.0
850.7374348000012	0.5001	sub-29	1	sequence	feedback	NaN	NaN	NaN	NaN	NaN	NaN	NaN	NaN	NaN	NaN	NaN	NaN	NaN
851.2377921000007	1.0005	sub-29	1	sequence	cue	Gesicht	NaN	NaN	NaN	NaN	NaN	NaN	NaN	NaN	NaN	NaN	NaN	NaN
852.2382758000003	2.0016	sub-29	1	sequence	blank	blank	NaN	NaN	NaN	NaN	NaN	NaN	NaN	NaN	NaN	NaN	NaN	NaN
854.2398561999998	0.3003	sub-29	1	sequence	fixation	dot	NaN	NaN	NaN	NaN	NaN	NaN	NaN	NaN	NaN	NaN	NaN	NaN
854.5577551000006	0.0991	sub-29	1	sequence	stimulus	Schuh	NaN	NaN	64.0	NaN	NaN	4.0	1.0	NaN	NaN	NaN	NaN	NaN
854.6568605000011	0.0668	sub-29	1	sequence	interval	dot	NaN	NaN	NaN	NaN	NaN	NaN	NaN	NaN	NaN	NaN	NaN	NaN
854.7236829000012	0.1	sub-29	1	sequence	stimulus	Stuhl	NaN	NaN	64.0	NaN	NaN	5.0	2.0	NaN	NaN	NaN	NaN	NaN
854.8236680000009	0.0669	sub-29	1	sequence	interval	dot	NaN	NaN	NaN	NaN	NaN	NaN	NaN	NaN	NaN	NaN	NaN	NaN
854.890537700001	0.0999	sub-29	1	sequence	stimulus	Gesicht	NaN	NaN	64.0	NaN	NaN	1.0	3.0	NaN	NaN	NaN	NaN	NaN
854.9904609000005	0.0669	sub-29	1	sequence	interval	dot	NaN	NaN	NaN	NaN	NaN	NaN	NaN	NaN	NaN	NaN	NaN	NaN
855.0573148000003	0.1	sub-29	1	sequence	stimulus	Katze	NaN	NaN	64.0	NaN	NaN	3.0	4.0	NaN	NaN	NaN	NaN	NaN
855.1572907999998	0.0668	sub-29	1	sequence	interval	dot	NaN	NaN	NaN	NaN	NaN	NaN	NaN	NaN	NaN	NaN	NaN	NaN
855.2241394000011	0.0999	sub-29	1	sequence	stimulus	Haus	NaN	NaN	64.0	NaN	NaN	2.0	5.0	NaN	NaN	NaN	NaN	NaN
855.3240772999998	0.0667	sub-29	1	sequence	interval	dot	NaN	NaN	NaN	NaN	NaN	NaN	NaN	NaN	NaN	NaN	NaN	NaN
855.3907926000011	8.3885	sub-29	1	sequence	delay	dot	NaN	NaN	NaN	NaN	NaN	NaN	NaN	NaN	NaN	NaN	NaN	NaN
863.7617928	0.9868	sub-29	1	sequence	choice	choice	left	NaN	NaN	0.9540163000001484	True	NaN	NaN	left	True	3.0	4.0	3.0
864.748815500001	0.5001	sub-29	1	sequence	feedback	NaN	NaN	NaN	NaN	NaN	NaN	NaN	NaN	NaN	NaN	NaN	NaN	NaN
865.2493759000008	9.4405	sub-29	1	other	break	break	NaN	NaN	NaN	NaN	NaN	NaN	NaN	NaN	NaN	NaN	NaN	NaN
878.5271284999999	0.4994	sub-29	1	localizer	stimulus	Katze	NaN	0	2.235050000001138	NaN	True	NaN	NaN	NaN	NaN	NaN	NaN	NaN
879.0100275000004	2.2351	sub-29	1	localizer	blank	interval	NaN	NaN	NaN	NaN	NaN	NaN	NaN	NaN	NaN	NaN	NaN	NaN
881.5462992000012	0.4994	sub-29	1	localizer	stimulus	Schuh	NaN	0	2.535328699999809	NaN	True	NaN	NaN	NaN	NaN	NaN	NaN	NaN
882.0292321000015	2.5353	sub-29	1	localizer	blank	interval	NaN	NaN	NaN	NaN	NaN	NaN	NaN	NaN	NaN	NaN	NaN	NaN
884.8656452000014	0.4994	sub-29	1	localizer	stimulus	Schuh	NaN	180	2.4351213999998436	0.5715564999991329	True	NaN	NaN	NaN	NaN	NaN	NaN	NaN
885.3484723000001	2.4351	sub-29	1	localizer	blank	interval	NaN	NaN	NaN	NaN	NaN	NaN	NaN	NaN	NaN	NaN	NaN	NaN
888.0848607000007	0.4994	sub-29	1	localizer	stimulus	Haus	NaN	0	3.235820699999749	NaN	True	NaN	NaN	NaN	NaN	NaN	NaN	NaN
888.5677364000003	3.2358	sub-29	1	localizer	blank	interval	NaN	NaN	NaN	NaN	NaN	NaN	NaN	NaN	NaN	NaN	NaN	NaN
892.1047435	0.4995	sub-29	1	localizer	stimulus	Gesicht	NaN	180	2.068139599999995	0.5645945999985997	True	NaN	NaN	NaN	NaN	NaN	NaN	NaN
892.5876779000009	2.0681	sub-29	1	localizer	blank	interval	NaN	NaN	NaN	NaN	NaN	NaN	NaN	NaN	NaN	NaN	NaN	NaN
894.9570125999999	0.4995	sub-29	1	localizer	stimulus	Stuhl	NaN	0	2.7520354999996925	NaN	True	NaN	NaN	NaN	NaN	NaN	NaN	NaN
895.4400115000008	2.752	sub-29	1	localizer	blank	interval	NaN	NaN	NaN	NaN	NaN	NaN	NaN	NaN	NaN	NaN	NaN	NaN
898.4932216000016	0.4994	sub-29	1	localizer	stimulus	Stuhl	NaN	180	2.468469000001278	0.5519523000002664	True	NaN	NaN	NaN	NaN	NaN	NaN	NaN
898.9761846000001	2.4685	sub-29	1	localizer	blank	interval	NaN	NaN	NaN	NaN	NaN	NaN	NaN	NaN	NaN	NaN	NaN	NaN
901.7459997000004	0.4994	sub-29	1	localizer	stimulus	Haus	NaN	0	2.2851157000004605	NaN	True	NaN	NaN	NaN	NaN	NaN	NaN	NaN
902.2289215	2.2851	sub-29	1	localizer	blank	interval	NaN	NaN	NaN	NaN	NaN	NaN	NaN	NaN	NaN	NaN	NaN	NaN
904.8151782000004	0.4995	sub-29	1	localizer	stimulus	Stuhl	NaN	0	3.2689977000009094	NaN	True	NaN	NaN	NaN	NaN	NaN	NaN	NaN
905.2980594	3.269	sub-29	1	localizer	blank	interval	NaN	NaN	NaN	NaN	NaN	NaN	NaN	NaN	NaN	NaN	NaN	NaN
908.8682479	0.4994	sub-29	1	localizer	stimulus	Schuh	NaN	0	2.5185670999999274	NaN	True	NaN	NaN	NaN	NaN	NaN	NaN	NaN
909.3511478	2.5186	sub-29	1	localizer	blank	interval	NaN	NaN	NaN	NaN	NaN	NaN	NaN	NaN	NaN	NaN	NaN	NaN
912.1709168000016	0.4996	sub-29	1	localizer	stimulus	Gesicht	NaN	0	2.7020539000004646	0.4986702000005607	False	NaN	NaN	NaN	NaN	NaN	NaN	NaN
912.6538148	2.7021	sub-29	1	localizer	blank	interval	NaN	NaN	NaN	NaN	NaN	NaN	NaN	NaN	NaN	NaN	NaN	NaN
915.6570962000004	0.4995	sub-29	1	localizer	stimulus	Gesicht	NaN	0	2.618686099998854	NaN	True	NaN	NaN	NaN	NaN	NaN	NaN	NaN
916.1399300000012	2.6187	sub-29	1	localizer	blank	interval	NaN	NaN	NaN	NaN	NaN	NaN	NaN	NaN	NaN	NaN	NaN	NaN
919.059842300001	0.4995	sub-29	1	localizer	stimulus	Haus	NaN	180	2.2850434000012	0.601289899999756	True	NaN	NaN	NaN	NaN	NaN	NaN	NaN
919.5427048	2.285	sub-29	1	localizer	blank	interval	NaN	NaN	NaN	NaN	NaN	NaN	NaN	NaN	NaN	NaN	NaN	NaN
922.1291169000016	0.4993	sub-29	1	localizer	stimulus	Haus	NaN	0	2.1850169999995614	NaN	True	NaN	NaN	NaN	NaN	NaN	NaN	NaN
922.6119327000016	2.185	sub-29	1	localizer	blank	interval	NaN	NaN	NaN	NaN	NaN	NaN	NaN	NaN	NaN	NaN	NaN	NaN
925.1154787000014	0.5155	sub-29	1	localizer	stimulus	Schuh	NaN	0	2.85214500000086	NaN	True	NaN	NaN	NaN	NaN	NaN	NaN	NaN
925.5811264000004	2.8521	sub-29	1	localizer	blank	interval	NaN	NaN	NaN	NaN	NaN	NaN	NaN	NaN	NaN	NaN	NaN	NaN
928.7343064000016	0.5009	sub-29	1	localizer	stimulus	Katze	NaN	0	2.6188068999999814	NaN	True	NaN	NaN	NaN	NaN	NaN	NaN	NaN
929.2171554000016	2.6188	sub-29	1	localizer	blank	interval	NaN	NaN	NaN	NaN	NaN	NaN	NaN	NaN	NaN	NaN	NaN	NaN
932.1371064000014	0.4994	sub-29	1	localizer	stimulus	Haus	NaN	0	2.918945299999791	NaN	True	NaN	NaN	NaN	NaN	NaN	NaN	NaN
932.6199430000016	2.9189	sub-29	1	localizer	blank	interval	NaN	NaN	NaN	NaN	NaN	NaN	NaN	NaN	NaN	NaN	NaN	NaN
935.8400392000004	0.4994	sub-29	1	localizer	stimulus	Katze	NaN	0	2.56859989999964	NaN	True	NaN	NaN	NaN	NaN	NaN	NaN	NaN
936.3229128000004	2.5686	sub-29	1	localizer	blank	interval	NaN	NaN	NaN	NaN	NaN	NaN	NaN	NaN	NaN	NaN	NaN	NaN
939.1927308000012	0.4994	sub-29	1	localizer	stimulus	Gesicht	NaN	0	3.400676299999759	NaN	True	NaN	NaN	NaN	NaN	NaN	NaN	NaN
939.6756436000014	3.4007	sub-29	1	localizer	blank	interval	NaN	NaN	NaN	NaN	NaN	NaN	NaN	NaN	NaN	NaN	NaN	NaN
943.379597000001	0.4999	sub-29	1	localizer	stimulus	Katze	NaN	180	2.0342395999997507	0.6255435999992187	True	NaN	NaN	NaN	NaN	NaN	NaN	NaN
943.8630638000012	2.0342	sub-29	1	localizer	blank	interval	NaN	NaN	NaN	NaN	NaN	NaN	NaN	NaN	NaN	NaN	NaN	NaN
946.2158012	0.4989	sub-29	1	localizer	stimulus	Katze	NaN	0	2.9186687000002394	NaN	True	NaN	NaN	NaN	NaN	NaN	NaN	NaN
946.6815072999998	2.9187	sub-29	1	localizer	blank	interval	NaN	NaN	NaN	NaN	NaN	NaN	NaN	NaN	NaN	NaN	NaN	NaN
949.9013853000016	0.4994	sub-29	1	localizer	stimulus	Stuhl	NaN	0	2.585337099999606	NaN	True	NaN	NaN	NaN	NaN	NaN	NaN	NaN
950.3842454000004	2.5853	sub-29	1	localizer	blank	interval	NaN	NaN	NaN	NaN	NaN	NaN	NaN	NaN	NaN	NaN	NaN	NaN
953.2708762000002	0.4993	sub-29	1	localizer	stimulus	Gesicht	NaN	0	2.418469100000948	NaN	True	NaN	NaN	NaN	NaN	NaN	NaN	NaN
953.7536516	2.4185	sub-29	1	localizer	blank	interval	NaN	NaN	NaN	NaN	NaN	NaN	NaN	NaN	NaN	NaN	NaN	NaN
956.4733472000008	0.4995	sub-29	1	localizer	stimulus	Schuh	NaN	0	3.00229309999861	NaN	True	NaN	NaN	NaN	NaN	NaN	NaN	NaN
956.9562560000012	3.0023	sub-29	1	localizer	blank	interval	NaN	NaN	NaN	NaN	NaN	NaN	NaN	NaN	NaN	NaN	NaN	NaN
960.2597702000004	0.4994	sub-29	1	localizer	stimulus	Stuhl	NaN	0	2.4851968999992096	NaN	True	NaN	NaN	NaN	NaN	NaN	NaN	NaN
960.7426164000008	2.4852	sub-29	1	localizer	blank	interval	NaN	NaN	NaN	NaN	NaN	NaN	NaN	NaN	NaN	NaN	NaN	NaN
966.7143817000016	1.0007	sub-29	1	sequence	cue	Katze	NaN	NaN	NaN	NaN	NaN	NaN	NaN	NaN	NaN	NaN	NaN	NaN
967.7150582000012	2.0013	sub-29	1	sequence	blank	blank	NaN	NaN	NaN	NaN	NaN	NaN	NaN	NaN	NaN	NaN	NaN	NaN
969.7163977	0.3003	sub-29	1	sequence	fixation	dot	NaN	NaN	NaN	NaN	NaN	NaN	NaN	NaN	NaN	NaN	NaN	NaN
970.0343031000012	0.0991	sub-29	1	sequence	stimulus	Schuh	NaN	NaN	64.0	NaN	NaN	4.0	1.0	NaN	NaN	NaN	NaN	NaN
970.1334123000016	0.0668	sub-29	1	sequence	interval	dot	NaN	NaN	NaN	NaN	NaN	NaN	NaN	NaN	NaN	NaN	NaN	NaN
970.2002464000016	0.0999	sub-29	1	sequence	stimulus	Stuhl	NaN	NaN	64.0	NaN	NaN	5.0	2.0	NaN	NaN	NaN	NaN	NaN
970.3001909000012	0.0669	sub-29	1	sequence	interval	dot	NaN	NaN	NaN	NaN	NaN	NaN	NaN	NaN	NaN	NaN	NaN	NaN
970.3670823000012	0.0999	sub-29	1	sequence	stimulus	Gesicht	NaN	NaN	64.0	NaN	NaN	1.0	3.0	NaN	NaN	NaN	NaN	NaN
970.4670016	0.0669	sub-29	1	sequence	interval	dot	NaN	NaN	NaN	NaN	NaN	NaN	NaN	NaN	NaN	NaN	NaN	NaN
970.5338791000012	0.1	sub-29	1	sequence	stimulus	Katze	NaN	NaN	64.0	NaN	NaN	3.0	4.0	NaN	NaN	NaN	NaN	NaN
970.6338319000006	0.0668	sub-29	1	sequence	interval	dot	NaN	NaN	NaN	NaN	NaN	NaN	NaN	NaN	NaN	NaN	NaN	NaN
970.7006719	0.0999	sub-29	1	sequence	stimulus	Haus	NaN	NaN	64.0	NaN	NaN	2.0	5.0	NaN	NaN	NaN	NaN	NaN
970.8006065999998	0.0667	sub-29	1	sequence	interval	dot	NaN	NaN	NaN	NaN	NaN	NaN	NaN	NaN	NaN	NaN	NaN	NaN
970.8673259000008	8.3718	sub-29	1	sequence	delay	dot	NaN	NaN	NaN	NaN	NaN	NaN	NaN	NaN	NaN	NaN	NaN	NaN
979.2250229	0.8	sub-29	1	sequence	choice	choice	left	NaN	NaN	0.7740138999997725	True	NaN	NaN	left	True	4.0	5.0	4.0
980.0253386000004	0.5	sub-29	1	sequence	feedback	NaN	NaN	NaN	NaN	NaN	NaN	NaN	NaN	NaN	NaN	NaN	NaN	NaN
980.5255136000014	1.0005	sub-29	1	sequence	cue	Katze	NaN	NaN	NaN	NaN	NaN	NaN	NaN	NaN	NaN	NaN	NaN	NaN
981.525984	2.0016	sub-29	1	sequence	blank	blank	NaN	NaN	NaN	NaN	NaN	NaN	NaN	NaN	NaN	NaN	NaN	NaN
983.5276030000005	0.3002	sub-29	1	sequence	fixation	dot	NaN	NaN	NaN	NaN	NaN	NaN	NaN	NaN	NaN	NaN	NaN	NaN
983.8455883000006	0.099	sub-29	1	sequence	stimulus	Schuh	NaN	NaN	128.0	NaN	NaN	4.0	1.0	NaN	NaN	NaN	NaN	NaN
983.9445543000002	0.1336	sub-29	1	sequence	interval	dot	NaN	NaN	NaN	NaN	NaN	NaN	NaN	NaN	NaN	NaN	NaN	NaN
984.0781088000005	0.1	sub-29	1	sequence	stimulus	Stuhl	NaN	NaN	128.0	NaN	NaN	5.0	2.0	NaN	NaN	NaN	NaN	NaN
984.1780722000004	0.1337	sub-29	1	sequence	interval	dot	NaN	NaN	NaN	NaN	NaN	NaN	NaN	NaN	NaN	NaN	NaN	NaN
984.3117485000002	0.0999	sub-29	1	sequence	stimulus	Haus	NaN	NaN	128.0	NaN	NaN	2.0	3.0	NaN	NaN	NaN	NaN	NaN
984.4116202000004	0.1335	sub-29	1	sequence	interval	dot	NaN	NaN	NaN	NaN	NaN	NaN	NaN	NaN	NaN	NaN	NaN	NaN
984.5451656000004	0.1	sub-29	1	sequence	stimulus	Katze	NaN	NaN	128.0	NaN	NaN	3.0	4.0	NaN	NaN	NaN	NaN	NaN
984.6451347000002	0.1336	sub-29	1	sequence	interval	dot	NaN	NaN	NaN	NaN	NaN	NaN	NaN	NaN	NaN	NaN	NaN	NaN
984.7787056000016	0.1	sub-29	1	sequence	stimulus	Gesicht	NaN	NaN	128.0	NaN	NaN	1.0	5.0	NaN	NaN	NaN	NaN	NaN
984.8786572000008	0.1334	sub-29	1	sequence	interval	dot	NaN	NaN	NaN	NaN	NaN	NaN	NaN	NaN	NaN	NaN	NaN	NaN
985.0120959000014	8.0716	sub-29	1	sequence	delay	dot	NaN	NaN	NaN	NaN	NaN	NaN	NaN	NaN	NaN	NaN	NaN	NaN
993.0567953999998	0.9628	sub-29	1	sequence	choice	choice	left	NaN	NaN	0.9213663999998972	True	NaN	NaN	left	True	4.0	5.0	4.0
994.0198367000012	0.5	sub-29	1	sequence	feedback	NaN	NaN	NaN	NaN	NaN	NaN	NaN	NaN	NaN	NaN	NaN	NaN	NaN
994.5200945000016	1.0005	sub-29	1	sequence	cue	Haus	NaN	NaN	NaN	NaN	NaN	NaN	NaN	NaN	NaN	NaN	NaN	NaN
995.5205997000012	2.0017	sub-29	1	sequence	blank	blank	NaN	NaN	NaN	NaN	NaN	NaN	NaN	NaN	NaN	NaN	NaN	NaN
997.5222938000006	0.3002	sub-29	1	sequence	fixation	dot	NaN	NaN	NaN	NaN	NaN	NaN	NaN	NaN	NaN	NaN	NaN	NaN
997.8408149000006	0.1151	sub-29	1	sequence	stimulus	Gesicht	NaN	NaN	128.0	NaN	NaN	1.0	1.0	NaN	NaN	NaN	NaN	NaN
997.9558828000008	0.1335	sub-29	1	sequence	interval	dot	NaN	NaN	NaN	NaN	NaN	NaN	NaN	NaN	NaN	NaN	NaN	NaN
998.0894263000008	0.1	sub-29	1	sequence	stimulus	Stuhl	NaN	NaN	128.0	NaN	NaN	5.0	2.0	NaN	NaN	NaN	NaN	NaN
998.1893949000004	0.1336	sub-29	1	sequence	interval	dot	NaN	NaN	NaN	NaN	NaN	NaN	NaN	NaN	NaN	NaN	NaN	NaN
998.3229457000016	0.0999	sub-29	1	sequence	stimulus	Schuh	NaN	NaN	128.0	NaN	NaN	4.0	3.0	NaN	NaN	NaN	NaN	NaN
998.4228955	0.1336	sub-29	1	sequence	interval	dot	NaN	NaN	NaN	NaN	NaN	NaN	NaN	NaN	NaN	NaN	NaN	NaN
998.5565012000006	0.1	sub-29	1	sequence	stimulus	Haus	NaN	NaN	128.0	NaN	NaN	2.0	4.0	NaN	NaN	NaN	NaN	NaN
998.6565303000008	0.1335	sub-29	1	sequence	interval	dot	NaN	NaN	NaN	NaN	NaN	NaN	NaN	NaN	NaN	NaN	NaN	NaN
998.7899859999998	0.1	sub-29	1	sequence	stimulus	Katze	NaN	NaN	128.0	NaN	NaN	3.0	5.0	NaN	NaN	NaN	NaN	NaN
998.8899901000004	0.1334	sub-29	1	sequence	interval	dot	NaN	NaN	NaN	NaN	NaN	NaN	NaN	NaN	NaN	NaN	NaN	NaN
999.0233997000014	8.0715	sub-29	1	sequence	delay	dot	NaN	NaN	NaN	NaN	NaN	NaN	NaN	NaN	NaN	NaN	NaN	NaN
1007.0703704000008	0.9272	sub-29	1	sequence	choice	choice	left	NaN	NaN	0.8941421999988961	True	NaN	NaN	left	True	4.0	5.0	4.0
1007.9978679000014	0.5001	sub-29	1	sequence	feedback	NaN	NaN	NaN	NaN	NaN	NaN	NaN	NaN	NaN	NaN	NaN	NaN	NaN
1008.4980589000006	1.0007	sub-29	1	sequence	cue	Gesicht	NaN	NaN	NaN	NaN	NaN	NaN	NaN	NaN	NaN	NaN	NaN	NaN
1009.4987410000012	2.0014	sub-29	1	sequence	blank	blank	NaN	NaN	NaN	NaN	NaN	NaN	NaN	NaN	NaN	NaN	NaN	NaN
1011.5001321	0.3003	sub-29	1	sequence	fixation	dot	NaN	NaN	NaN	NaN	NaN	NaN	NaN	NaN	NaN	NaN	NaN	NaN
1011.8180805000012	0.0991	sub-29	1	sequence	stimulus	Haus	NaN	NaN	64.0	NaN	NaN	2.0	1.0	NaN	NaN	NaN	NaN	NaN
1011.9171426000012	0.0669	sub-29	1	sequence	interval	dot	NaN	NaN	NaN	NaN	NaN	NaN	NaN	NaN	NaN	NaN	NaN	NaN
1011.984002000001	0.0999	sub-29	1	sequence	stimulus	Schuh	NaN	NaN	64.0	NaN	NaN	4.0	2.0	NaN	NaN	NaN	NaN	NaN
1012.0839414000002	0.0669	sub-29	1	sequence	interval	dot	NaN	NaN	NaN	NaN	NaN	NaN	NaN	NaN	NaN	NaN	NaN	NaN
1012.1507966999998	0.0999	sub-29	1	sequence	stimulus	Katze	NaN	NaN	64.0	NaN	NaN	3.0	3.0	NaN	NaN	NaN	NaN	NaN
1012.2507420000002	0.0669	sub-29	1	sequence	interval	dot	NaN	NaN	NaN	NaN	NaN	NaN	NaN	NaN	NaN	NaN	NaN	NaN
1012.317656700001	0.0999	sub-29	1	sequence	stimulus	Stuhl	NaN	NaN	64.0	NaN	NaN	5.0	4.0	NaN	NaN	NaN	NaN	NaN
1012.4175400000004	0.0669	sub-29	1	sequence	interval	dot	NaN	NaN	NaN	NaN	NaN	NaN	NaN	NaN	NaN	NaN	NaN	NaN
1012.484398300001	0.1	sub-29	1	sequence	stimulus	Gesicht	NaN	NaN	64.0	NaN	NaN	1.0	5.0	NaN	NaN	NaN	NaN	NaN
1012.5843622000012	0.0667	sub-29	1	sequence	interval	dot	NaN	NaN	NaN	NaN	NaN	NaN	NaN	NaN	NaN	NaN	NaN	NaN
1012.6510497	8.3718	sub-29	1	sequence	delay	dot	NaN	NaN	NaN	NaN	NaN	NaN	NaN	NaN	NaN	NaN	NaN	NaN
1021.0060535000011	0.936	sub-29	1	sequence	choice	choice	right	NaN	NaN	0.910143799999787	True	NaN	NaN	right	True	4.0	5.0	5.0
1021.9423575	0.5	sub-29	1	sequence	feedback	NaN	NaN	NaN	NaN	NaN	NaN	NaN	NaN	NaN	NaN	NaN	NaN	NaN
1022.4424921999998	1.0008	sub-29	1	sequence	cue	Katze	NaN	NaN	NaN	NaN	NaN	NaN	NaN	NaN	NaN	NaN	NaN	NaN
1023.4432737000006	2.0016	sub-29	1	sequence	blank	blank	NaN	NaN	NaN	NaN	NaN	NaN	NaN	NaN	NaN	NaN	NaN	NaN
1025.4448885000002	0.3001	sub-29	1	sequence	fixation	dot	NaN	NaN	NaN	NaN	NaN	NaN	NaN	NaN	NaN	NaN	NaN	NaN
1025.7644723000012	0.1141	sub-29	1	sequence	stimulus	Stuhl	NaN	NaN	32.0	NaN	NaN	5.0	1.0	NaN	NaN	NaN	NaN	NaN
1025.8785394000006	0.0335	sub-29	1	sequence	interval	dot	NaN	NaN	NaN	NaN	NaN	NaN	NaN	NaN	NaN	NaN	NaN	NaN
1025.9120441000014	0.0998	sub-29	1	sequence	stimulus	Haus	NaN	NaN	32.0	NaN	NaN	2.0	2.0	NaN	NaN	NaN	NaN	NaN
1026.0118730000013	0.0335	sub-29	1	sequence	interval	dot	NaN	NaN	NaN	NaN	NaN	NaN	NaN	NaN	NaN	NaN	NaN	NaN
1026.045338100001	0.1	sub-29	1	sequence	stimulus	Gesicht	NaN	NaN	32.0	NaN	NaN	1.0	3.0	NaN	NaN	NaN	NaN	NaN
1026.1453044999998	0.0335	sub-29	1	sequence	interval	dot	NaN	NaN	NaN	NaN	NaN	NaN	NaN	NaN	NaN	NaN	NaN	NaN
1026.1787906999998	0.1	sub-29	1	sequence	stimulus	Schuh	NaN	NaN	32.0	NaN	NaN	4.0	4.0	NaN	NaN	NaN	NaN	NaN
1026.2787516000008	0.0335	sub-29	1	sequence	interval	dot	NaN	NaN	NaN	NaN	NaN	NaN	NaN	NaN	NaN	NaN	NaN	NaN
1026.312232100001	0.0999	sub-29	1	sequence	stimulus	Katze	NaN	NaN	32.0	NaN	NaN	3.0	5.0	NaN	NaN	NaN	NaN	NaN
1026.4121818000003	0.0335	sub-29	1	sequence	interval	dot	NaN	NaN	NaN	NaN	NaN	NaN	NaN	NaN	NaN	NaN	NaN	NaN
1026.4456373000012	8.5385	sub-29	1	sequence	delay	dot	NaN	NaN	NaN	NaN	NaN	NaN	NaN	NaN	NaN	NaN	NaN	NaN
1034.9677186000008	0.919	sub-29	1	sequence	choice	choice	left	NaN	NaN	0.9008431999991444	True	NaN	NaN	left	True	5.0	3.0	5.0
1035.8869927000014	0.5	sub-29	1	sequence	feedback	NaN	NaN	NaN	NaN	NaN	NaN	NaN	NaN	NaN	NaN	NaN	NaN	NaN
1036.3871671000015	1.0007	sub-29	1	sequence	cue	Stuhl	NaN	NaN	NaN	NaN	NaN	NaN	NaN	NaN	NaN	NaN	NaN	NaN
1037.387885	2.0016	sub-29	1	sequence	blank	blank	NaN	NaN	NaN	NaN	NaN	NaN	NaN	NaN	NaN	NaN	NaN	NaN
1039.3894587000011	0.3001	sub-29	1	sequence	fixation	dot	NaN	NaN	NaN	NaN	NaN	NaN	NaN	NaN	NaN	NaN	NaN	NaN
1039.7079251000014	0.1151	sub-29	1	sequence	stimulus	Gesicht	NaN	NaN	32.0	NaN	NaN	1.0	1.0	NaN	NaN	NaN	NaN	NaN
1039.8230113999998	0.0335	sub-29	1	sequence	interval	dot	NaN	NaN	NaN	NaN	NaN	NaN	NaN	NaN	NaN	NaN	NaN	NaN
1039.8564963000008	0.0999	sub-29	1	sequence	stimulus	Haus	NaN	NaN	32.0	NaN	NaN	2.0	2.0	NaN	NaN	NaN	NaN	NaN
1039.9564210000008	0.0337	sub-29	1	sequence	interval	dot	NaN	NaN	NaN	NaN	NaN	NaN	NaN	NaN	NaN	NaN	NaN	NaN
1039.9901265000008	0.0999	sub-29	1	sequence	stimulus	Schuh	NaN	NaN	32.0	NaN	NaN	4.0	3.0	NaN	NaN	NaN	NaN	NaN
1040.0900262000014	0.0334	sub-29	1	sequence	interval	dot	NaN	NaN	NaN	NaN	NaN	NaN	NaN	NaN	NaN	NaN	NaN	NaN
1040.123476000001	0.0998	sub-29	1	sequence	stimulus	Katze	NaN	NaN	32.0	NaN	NaN	3.0	4.0	NaN	NaN	NaN	NaN	NaN
1040.2233163	0.0335	sub-29	1	sequence	interval	dot	NaN	NaN	NaN	NaN	NaN	NaN	NaN	NaN	NaN	NaN	NaN	NaN
1040.2568182000014	0.1	sub-29	1	sequence	stimulus	Stuhl	NaN	NaN	32.0	NaN	NaN	5.0	5.0	NaN	NaN	NaN	NaN	NaN
1040.3568535000013	0.0333	sub-29	1	sequence	interval	dot	NaN	NaN	NaN	NaN	NaN	NaN	NaN	NaN	NaN	NaN	NaN	NaN
1040.3901234000004	8.5387	sub-29	1	sequence	delay	dot	NaN	NaN	NaN	NaN	NaN	NaN	NaN	NaN	NaN	NaN	NaN	NaN
1048.9034023000004	1.3284	sub-29	1	sequence	choice	choice	right	NaN	NaN	1.2920952000004036	True	NaN	NaN	right	True	1.0	5.0	5.0
1050.2320944000005	0.5166	sub-29	1	sequence	feedback	NaN	NaN	NaN	NaN	NaN	NaN	NaN	NaN	NaN	NaN	NaN	NaN	NaN
1050.748829	0.9842	sub-29	1	sequence	cue	Schuh	NaN	NaN	NaN	NaN	NaN	NaN	NaN	NaN	NaN	NaN	NaN	NaN
1051.7330434000014	2.0013	sub-29	1	sequence	blank	blank	NaN	NaN	NaN	NaN	NaN	NaN	NaN	NaN	NaN	NaN	NaN	NaN
1053.7343275000003	0.3004	sub-29	1	sequence	fixation	dot	NaN	NaN	NaN	NaN	NaN	NaN	NaN	NaN	NaN	NaN	NaN	NaN
1054.0520985000005	0.0993	sub-29	1	sequence	stimulus	Gesicht	NaN	NaN	512.0	NaN	NaN	1.0	1.0	NaN	NaN	NaN	NaN	NaN
1054.1514024000007	0.5171	sub-29	1	sequence	interval	dot	NaN	NaN	NaN	NaN	NaN	NaN	NaN	NaN	NaN	NaN	NaN	NaN
1054.6684710000009	0.0999	sub-29	1	sequence	stimulus	Stuhl	NaN	NaN	512.0	NaN	NaN	5.0	2.0	NaN	NaN	NaN	NaN	NaN
1054.768403800001	0.5172	sub-29	1	sequence	interval	dot	NaN	NaN	NaN	NaN	NaN	NaN	NaN	NaN	NaN	NaN	NaN	NaN
1055.2856520000005	0.1	sub-29	1	sequence	stimulus	Katze	NaN	NaN	512.0	NaN	NaN	3.0	3.0	NaN	NaN	NaN	NaN	NaN
1055.3856178000003	0.5172	sub-29	1	sequence	interval	dot	NaN	NaN	NaN	NaN	NaN	NaN	NaN	NaN	NaN	NaN	NaN	NaN
1055.9027814	0.0999	sub-29	1	sequence	stimulus	Haus	NaN	NaN	512.0	NaN	NaN	2.0	4.0	NaN	NaN	NaN	NaN	NaN
1056.0027160999998	0.5172	sub-29	1	sequence	interval	dot	NaN	NaN	NaN	NaN	NaN	NaN	NaN	NaN	NaN	NaN	NaN	NaN
1056.519952300001	0.0999	sub-29	1	sequence	stimulus	Schuh	NaN	NaN	512.0	NaN	NaN	4.0	5.0	NaN	NaN	NaN	NaN	NaN
1056.619886800001	0.5171	sub-29	1	sequence	interval	dot	NaN	NaN	NaN	NaN	NaN	NaN	NaN	NaN	NaN	NaN	NaN	NaN
1057.1369942	6.1365	sub-29	1	sequence	delay	dot	NaN	NaN	NaN	NaN	NaN	NaN	NaN	NaN	NaN	NaN	NaN	NaN
1063.2551459000006	0.9045	sub-29	1	sequence	choice	choice	right	NaN	NaN	0.883345799999006	True	NaN	NaN	right	True	2.0	5.0	5.0
1064.1598608000004	0.4999	sub-29	1	sequence	feedback	NaN	NaN	NaN	NaN	NaN	NaN	NaN	NaN	NaN	NaN	NaN	NaN	NaN
1064.6599016	1.0007	sub-29	1	sequence	cue	Katze	NaN	NaN	NaN	NaN	NaN	NaN	NaN	NaN	NaN	NaN	NaN	NaN
1065.6605693	2.0016	sub-29	1	sequence	blank	blank	NaN	NaN	NaN	NaN	NaN	NaN	NaN	NaN	NaN	NaN	NaN	NaN
1067.6621665000002	0.3003	sub-29	1	sequence	fixation	dot	NaN	NaN	NaN	NaN	NaN	NaN	NaN	NaN	NaN	NaN	NaN	NaN
1067.980977700001	0.1149	sub-29	1	sequence	stimulus	Haus	NaN	NaN	512.0	NaN	NaN	2.0	1.0	NaN	NaN	NaN	NaN	NaN
1068.0958351000008	0.5172	sub-29	1	sequence	interval	dot	NaN	NaN	NaN	NaN	NaN	NaN	NaN	NaN	NaN	NaN	NaN	NaN
1068.6130412000002	0.1	sub-29	1	sequence	stimulus	Schuh	NaN	NaN	512.0	NaN	NaN	4.0	2.0	NaN	NaN	NaN	NaN	NaN
1068.7129994000006	0.5174	sub-29	1	sequence	interval	dot	NaN	NaN	NaN	NaN	NaN	NaN	NaN	NaN	NaN	NaN	NaN	NaN
1069.2303673000006	0.0999	sub-29	1	sequence	stimulus	Stuhl	NaN	NaN	512.0	NaN	NaN	5.0	3.0	NaN	NaN	NaN	NaN	NaN
1069.3303019000014	0.5173	sub-29	1	sequence	interval	dot	NaN	NaN	NaN	NaN	NaN	NaN	NaN	NaN	NaN	NaN	NaN	NaN
1069.8476396000003	0.0999	sub-29	1	sequence	stimulus	Katze	NaN	NaN	512.0	NaN	NaN	3.0	4.0	NaN	NaN	NaN	NaN	NaN
1069.9475390000007	0.5173	sub-29	1	sequence	interval	dot	NaN	NaN	NaN	NaN	NaN	NaN	NaN	NaN	NaN	NaN	NaN	NaN
1070.4648068000006	0.0999	sub-29	1	sequence	stimulus	Gesicht	NaN	NaN	512.0	NaN	NaN	1.0	5.0	NaN	NaN	NaN	NaN	NaN
1070.5647549000005	0.517	sub-29	1	sequence	interval	dot	NaN	NaN	NaN	NaN	NaN	NaN	NaN	NaN	NaN	NaN	NaN	NaN
1071.0817618	6.1532	sub-29	1	sequence	delay	dot	NaN	NaN	NaN	NaN	NaN	NaN	NaN	NaN	NaN	NaN	NaN	NaN
1077.2167696000015	1.2044	sub-29	1	sequence	choice	choice	right	NaN	NaN	1.185969300000579	True	NaN	NaN	right	True	3.0	4.0	4.0
1078.4214198999998	0.5	sub-29	1	sequence	feedback	NaN	NaN	NaN	NaN	NaN	NaN	NaN	NaN	NaN	NaN	NaN	NaN	NaN
1082.742003200001	0.4994	sub-29	1	localizer	stimulus	Haus	NaN	0	1.984672300000966	NaN	True	NaN	NaN	NaN	NaN	NaN	NaN	NaN
1083.2249823000002	1.9847	sub-29	1	localizer	blank	interval	NaN	NaN	NaN	NaN	NaN	NaN	NaN	NaN	NaN	NaN	NaN	NaN
1085.5108704000013	0.4995	sub-29	1	localizer	stimulus	Stuhl	NaN	180	2.635332199999766	0.6699437000006583	True	NaN	NaN	NaN	NaN	NaN	NaN	NaN
1085.9938182000003	2.6353	sub-29	1	localizer	blank	interval	NaN	NaN	NaN	NaN	NaN	NaN	NaN	NaN	NaN	NaN	NaN	NaN
1088.9302732000017	0.4994	sub-29	1	localizer	stimulus	Katze	NaN	0	2.5686588999997184	NaN	True	NaN	NaN	NaN	NaN	NaN	NaN	NaN
1089.4132493000016	2.5687	sub-29	1	localizer	blank	interval	NaN	NaN	NaN	NaN	NaN	NaN	NaN	NaN	NaN	NaN	NaN	NaN
1092.283058000001	0.5143	sub-29	1	localizer	stimulus	Katze	NaN	0	2.2869278999987728	NaN	True	NaN	NaN	NaN	NaN	NaN	NaN	NaN
1092.7640005000012	2.2869	sub-29	1	localizer	blank	interval	NaN	NaN	NaN	NaN	NaN	NaN	NaN	NaN	NaN	NaN	NaN	NaN
1095.3521871000012	0.4994	sub-29	1	localizer	stimulus	Haus	NaN	180	3.135831100000587	0.5726395000001503	True	NaN	NaN	NaN	NaN	NaN	NaN	NaN
1095.8350121000003	3.1358	sub-29	1	localizer	blank	interval	NaN	NaN	NaN	NaN	NaN	NaN	NaN	NaN	NaN	NaN	NaN	NaN
1099.2721150000016	0.4993	sub-29	1	localizer	stimulus	Haus	NaN	0	3.252594899999167	NaN	True	NaN	NaN	NaN	NaN	NaN	NaN	NaN
1099.7548873000014	3.2526	sub-29	1	localizer	blank	interval	NaN	NaN	NaN	NaN	NaN	NaN	NaN	NaN	NaN	NaN	NaN	NaN
1103.3086295000012	0.4994	sub-29	1	localizer	stimulus	Schuh	NaN	0	2.585287800000515	NaN	True	NaN	NaN	NaN	NaN	NaN	NaN	NaN
1103.7914535	2.5853	sub-29	1	localizer	blank	interval	NaN	NaN	NaN	NaN	NaN	NaN	NaN	NaN	NaN	NaN	NaN	NaN
1106.6779627000014	0.4995	sub-29	1	localizer	stimulus	Gesicht	NaN	0	2.9022515999986354	NaN	True	NaN	NaN	NaN	NaN	NaN	NaN	NaN
1107.1608583000016	2.9023	sub-29	1	localizer	blank	interval	NaN	NaN	NaN	NaN	NaN	NaN	NaN	NaN	NaN	NaN	NaN	NaN
1110.3643305000005	0.4994	sub-29	1	localizer	stimulus	Gesicht	NaN	0	2.185201700000107	NaN	True	NaN	NaN	NaN	NaN	NaN	NaN	NaN
1110.8471289000008	2.1852	sub-29	1	localizer	blank	interval	NaN	NaN	NaN	NaN	NaN	NaN	NaN	NaN	NaN	NaN	NaN	NaN
1113.3333834000005	0.5143	sub-29	1	localizer	stimulus	Stuhl	NaN	0	2.1700120999994397	NaN	True	NaN	NaN	NaN	NaN	NaN	NaN	NaN
1113.8144838000007	2.17	sub-29	1	localizer	blank	interval	NaN	NaN	NaN	NaN	NaN	NaN	NaN	NaN	NaN	NaN	NaN	NaN
1116.2857515000014	0.4994	sub-29	1	localizer	stimulus	Haus	NaN	0	2.9189163999999437	NaN	True	NaN	NaN	NaN	NaN	NaN	NaN	NaN
1116.768608100001	2.9189	sub-29	1	localizer	blank	interval	NaN	NaN	NaN	NaN	NaN	NaN	NaN	NaN	NaN	NaN	NaN	NaN
1119.9887212000012	0.4994	sub-29	1	localizer	stimulus	Gesicht	NaN	180	2.0850040999994235	0.6161166000001685	True	NaN	NaN	NaN	NaN	NaN	NaN	NaN
1120.471590700001	2.085	sub-29	1	localizer	blank	interval	NaN	NaN	NaN	NaN	NaN	NaN	NaN	NaN	NaN	NaN	NaN	NaN
1122.8576526000015	0.4995	sub-29	1	localizer	stimulus	Katze	NaN	0	2.3016963000009127	NaN	True	NaN	NaN	NaN	NaN	NaN	NaN	NaN
1123.3406044000003	2.3017	sub-29	1	localizer	blank	interval	NaN	NaN	NaN	NaN	NaN	NaN	NaN	NaN	NaN	NaN	NaN	NaN
1125.9435379000006	0.4995	sub-29	1	localizer	stimulus	Stuhl	NaN	0	2.685395399999834	NaN	True	NaN	NaN	NaN	NaN	NaN	NaN	NaN
