onset	duration	subject	session	condition	trial_type	stim_label	key_down	orientation	interval_time	response_time	accuracy	stim_index	serial_position	key_expected	key_pressed	choice_left	choice_right	choice_correct
1.229753300000084	1.2432	sub-30	1	instruction	instruction	language_selection	german	NaN	NaN	NaN	NaN	NaN	NaN	NaN	NaN	NaN	NaN	NaN
37.43532190000042	0.4994	sub-30	1	localizer	stimulus	Stuhl	NaN	0	3.3359395999996195	NaN	1.0	NaN	NaN	NaN	NaN	NaN	NaN	NaN
37.91827960000046	3.3359	sub-30	1	localizer	blank	interval	NaN	NaN	NaN	NaN	NaN	NaN	NaN	NaN	NaN	NaN	NaN	NaN
41.55523799999992	0.4996	sub-30	1	localizer	stimulus	Schuh	NaN	0	2.435036400000172	NaN	True	NaN	NaN	NaN	NaN	NaN	NaN	NaN
42.03831160000027	2.435	sub-30	1	localizer	blank	interval	NaN	NaN	NaN	NaN	NaN	NaN	NaN	NaN	NaN	NaN	NaN	NaN
44.77452880000055	0.4996	sub-30	1	localizer	stimulus	Stuhl	NaN	0	3.052258000000627	NaN	True	NaN	NaN	NaN	NaN	NaN	NaN	NaN
45.257536099999925	3.0523	sub-30	1	localizer	blank	interval	NaN	NaN	NaN	NaN	NaN	NaN	NaN	NaN	NaN	NaN	NaN	NaN
48.610972100000254	0.4996	sub-30	1	localizer	stimulus	Haus	NaN	180	2.752039500000137	0.5327597999994396	True	NaN	NaN	NaN	NaN	NaN	NaN	NaN
49.09396060000017	2.752	sub-30	1	localizer	blank	interval	NaN	NaN	NaN	NaN	NaN	NaN	NaN	NaN	NaN	NaN	NaN	NaN
52.14714090000052	0.4995	sub-30	1	localizer	stimulus	Schuh	NaN	0	2.1849922000001243	NaN	True	NaN	NaN	NaN	NaN	NaN	NaN	NaN
52.6300796000005	2.185	sub-30	1	localizer	blank	interval	NaN	NaN	NaN	NaN	NaN	NaN	NaN	NaN	NaN	NaN	NaN	NaN
55.11624490000031	0.4994	sub-30	1	localizer	stimulus	Schuh	NaN	180	2.2016389000000416	0.4994309999992765	True	NaN	NaN	NaN	NaN	NaN	NaN	NaN
55.59914050000043	2.2016	sub-30	1	localizer	blank	interval	NaN	NaN	NaN	NaN	NaN	NaN	NaN	NaN	NaN	NaN	NaN	NaN
58.1019924000002	0.4994	sub-30	1	localizer	stimulus	Haus	NaN	0	1.6344933000000381	NaN	True	NaN	NaN	NaN	NaN	NaN	NaN	NaN
58.584919300000365	1.6345	sub-30	1	localizer	blank	interval	NaN	NaN	NaN	NaN	NaN	NaN	NaN	NaN	NaN	NaN	NaN	NaN
60.52074429999993	0.4994	sub-30	1	localizer	stimulus	Haus	NaN	0	2.56674060000023	NaN	True	NaN	NaN	NaN	NaN	NaN	NaN	NaN
61.00366930000018	2.5667	sub-30	1	localizer	blank	interval	NaN	NaN	NaN	NaN	NaN	NaN	NaN	NaN	NaN	NaN	NaN	NaN
63.87363689999984	0.4995	sub-30	1	localizer	stimulus	Stuhl	NaN	180	1.7678281999997125	0.5099765999993906	True	NaN	NaN	NaN	NaN	NaN	NaN	NaN
64.35648700000002	1.7678	sub-30	1	localizer	blank	interval	NaN	NaN	NaN	NaN	NaN	NaN	NaN	NaN	NaN	NaN	NaN	NaN
66.42535029999999	0.4995	sub-30	1	localizer	stimulus	Stuhl	NaN	0	2.435277600000518	NaN	True	NaN	NaN	NaN	NaN	NaN	NaN	NaN
66.90825899999982	2.4353	sub-30	1	localizer	blank	interval	NaN	NaN	NaN	NaN	NaN	NaN	NaN	NaN	NaN	NaN	NaN	NaN
69.64461530000062	0.4995	sub-30	1	localizer	stimulus	Katze	NaN	180	2.568736700000045	0.4990173000005597	True	NaN	NaN	NaN	NaN	NaN	NaN	NaN
70.12754020000011	2.5687	sub-30	1	localizer	blank	interval	NaN	NaN	NaN	NaN	NaN	NaN	NaN	NaN	NaN	NaN	NaN	NaN
72.99732050000057	0.4996	sub-30	1	localizer	stimulus	Schuh	NaN	0	2.251538000000437	NaN	True	NaN	NaN	NaN	NaN	NaN	NaN	NaN
73.48051469999973	2.2515	sub-30	1	localizer	blank	interval	NaN	NaN	NaN	NaN	NaN	NaN	NaN	NaN	NaN	NaN	NaN	NaN
76.03313510000044	0.4994	sub-30	1	localizer	stimulus	Katze	NaN	0	3.135747199999969	NaN	True	NaN	NaN	NaN	NaN	NaN	NaN	NaN
76.51615240000046	3.1357	sub-30	1	localizer	blank	interval	NaN	NaN	NaN	NaN	NaN	NaN	NaN	NaN	NaN	NaN	NaN	NaN
79.95295540000006	0.4996	sub-30	1	localizer	stimulus	Haus	NaN	0	1.9848172000001796	NaN	True	NaN	NaN	NaN	NaN	NaN	NaN	NaN
80.4359156999999	1.9848	sub-30	1	localizer	blank	interval	NaN	NaN	NaN	NaN	NaN	NaN	NaN	NaN	NaN	NaN	NaN	NaN
82.72192369999993	0.4997	sub-30	1	localizer	stimulus	Katze	NaN	0	3.3691232000001037	NaN	True	NaN	NaN	NaN	NaN	NaN	NaN	NaN
83.20501289999993	3.3691	sub-30	1	localizer	blank	interval	NaN	NaN	NaN	NaN	NaN	NaN	NaN	NaN	NaN	NaN	NaN	NaN
86.8752457999999	0.4994	sub-30	1	localizer	stimulus	Katze	NaN	0	3.1023887000001196	NaN	True	NaN	NaN	NaN	NaN	NaN	NaN	NaN
87.35813460000008	3.1024	sub-30	1	localizer	blank	interval	NaN	NaN	NaN	NaN	NaN	NaN	NaN	NaN	NaN	NaN	NaN	NaN
90.76172169999973	0.4994	sub-30	1	localizer	stimulus	Gesicht	NaN	180	2.618620300000643	0.5019977000001745	True	NaN	NaN	NaN	NaN	NaN	NaN	NaN
91.24463509999988	2.6186	sub-30	1	localizer	blank	interval	NaN	NaN	NaN	NaN	NaN	NaN	NaN	NaN	NaN	NaN	NaN	NaN
94.16446739999992	0.4994	sub-30	1	localizer	stimulus	Katze	NaN	0	3.235825499999919	NaN	True	NaN	NaN	NaN	NaN	NaN	NaN	NaN
94.64738209999996	3.2358	sub-30	1	localizer	blank	interval	NaN	NaN	NaN	NaN	NaN	NaN	NaN	NaN	NaN	NaN	NaN	NaN
98.18437129999984	0.4995	sub-30	1	localizer	stimulus	Stuhl	NaN	0	2.935614600000008	NaN	True	NaN	NaN	NaN	NaN	NaN	NaN	NaN
98.66725440000027	2.9356	sub-30	1	localizer	blank	interval	NaN	NaN	NaN	NaN	NaN	NaN	NaN	NaN	NaN	NaN	NaN	NaN
101.90409869999984	0.4994	sub-30	1	localizer	stimulus	Gesicht	NaN	0	3.185883299999631	NaN	True	NaN	NaN	NaN	NaN	NaN	NaN	NaN
102.3869891000004	3.1859	sub-30	1	localizer	blank	interval	NaN	NaN	NaN	NaN	NaN	NaN	NaN	NaN	NaN	NaN	NaN	NaN
105.87410439999984	0.4996	sub-30	1	localizer	stimulus	Haus	NaN	0	2.084615400000075	NaN	True	NaN	NaN	NaN	NaN	NaN	NaN	NaN
106.35712030000012	2.0846	sub-30	1	localizer	blank	interval	NaN	NaN	NaN	NaN	NaN	NaN	NaN	NaN	NaN	NaN	NaN	NaN
108.74287319999983	0.4995	sub-30	1	localizer	stimulus	Gesicht	NaN	0	2.5873725999999806	NaN	True	NaN	NaN	NaN	NaN	NaN	NaN	NaN
109.2258541000001	2.5874	sub-30	1	localizer	blank	interval	NaN	NaN	NaN	NaN	NaN	NaN	NaN	NaN	NaN	NaN	NaN	NaN
112.12897740000062	0.4996	sub-30	1	localizer	stimulus	Gesicht	NaN	0	2.6675875999999192	NaN	True	NaN	NaN	NaN	NaN	NaN	NaN	NaN
112.6130589000004	2.6676	sub-30	1	localizer	blank	interval	NaN	NaN	NaN	NaN	NaN	NaN	NaN	NaN	NaN	NaN	NaN	NaN
115.5817431000005	0.4994	sub-30	1	localizer	stimulus	Schuh	NaN	0	2.2016935000001467	NaN	True	NaN	NaN	NaN	NaN	NaN	NaN	NaN
116.06468010000026	2.2017	sub-30	1	localizer	blank	interval	NaN	NaN	NaN	NaN	NaN	NaN	NaN	NaN	NaN	NaN	NaN	NaN
118.56747790000009	0.4995	sub-30	1	localizer	stimulus	Gesicht	NaN	0	2.735351000000236	0.7199792999999772	False	NaN	NaN	NaN	NaN	NaN	NaN	NaN
119.05044629999976	2.7354	sub-30	1	localizer	blank	interval	NaN	NaN	NaN	NaN	NaN	NaN	NaN	NaN	NaN	NaN	NaN	NaN
125.27243400000044	1.0005	sub-30	1	sequence	cue	Katze	NaN	NaN	NaN	NaN	NaN	NaN	NaN	NaN	NaN	NaN	NaN	NaN
126.27295000000048	2.0015	sub-30	1	sequence	blank	blank	NaN	NaN	NaN	NaN	NaN	NaN	NaN	NaN	NaN	NaN	NaN	NaN
128.27444259999993	0.3002	sub-30	1	sequence	fixation	dot	NaN	NaN	NaN	NaN	NaN	NaN	NaN	NaN	NaN	NaN	NaN	NaN
128.62297339999986	0.1018	sub-30	1	sequence	stimulus	Gesicht	NaN	NaN	512.0	NaN	NaN	1.0	1.0	NaN	NaN	NaN	NaN	NaN
128.7247741000001	0.5172	sub-30	1	sequence	interval	dot	NaN	NaN	NaN	NaN	NaN	NaN	NaN	NaN	NaN	NaN	NaN	NaN
129.24199980000049	0.0999	sub-30	1	sequence	stimulus	Schuh	NaN	NaN	512.0	NaN	NaN	4.0	2.0	NaN	NaN	NaN	NaN	NaN
129.34193229999985	0.5173	sub-30	1	sequence	interval	dot	NaN	NaN	NaN	NaN	NaN	NaN	NaN	NaN	NaN	NaN	NaN	NaN
129.85918579999998	0.0999	sub-30	1	sequence	stimulus	Haus	NaN	NaN	512.0	NaN	NaN	2.0	3.0	NaN	NaN	NaN	NaN	NaN
129.9590732000006	0.5173	sub-30	1	sequence	interval	dot	NaN	NaN	NaN	NaN	NaN	NaN	NaN	NaN	NaN	NaN	NaN	NaN
130.47633170000063	0.0999	sub-30	1	sequence	stimulus	Stuhl	NaN	NaN	512.0	NaN	NaN	5.0	4.0	NaN	NaN	NaN	NaN	NaN
130.57626720000007	0.5173	sub-30	1	sequence	interval	dot	NaN	NaN	NaN	NaN	NaN	NaN	NaN	NaN	NaN	NaN	NaN	NaN
131.09352949999993	0.0999	sub-30	1	sequence	stimulus	Katze	NaN	NaN	512.0	NaN	NaN	3.0	5.0	NaN	NaN	NaN	NaN	NaN
131.19342599999982	0.5172	sub-30	1	sequence	interval	dot	NaN	NaN	NaN	NaN	NaN	NaN	NaN	NaN	NaN	NaN	NaN	NaN
131.71060940000007	6.1363	sub-30	1	sequence	delay	dot	NaN	NaN	NaN	NaN	NaN	NaN	NaN	NaN	NaN	NaN	NaN	NaN
137.83084430000054	0.9858	sub-30	1	sequence	choice	choice	left	NaN	NaN	0.9687065999996776	True	NaN	NaN	left	1.0	5.0	3.0	5.0
138.81702140000016	0.4999	sub-30	1	sequence	feedback	NaN	NaN	NaN	NaN	NaN	NaN	NaN	NaN	NaN	NaN	NaN	NaN	NaN
139.31710300000032	1.0004	sub-30	1	sequence	cue	Haus	NaN	NaN	NaN	NaN	NaN	NaN	NaN	NaN	NaN	NaN	NaN	NaN
140.3175437	2.0015	sub-30	1	sequence	blank	blank	NaN	NaN	NaN	NaN	NaN	NaN	NaN	NaN	NaN	NaN	NaN	NaN
142.3190881999999	0.3004	sub-30	1	sequence	fixation	dot	NaN	NaN	NaN	NaN	NaN	NaN	NaN	NaN	NaN	NaN	NaN	NaN
142.63744190000034	0.1153	sub-30	1	sequence	stimulus	Schuh	NaN	NaN	512.0	NaN	NaN	4.0	1.0	NaN	NaN	NaN	NaN	NaN
142.7527452000004	0.5173	sub-30	1	sequence	interval	dot	NaN	NaN	NaN	NaN	NaN	NaN	NaN	NaN	NaN	NaN	NaN	NaN
143.2700263000006	0.0999	sub-30	1	sequence	stimulus	Katze	NaN	NaN	512.0	NaN	NaN	3.0	2.0	NaN	NaN	NaN	NaN	NaN
143.36991790000047	0.5173	sub-30	1	sequence	interval	dot	NaN	NaN	NaN	NaN	NaN	NaN	NaN	NaN	NaN	NaN	NaN	NaN
143.88718710000012	0.0999	sub-30	1	sequence	stimulus	Haus	NaN	NaN	512.0	NaN	NaN	2.0	3.0	NaN	NaN	NaN	NaN	NaN
143.98710290000054	0.5173	sub-30	1	sequence	interval	dot	NaN	NaN	NaN	NaN	NaN	NaN	NaN	NaN	NaN	NaN	NaN	NaN
144.5044085999998	0.0999	sub-30	1	sequence	stimulus	Stuhl	NaN	NaN	512.0	NaN	NaN	5.0	4.0	NaN	NaN	NaN	NaN	NaN
144.6043432000006	0.5173	sub-30	1	sequence	interval	dot	NaN	NaN	NaN	NaN	NaN	NaN	NaN	NaN	NaN	NaN	NaN	NaN
145.12166669999988	0.0999	sub-30	1	sequence	stimulus	Gesicht	NaN	NaN	512.0	NaN	NaN	1.0	5.0	NaN	NaN	NaN	NaN	NaN
145.22161070000038	0.5171	sub-30	1	sequence	interval	dot	NaN	NaN	NaN	NaN	NaN	NaN	NaN	NaN	NaN	NaN	NaN	NaN
145.73872740000024	6.1532	sub-30	1	sequence	delay	dot	NaN	NaN	NaN	NaN	NaN	NaN	NaN	NaN	NaN	NaN	NaN	NaN
151.87054140000055	0.8406	sub-30	1	sequence	choice	choice	right	NaN	NaN	0.8035575000003519	True	NaN	NaN	right	True	5.0	3.0	3.0
152.71137869999984	0.4999	sub-30	1	sequence	feedback	NaN	NaN	NaN	NaN	NaN	NaN	NaN	NaN	NaN	NaN	NaN	NaN	NaN
153.21140060000016	1.0007	sub-30	1	sequence	cue	Stuhl	NaN	NaN	NaN	NaN	NaN	NaN	NaN	NaN	NaN	NaN	NaN	NaN
154.21208509999997	2.0016	sub-30	1	sequence	blank	blank	NaN	NaN	NaN	NaN	NaN	NaN	NaN	NaN	NaN	NaN	NaN	NaN
156.21366500000022	0.3003	sub-30	1	sequence	fixation	dot	NaN	NaN	NaN	NaN	NaN	NaN	NaN	NaN	NaN	NaN	NaN	NaN
156.53197650000038	0.1154	sub-30	1	sequence	stimulus	Katze	NaN	NaN	128.0	NaN	NaN	3.0	1.0	NaN	NaN	NaN	NaN	NaN
156.64733909999995	0.1336	sub-30	1	sequence	interval	dot	NaN	NaN	NaN	NaN	NaN	NaN	NaN	NaN	NaN	NaN	NaN	NaN
156.7809231000001	0.1	sub-30	1	sequence	stimulus	Gesicht	NaN	NaN	128.0	NaN	NaN	1.0	2.0	NaN	NaN	NaN	NaN	NaN
156.88087590000032	0.1336	sub-30	1	sequence	interval	dot	NaN	NaN	NaN	NaN	NaN	NaN	NaN	NaN	NaN	NaN	NaN	NaN
157.01444119999996	0.1	sub-30	1	sequence	stimulus	Haus	NaN	NaN	128.0	NaN	NaN	2.0	3.0	NaN	NaN	NaN	NaN	NaN
157.1144060000006	0.1336	sub-30	1	sequence	interval	dot	NaN	NaN	NaN	NaN	NaN	NaN	NaN	NaN	NaN	NaN	NaN	NaN
157.2479572000002	0.1	sub-30	1	sequence	stimulus	Stuhl	NaN	NaN	128.0	NaN	NaN	5.0	4.0	NaN	NaN	NaN	NaN	NaN
157.34792079999988	0.1336	sub-30	1	sequence	interval	dot	NaN	NaN	NaN	NaN	NaN	NaN	NaN	NaN	NaN	NaN	NaN	NaN
157.4814817000006	0.0999	sub-30	1	sequence	stimulus	Schuh	NaN	NaN	128.0	NaN	NaN	4.0	5.0	NaN	NaN	NaN	NaN	NaN
157.58141739999974	0.1335	sub-30	1	sequence	interval	dot	NaN	NaN	NaN	NaN	NaN	NaN	NaN	NaN	NaN	NaN	NaN	NaN
157.71487380000053	8.0546	sub-30	1	sequence	delay	dot	NaN	NaN	NaN	NaN	NaN	NaN	NaN	NaN	NaN	NaN	NaN	NaN
165.7542069000001	1.6523	sub-30	1	sequence	choice	choice	left	NaN	NaN	1.63001660000009	True	NaN	NaN	left	True	4.0	5.0	4.0
167.40678019999996	0.4998	sub-30	1	sequence	feedback	NaN	NaN	NaN	NaN	NaN	NaN	NaN	NaN	NaN	NaN	NaN	NaN	NaN
167.9067257000006	1.0008	sub-30	1	sequence	cue	Schuh	NaN	NaN	NaN	NaN	NaN	NaN	NaN	NaN	NaN	NaN	NaN	NaN
168.9075201000005	2.0014	sub-30	1	sequence	blank	blank	NaN	NaN	NaN	NaN	NaN	NaN	NaN	NaN	NaN	NaN	NaN	NaN
170.90887930000008	0.3004	sub-30	1	sequence	fixation	dot	NaN	NaN	NaN	NaN	NaN	NaN	NaN	NaN	NaN	NaN	NaN	NaN
171.22751010000047	0.115	sub-30	1	sequence	stimulus	Stuhl	NaN	NaN	64.0	NaN	NaN	5.0	1.0	NaN	NaN	NaN	NaN	NaN
171.34255080000003	0.0668	sub-30	1	sequence	interval	dot	NaN	NaN	NaN	NaN	NaN	NaN	NaN	NaN	NaN	NaN	NaN	NaN
171.40939739999976	0.0999	sub-30	1	sequence	stimulus	Gesicht	NaN	NaN	64.0	NaN	NaN	1.0	2.0	NaN	NaN	NaN	NaN	NaN
171.5093469000003	0.0669	sub-30	1	sequence	interval	dot	NaN	NaN	NaN	NaN	NaN	NaN	NaN	NaN	NaN	NaN	NaN	NaN
171.57622900000024	0.0999	sub-30	1	sequence	stimulus	Katze	NaN	NaN	64.0	NaN	NaN	3.0	3.0	NaN	NaN	NaN	NaN	NaN
171.6761559000006	0.0669	sub-30	1	sequence	interval	dot	NaN	NaN	NaN	NaN	NaN	NaN	NaN	NaN	NaN	NaN	NaN	NaN
171.74301120000018	0.0999	sub-30	1	sequence	stimulus	Schuh	NaN	NaN	64.0	NaN	NaN	4.0	4.0	NaN	NaN	NaN	NaN	NaN
171.84295240000029	0.067	sub-30	1	sequence	interval	dot	NaN	NaN	NaN	NaN	NaN	NaN	NaN	NaN	NaN	NaN	NaN	NaN
171.90994520000004	0.0998	sub-30	1	sequence	stimulus	Haus	NaN	NaN	64.0	NaN	NaN	2.0	5.0	NaN	NaN	NaN	NaN	NaN
172.00975449999987	0.0667	sub-30	1	sequence	interval	dot	NaN	NaN	NaN	NaN	NaN	NaN	NaN	NaN	NaN	NaN	NaN	NaN
172.0764952999998	8.3881	sub-30	1	sequence	delay	dot	NaN	NaN	NaN	NaN	NaN	NaN	NaN	NaN	NaN	NaN	NaN	NaN
180.44395110000005	0.807	sub-30	1	sequence	choice	choice	right	NaN	NaN	0.7831264000005831	True	NaN	NaN	right	True	1.0	4.0	4.0
181.2511856000001	0.5	sub-30	1	sequence	feedback	NaN	NaN	NaN	NaN	NaN	NaN	NaN	NaN	NaN	NaN	NaN	NaN	NaN
181.75144350000028	1.0004	sub-30	1	sequence	cue	Stuhl	NaN	NaN	NaN	NaN	NaN	NaN	NaN	NaN	NaN	NaN	NaN	NaN
182.75181299999983	2.0016	sub-30	1	sequence	blank	blank	NaN	NaN	NaN	NaN	NaN	NaN	NaN	NaN	NaN	NaN	NaN	NaN
184.75342189999992	0.3003	sub-30	1	sequence	fixation	dot	NaN	NaN	NaN	NaN	NaN	NaN	NaN	NaN	NaN	NaN	NaN	NaN
185.07124860000025	0.0992	sub-30	1	sequence	stimulus	Katze	NaN	NaN	32.0	NaN	NaN	3.0	1.0	NaN	NaN	NaN	NaN	NaN
185.17039900000051	0.0336	sub-30	1	sequence	interval	dot	NaN	NaN	NaN	NaN	NaN	NaN	NaN	NaN	NaN	NaN	NaN	NaN
185.2039568	0.1	sub-30	1	sequence	stimulus	Gesicht	NaN	NaN	32.0	NaN	NaN	1.0	2.0	NaN	NaN	NaN	NaN	NaN
185.30398250000053	0.0337	sub-30	1	sequence	interval	dot	NaN	NaN	NaN	NaN	NaN	NaN	NaN	NaN	NaN	NaN	NaN	NaN
185.33767940000047	0.0996	sub-30	1	sequence	stimulus	Schuh	NaN	NaN	32.0	NaN	NaN	4.0	3.0	NaN	NaN	NaN	NaN	NaN
185.4372782999999	0.0335	sub-30	1	sequence	interval	dot	NaN	NaN	NaN	NaN	NaN	NaN	NaN	NaN	NaN	NaN	NaN	NaN
185.47074429999972	0.1	sub-30	1	sequence	stimulus	Stuhl	NaN	NaN	32.0	NaN	NaN	5.0	4.0	NaN	NaN	NaN	NaN	NaN
185.57071160000032	0.0336	sub-30	1	sequence	interval	dot	NaN	NaN	NaN	NaN	NaN	NaN	NaN	NaN	NaN	NaN	NaN	NaN
185.60430989999983	0.0999	sub-30	1	sequence	stimulus	Haus	NaN	NaN	32.0	NaN	NaN	2.0	5.0	NaN	NaN	NaN	NaN	NaN
185.7041765000004	0.0333	sub-30	1	sequence	interval	dot	NaN	NaN	NaN	NaN	NaN	NaN	NaN	NaN	NaN	NaN	NaN	NaN
185.73752289999996	8.5385	sub-30	1	sequence	delay	dot	NaN	NaN	NaN	NaN	NaN	NaN	NaN	NaN	NaN	NaN	NaN	NaN
194.24952790000043	0.7124	sub-30	1	sequence	choice	choice	right	NaN	NaN	0.6754197000000204	True	NaN	NaN	right	True	3.0	4.0	4.0
194.9622340000005	0.5	sub-30	1	sequence	feedback	NaN	NaN	NaN	NaN	NaN	NaN	NaN	NaN	NaN	NaN	NaN	NaN	NaN
195.4624703999998	1.0007	sub-30	1	sequence	cue	Katze	NaN	NaN	NaN	NaN	NaN	NaN	NaN	NaN	NaN	NaN	NaN	NaN
196.4631527000001	2.0013	sub-30	1	sequence	blank	blank	NaN	NaN	NaN	NaN	NaN	NaN	NaN	NaN	NaN	NaN	NaN	NaN
198.46449459999985	0.3003	sub-30	1	sequence	fixation	dot	NaN	NaN	NaN	NaN	NaN	NaN	NaN	NaN	NaN	NaN	NaN	NaN
198.78323199999977	0.1149	sub-30	1	sequence	stimulus	Stuhl	NaN	NaN	128.0	NaN	NaN	5.0	1.0	NaN	NaN	NaN	NaN	NaN
198.89816260000043	0.1335	sub-30	1	sequence	interval	dot	NaN	NaN	NaN	NaN	NaN	NaN	NaN	NaN	NaN	NaN	NaN	NaN
199.0317098000005	0.1	sub-30	1	sequence	stimulus	Schuh	NaN	NaN	128.0	NaN	NaN	4.0	2.0	NaN	NaN	NaN	NaN	NaN
199.1316889	0.1336	sub-30	1	sequence	interval	dot	NaN	NaN	NaN	NaN	NaN	NaN	NaN	NaN	NaN	NaN	NaN	NaN
199.2652576999999	0.1	sub-30	1	sequence	stimulus	Katze	NaN	NaN	128.0	NaN	NaN	3.0	3.0	NaN	NaN	NaN	NaN	NaN
199.3652299000005	0.1335	sub-30	1	sequence	interval	dot	NaN	NaN	NaN	NaN	NaN	NaN	NaN	NaN	NaN	NaN	NaN	NaN
199.4987753000005	0.1	sub-30	1	sequence	stimulus	Gesicht	NaN	NaN	128.0	NaN	NaN	1.0	4.0	NaN	NaN	NaN	NaN	NaN
199.5987347	0.1336	sub-30	1	sequence	interval	dot	NaN	NaN	NaN	NaN	NaN	NaN	NaN	NaN	NaN	NaN	NaN	NaN
199.73232689999983	0.0999	sub-30	1	sequence	stimulus	Haus	NaN	NaN	128.0	NaN	NaN	2.0	5.0	NaN	NaN	NaN	NaN	NaN
199.83225420000053	0.1334	sub-30	1	sequence	interval	dot	NaN	NaN	NaN	NaN	NaN	NaN	NaN	NaN	NaN	NaN	NaN	NaN
199.9656875999999	8.055	sub-30	1	sequence	delay	dot	NaN	NaN	NaN	NaN	NaN	NaN	NaN	NaN	NaN	NaN	NaN	NaN
208.0032245000002	0.8368	sub-30	1	sequence	choice	choice	right	NaN	NaN	0.8108612999994875	True	NaN	NaN	right	True	1.0	3.0	3.0
208.8402530000003	0.4998	sub-30	1	sequence	feedback	NaN	NaN	NaN	NaN	NaN	NaN	NaN	NaN	NaN	NaN	NaN	NaN	NaN
209.3402145	1.0008	sub-30	1	sequence	cue	Katze	NaN	NaN	NaN	NaN	NaN	NaN	NaN	NaN	NaN	NaN	NaN	NaN
210.34104900000057	2.0013	sub-30	1	sequence	blank	blank	NaN	NaN	NaN	NaN	NaN	NaN	NaN	NaN	NaN	NaN	NaN	NaN
212.34235530000024	0.3003	sub-30	1	sequence	fixation	dot	NaN	NaN	NaN	NaN	NaN	NaN	NaN	NaN	NaN	NaN	NaN	NaN
212.6613729999999	0.1147	sub-30	1	sequence	stimulus	Haus	NaN	NaN	32.0	NaN	NaN	2.0	1.0	NaN	NaN	NaN	NaN	NaN
212.7760328000004	0.0335	sub-30	1	sequence	interval	dot	NaN	NaN	NaN	NaN	NaN	NaN	NaN	NaN	NaN	NaN	NaN	NaN
212.8095014999999	0.1	sub-30	1	sequence	stimulus	Schuh	NaN	NaN	32.0	NaN	NaN	4.0	2.0	NaN	NaN	NaN	NaN	NaN
212.9095140999998	0.0335	sub-30	1	sequence	interval	dot	NaN	NaN	NaN	NaN	NaN	NaN	NaN	NaN	NaN	NaN	NaN	NaN
212.9430054000004	0.0999	sub-30	1	sequence	stimulus	Stuhl	NaN	NaN	32.0	NaN	NaN	5.0	3.0	NaN	NaN	NaN	NaN	NaN
213.04293980000057	0.0334	sub-30	1	sequence	interval	dot	NaN	NaN	NaN	NaN	NaN	NaN	NaN	NaN	NaN	NaN	NaN	NaN
213.07638080000012	0.1	sub-30	1	sequence	stimulus	Gesicht	NaN	NaN	32.0	NaN	NaN	1.0	4.0	NaN	NaN	NaN	NaN	NaN
213.1763652	0.0335	sub-30	1	sequence	interval	dot	NaN	NaN	NaN	NaN	NaN	NaN	NaN	NaN	NaN	NaN	NaN	NaN
213.20982640000057	0.1	sub-30	1	sequence	stimulus	Katze	NaN	NaN	32.0	NaN	NaN	3.0	5.0	NaN	NaN	NaN	NaN	NaN
213.3098030000001	0.0333	sub-30	1	sequence	interval	dot	NaN	NaN	NaN	NaN	NaN	NaN	NaN	NaN	NaN	NaN	NaN	NaN
213.3431367000003	8.5386	sub-30	1	sequence	delay	dot	NaN	NaN	NaN	NaN	NaN	NaN	NaN	NaN	NaN	NaN	NaN	NaN
221.86083390000024	0.9903	sub-30	1	sequence	choice	choice	left	NaN	NaN	0.9657016000001022	True	NaN	NaN	left	True	5.0	3.0	5.0
222.85136140000031	0.5	sub-30	1	sequence	feedback	NaN	NaN	NaN	NaN	NaN	NaN	NaN	NaN	NaN	NaN	NaN	NaN	NaN
223.35151039999985	1.0007	sub-30	1	sequence	cue	Schuh	NaN	NaN	NaN	NaN	NaN	NaN	NaN	NaN	NaN	NaN	NaN	NaN
224.35222760000036	2.0016	sub-30	1	sequence	blank	blank	NaN	NaN	NaN	NaN	NaN	NaN	NaN	NaN	NaN	NaN	NaN	NaN
226.35379019999985	0.3002	sub-30	1	sequence	fixation	dot	NaN	NaN	NaN	NaN	NaN	NaN	NaN	NaN	NaN	NaN	NaN	NaN
226.67157450000013	0.0991	sub-30	1	sequence	stimulus	Haus	NaN	NaN	64.0	NaN	NaN	2.0	1.0	NaN	NaN	NaN	NaN	NaN
226.7706937000003	0.067	sub-30	1	sequence	interval	dot	NaN	NaN	NaN	NaN	NaN	NaN	NaN	NaN	NaN	NaN	NaN	NaN
226.8376876000002	0.0998	sub-30	1	sequence	stimulus	Katze	NaN	NaN	64.0	NaN	NaN	3.0	2.0	NaN	NaN	NaN	NaN	NaN
226.93746869999995	0.0669	sub-30	1	sequence	interval	dot	NaN	NaN	NaN	NaN	NaN	NaN	NaN	NaN	NaN	NaN	NaN	NaN
227.00440059999983	0.0999	sub-30	1	sequence	stimulus	Schuh	NaN	NaN	64.0	NaN	NaN	4.0	3.0	NaN	NaN	NaN	NaN	NaN
227.10427150000032	0.0669	sub-30	1	sequence	interval	dot	NaN	NaN	NaN	NaN	NaN	NaN	NaN	NaN	NaN	NaN	NaN	NaN
227.1711341	0.1002	sub-30	1	sequence	stimulus	Gesicht	NaN	NaN	64.0	NaN	NaN	1.0	4.0	NaN	NaN	NaN	NaN	NaN
227.2713263000005	0.0667	sub-30	1	sequence	interval	dot	NaN	NaN	NaN	NaN	NaN	NaN	NaN	NaN	NaN	NaN	NaN	NaN
227.3380462000005	0.1	sub-30	1	sequence	stimulus	Stuhl	NaN	NaN	64.0	NaN	NaN	5.0	5.0	NaN	NaN	NaN	NaN	NaN
227.43807410000045	0.0665	sub-30	1	sequence	interval	dot	NaN	NaN	NaN	NaN	NaN	NaN	NaN	NaN	NaN	NaN	NaN	NaN
227.5045995999999	8.3885	sub-30	1	sequence	delay	dot	NaN	NaN	NaN	NaN	NaN	NaN	NaN	NaN	NaN	NaN	NaN	NaN
235.87455930000036	0.8711	sub-30	1	sequence	choice	choice	left	NaN	NaN	0.8423413000000437	True	NaN	NaN	left	True	3.0	4.0	3.0
236.7459398000001	0.4999	sub-30	1	sequence	feedback	NaN	NaN	NaN	NaN	NaN	NaN	NaN	NaN	NaN	NaN	NaN	NaN	NaN
241.06659730000047	0.4994	sub-30	1	localizer	stimulus	Katze	NaN	0	2.3517712000002575	NaN	True	NaN	NaN	NaN	NaN	NaN	NaN	NaN
241.5495394999998	2.3518	sub-30	1	localizer	blank	interval	NaN	NaN	NaN	NaN	NaN	NaN	NaN	NaN	NaN	NaN	NaN	NaN
244.2023509999999	0.4994	sub-30	1	localizer	stimulus	Katze	NaN	0	2.8187899000004393	NaN	True	NaN	NaN	NaN	NaN	NaN	NaN	NaN
244.6853922	2.8188	sub-30	1	localizer	blank	interval	NaN	NaN	NaN	NaN	NaN	NaN	NaN	NaN	NaN	NaN	NaN	NaN
247.8052744000006	0.4995	sub-30	1	localizer	stimulus	Haus	NaN	180	2.5521021000004396	0.5060923000000912	True	NaN	NaN	NaN	NaN	NaN	NaN	NaN
248.28825049999975	2.5521	sub-30	1	localizer	blank	interval	NaN	NaN	NaN	NaN	NaN	NaN	NaN	NaN	NaN	NaN	NaN	NaN
251.14144490000035	0.4996	sub-30	1	localizer	stimulus	Katze	NaN	0	2.2014261999993323	NaN	True	NaN	NaN	NaN	NaN	NaN	NaN	NaN
251.62454080000043	2.2014	sub-30	1	localizer	blank	interval	NaN	NaN	NaN	NaN	NaN	NaN	NaN	NaN	NaN	NaN	NaN	NaN
254.12708089999975	0.4995	sub-30	1	localizer	stimulus	Gesicht	NaN	0	2.418577599999452	0.5122495000005074	False	NaN	NaN	NaN	NaN	NaN	NaN	NaN
254.6099553000004	2.4186	sub-30	1	localizer	blank	interval	NaN	NaN	NaN	NaN	NaN	NaN	NaN	NaN	NaN	NaN	NaN	NaN
257.32965370000056	0.4995	sub-30	1	localizer	stimulus	Stuhl	NaN	0	2.6354302999998254	NaN	True	NaN	NaN	NaN	NaN	NaN	NaN	NaN
257.81262030000016	2.6354	sub-30	1	localizer	blank	interval	NaN	NaN	NaN	NaN	NaN	NaN	NaN	NaN	NaN	NaN	NaN	NaN
260.7490647000004	0.4995	sub-30	1	localizer	stimulus	Stuhl	NaN	0	2.7854597000005015	NaN	True	NaN	NaN	NaN	NaN	NaN	NaN	NaN
261.2319773999998	2.7855	sub-30	1	localizer	blank	interval	NaN	NaN	NaN	NaN	NaN	NaN	NaN	NaN	NaN	NaN	NaN	NaN
264.31861910000043	0.4996	sub-30	1	localizer	stimulus	Schuh	NaN	0	2.48512199999999	NaN	True	NaN	NaN	NaN	NaN	NaN	NaN	NaN
264.8016085	2.4851	sub-30	1	localizer	blank	interval	NaN	NaN	NaN	NaN	NaN	NaN	NaN	NaN	NaN	NaN	NaN	NaN
267.5879277000004	0.4995	sub-30	1	localizer	stimulus	Schuh	NaN	0	2.4518889999999374	NaN	True	NaN	NaN	NaN	NaN	NaN	NaN	NaN
268.0708510000004	2.4519	sub-30	1	localizer	blank	interval	NaN	NaN	NaN	NaN	NaN	NaN	NaN	NaN	NaN	NaN	NaN	NaN
270.8239829000004	0.4995	sub-30	1	localizer	stimulus	Stuhl	NaN	180	2.4353006999999707	0.7432745000005525	True	NaN	NaN	NaN	NaN	NaN	NaN	NaN
271.3069427999999	2.4353	sub-30	1	localizer	blank	interval	NaN	NaN	NaN	NaN	NaN	NaN	NaN	NaN	NaN	NaN	NaN	NaN
274.0434184000005	0.4995	sub-30	1	localizer	stimulus	Gesicht	NaN	0	2.5351991999996244	NaN	True	NaN	NaN	NaN	NaN	NaN	NaN	NaN
274.5262410000005	2.5352	sub-30	1	localizer	blank	interval	NaN	NaN	NaN	NaN	NaN	NaN	NaN	NaN	NaN	NaN	NaN	NaN
277.3624785000002	0.4995	sub-30	1	localizer	stimulus	Gesicht	NaN	0	2.384926299999279	NaN	True	NaN	NaN	NaN	NaN	NaN	NaN	NaN
277.8456178000006	2.3849	sub-30	1	localizer	blank	interval	NaN	NaN	NaN	NaN	NaN	NaN	NaN	NaN	NaN	NaN	NaN	NaN
280.53171829999974	0.4995	sub-30	1	localizer	stimulus	Schuh	NaN	0	2.8020713000005344	NaN	True	NaN	NaN	NaN	NaN	NaN	NaN	NaN
281.01475200000004	2.8021	sub-30	1	localizer	blank	interval	NaN	NaN	NaN	NaN	NaN	NaN	NaN	NaN	NaN	NaN	NaN	NaN
284.1179965000001	0.4994	sub-30	1	localizer	stimulus	Gesicht	NaN	180	2.7855926000002	0.5852433000000019	True	NaN	NaN	NaN	NaN	NaN	NaN	NaN
284.60086200000023	2.7856	sub-30	1	localizer	blank	interval	NaN	NaN	NaN	NaN	NaN	NaN	NaN	NaN	NaN	NaN	NaN	NaN
287.68753019999986	0.4995	sub-30	1	localizer	stimulus	Haus	NaN	0	2.4517468000003646	NaN	True	NaN	NaN	NaN	NaN	NaN	NaN	NaN
288.17053510000005	2.4517	sub-30	1	localizer	blank	interval	NaN	NaN	NaN	NaN	NaN	NaN	NaN	NaN	NaN	NaN	NaN	NaN
290.9236185999998	0.4993	sub-30	1	localizer	stimulus	Haus	NaN	0	3.336130000000594	NaN	True	NaN	NaN	NaN	NaN	NaN	NaN	NaN
291.4063919	3.3361	sub-30	1	localizer	blank	interval	NaN	NaN	NaN	NaN	NaN	NaN	NaN	NaN	NaN	NaN	NaN	NaN
295.04366840000057	0.4993	sub-30	1	localizer	stimulus	Schuh	NaN	180	2.084746599999562	0.5075542999993559	True	NaN	NaN	NaN	NaN	NaN	NaN	NaN
295.5265586000005	2.0847	sub-30	1	localizer	blank	interval	NaN	NaN	NaN	NaN	NaN	NaN	NaN	NaN	NaN	NaN	NaN	NaN
297.9124603	0.4996	sub-30	1	localizer	stimulus	Katze	NaN	0	2.3851403999997274	NaN	True	NaN	NaN	NaN	NaN	NaN	NaN	NaN
298.39536750000025	2.3851	sub-30	1	localizer	blank	interval	NaN	NaN	NaN	NaN	NaN	NaN	NaN	NaN	NaN	NaN	NaN	NaN
301.0816749000005	0.4994	sub-30	1	localizer	stimulus	Stuhl	NaN	0	1.9348251000001255	NaN	True	NaN	NaN	NaN	NaN	NaN	NaN	NaN
301.5646453999998	1.9348	sub-30	1	localizer	blank	interval	NaN	NaN	NaN	NaN	NaN	NaN	NaN	NaN	NaN	NaN	NaN	NaN
303.8005079000004	0.4995	sub-30	1	localizer	stimulus	Katze	NaN	180	1.9848235999997996	0.5267330999995465	True	NaN	NaN	NaN	NaN	NaN	NaN	NaN
304.2834848000002	1.9848	sub-30	1	localizer	blank	interval	NaN	NaN	NaN	NaN	NaN	NaN	NaN	NaN	NaN	NaN	NaN	NaN
306.5694453000005	0.4995	sub-30	1	localizer	stimulus	Schuh	NaN	0	1.9014166999995723	NaN	True	NaN	NaN	NaN	NaN	NaN	NaN	NaN
307.05234370000016	1.9014	sub-30	1	localizer	blank	interval	NaN	NaN	NaN	NaN	NaN	NaN	NaN	NaN	NaN	NaN	NaN	NaN
309.2549771000004	0.4994	sub-30	1	localizer	stimulus	Haus	NaN	0	3.135812700000315	NaN	True	NaN	NaN	NaN	NaN	NaN	NaN	NaN
309.7379159000002	3.1358	sub-30	1	localizer	blank	interval	NaN	NaN	NaN	NaN	NaN	NaN	NaN	NaN	NaN	NaN	NaN	NaN
313.1748686000001	0.4995	sub-30	1	localizer	stimulus	Stuhl	NaN	0	2.6355006000003414	NaN	True	NaN	NaN	NaN	NaN	NaN	NaN	NaN
313.65784280000025	2.6355	sub-30	1	localizer	blank	interval	NaN	NaN	NaN	NaN	NaN	NaN	NaN	NaN	NaN	NaN	NaN	NaN
316.59422840000025	0.4994	sub-30	1	localizer	stimulus	Haus	NaN	0	2.134766000000184	NaN	True	NaN	NaN	NaN	NaN	NaN	NaN	NaN
317.07728469999984	2.1348	sub-30	1	localizer	blank	interval	NaN	NaN	NaN	NaN	NaN	NaN	NaN	NaN	NaN	NaN	NaN	NaN
319.5132816000005	0.4994	sub-30	1	localizer	stimulus	Gesicht	NaN	0	2.0849888000002466	NaN	True	NaN	NaN	NaN	NaN	NaN	NaN	NaN
319.9961565000003	2.085	sub-30	1	localizer	blank	interval	NaN	NaN	NaN	NaN	NaN	NaN	NaN	NaN	NaN	NaN	NaN	NaN
325.5674899000005	1.0005	sub-30	1	sequence	cue	Schuh	NaN	NaN	NaN	NaN	NaN	NaN	NaN	NaN	NaN	NaN	NaN	NaN
326.5680237000006	2.0016	sub-30	1	sequence	blank	blank	NaN	NaN	NaN	NaN	NaN	NaN	NaN	NaN	NaN	NaN	NaN	NaN
328.5696330999999	0.3003	sub-30	1	sequence	fixation	dot	NaN	NaN	NaN	NaN	NaN	NaN	NaN	NaN	NaN	NaN	NaN	NaN
328.88747440000043	0.0991	sub-30	1	sequence	stimulus	Stuhl	NaN	NaN	64.0	NaN	NaN	5.0	1.0	NaN	NaN	NaN	NaN	NaN
328.9866111000001	0.067	sub-30	1	sequence	interval	dot	NaN	NaN	NaN	NaN	NaN	NaN	NaN	NaN	NaN	NaN	NaN	NaN
329.0535938000003	0.0999	sub-30	1	sequence	stimulus	Gesicht	NaN	NaN	64.0	NaN	NaN	1.0	2.0	NaN	NaN	NaN	NaN	NaN
329.1534679000006	0.0669	sub-30	1	sequence	interval	dot	NaN	NaN	NaN	NaN	NaN	NaN	NaN	NaN	NaN	NaN	NaN	NaN
329.22038969999994	0.0999	sub-30	1	sequence	stimulus	Katze	NaN	NaN	64.0	NaN	NaN	3.0	3.0	NaN	NaN	NaN	NaN	NaN
329.32033520000005	0.0669	sub-30	1	sequence	interval	dot	NaN	NaN	NaN	NaN	NaN	NaN	NaN	NaN	NaN	NaN	NaN	NaN
329.3872216	0.0999	sub-30	1	sequence	stimulus	Schuh	NaN	NaN	64.0	NaN	NaN	4.0	4.0	NaN	NaN	NaN	NaN	NaN
329.4871483000006	0.0668	sub-30	1	sequence	interval	dot	NaN	NaN	NaN	NaN	NaN	NaN	NaN	NaN	NaN	NaN	NaN	NaN
329.55391560000044	0.1	sub-30	1	sequence	stimulus	Haus	NaN	NaN	64.0	NaN	NaN	2.0	5.0	NaN	NaN	NaN	NaN	NaN
329.6538658999998	0.0668	sub-30	1	sequence	interval	dot	NaN	NaN	NaN	NaN	NaN	NaN	NaN	NaN	NaN	NaN	NaN	NaN
329.7206336999998	8.3883	sub-30	1	sequence	delay	dot	NaN	NaN	NaN	NaN	NaN	NaN	NaN	NaN	NaN	NaN	NaN	NaN
338.07827069999985	0.8501	sub-30	1	sequence	choice	choice	right	NaN	NaN	0.8102877000001172	True	NaN	NaN	right	True	3.0	4.0	4.0
338.92872590000025	0.4999	sub-30	1	sequence	feedback	NaN	NaN	NaN	NaN	NaN	NaN	NaN	NaN	NaN	NaN	NaN	NaN	NaN
339.4288224000002	1.0005	sub-30	1	sequence	cue	Haus	NaN	NaN	NaN	NaN	NaN	NaN	NaN	NaN	NaN	NaN	NaN	NaN
340.4293459999999	2.0016	sub-30	1	sequence	blank	blank	NaN	NaN	NaN	NaN	NaN	NaN	NaN	NaN	NaN	NaN	NaN	NaN
342.4310003999999	0.3001	sub-30	1	sequence	fixation	dot	NaN	NaN	NaN	NaN	NaN	NaN	NaN	NaN	NaN	NaN	NaN	NaN
342.74949220000053	0.115	sub-30	1	sequence	stimulus	Haus	NaN	NaN	32.0	NaN	NaN	2.0	1.0	NaN	NaN	NaN	NaN	NaN
342.8645006000006	0.0335	sub-30	1	sequence	interval	dot	NaN	NaN	NaN	NaN	NaN	NaN	NaN	NaN	NaN	NaN	NaN	NaN
342.8980091000003	0.1	sub-30	1	sequence	stimulus	Schuh	NaN	NaN	32.0	NaN	NaN	4.0	2.0	NaN	NaN	NaN	NaN	NaN
342.9980221000005	0.0334	sub-30	1	sequence	interval	dot	NaN	NaN	NaN	NaN	NaN	NaN	NaN	NaN	NaN	NaN	NaN	NaN
343.0314199000004	0.1	sub-30	1	sequence	stimulus	Stuhl	NaN	NaN	32.0	NaN	NaN	5.0	3.0	NaN	NaN	NaN	NaN	NaN
343.13141319999977	0.0335	sub-30	1	sequence	interval	dot	NaN	NaN	NaN	NaN	NaN	NaN	NaN	NaN	NaN	NaN	NaN	NaN
343.16490580000027	0.1	sub-30	1	sequence	stimulus	Gesicht	NaN	NaN	32.0	NaN	NaN	1.0	4.0	NaN	NaN	NaN	NaN	NaN
343.2649018000002	0.0337	sub-30	1	sequence	interval	dot	NaN	NaN	NaN	NaN	NaN	NaN	NaN	NaN	NaN	NaN	NaN	NaN
343.2985980000003	0.0997	sub-30	1	sequence	stimulus	Katze	NaN	NaN	32.0	NaN	NaN	3.0	5.0	NaN	NaN	NaN	NaN	NaN
343.3982741	0.0334	sub-30	1	sequence	interval	dot	NaN	NaN	NaN	NaN	NaN	NaN	NaN	NaN	NaN	NaN	NaN	NaN
343.4316607999999	8.5218	sub-30	1	sequence	delay	dot	NaN	NaN	NaN	NaN	NaN	NaN	NaN	NaN	NaN	NaN	NaN	NaN
351.93592119999994	0.7201	sub-30	1	sequence	choice	choice	left	NaN	NaN	0.6857751000006829	True	NaN	NaN	left	True	1.0	4.0	1.0
352.65627940000013	0.5	sub-30	1	sequence	feedback	NaN	NaN	NaN	NaN	NaN	NaN	NaN	NaN	NaN	NaN	NaN	NaN	NaN
353.1565429000002	1.0006	sub-30	1	sequence	cue	Katze	NaN	NaN	NaN	NaN	NaN	NaN	NaN	NaN	NaN	NaN	NaN	NaN
354.1571635	2.0016	sub-30	1	sequence	blank	blank	NaN	NaN	NaN	NaN	NaN	NaN	NaN	NaN	NaN	NaN	NaN	NaN
356.15872880000006	0.3003	sub-30	1	sequence	fixation	dot	NaN	NaN	NaN	NaN	NaN	NaN	NaN	NaN	NaN	NaN	NaN	NaN
356.4773623000001	0.1151	sub-30	1	sequence	stimulus	Stuhl	NaN	NaN	128.0	NaN	NaN	5.0	1.0	NaN	NaN	NaN	NaN	NaN
356.5925010000001	0.1335	sub-30	1	sequence	interval	dot	NaN	NaN	NaN	NaN	NaN	NaN	NaN	NaN	NaN	NaN	NaN	NaN
356.7260124000004	0.0981	sub-30	1	sequence	stimulus	Schuh	NaN	NaN	128.0	NaN	NaN	4.0	2.0	NaN	NaN	NaN	NaN	NaN
356.8240858999998	0.1335	sub-30	1	sequence	interval	dot	NaN	NaN	NaN	NaN	NaN	NaN	NaN	NaN	NaN	NaN	NaN	NaN
356.95758600000045	0.1019	sub-30	1	sequence	stimulus	Katze	NaN	NaN	128.0	NaN	NaN	3.0	3.0	NaN	NaN	NaN	NaN	NaN
357.0594697000006	0.1337	sub-30	1	sequence	interval	dot	NaN	NaN	NaN	NaN	NaN	NaN	NaN	NaN	NaN	NaN	NaN	NaN
357.1931254000001	0.1	sub-30	1	sequence	stimulus	Gesicht	NaN	NaN	128.0	NaN	NaN	1.0	4.0	NaN	NaN	NaN	NaN	NaN
357.29311039999993	0.1337	sub-30	1	sequence	interval	dot	NaN	NaN	NaN	NaN	NaN	NaN	NaN	NaN	NaN	NaN	NaN	NaN
357.4267798000001	0.0998	sub-30	1	sequence	stimulus	Haus	NaN	NaN	128.0	NaN	NaN	2.0	5.0	NaN	NaN	NaN	NaN	NaN
357.5265863000004	0.1336	sub-30	1	sequence	interval	dot	NaN	NaN	NaN	NaN	NaN	NaN	NaN	NaN	NaN	NaN	NaN	NaN
357.6601608000001	8.0713	sub-30	1	sequence	delay	dot	NaN	NaN	NaN	NaN	NaN	NaN	NaN	NaN	NaN	NaN	NaN	NaN
365.7156093000003	0.7851	sub-30	1	sequence	choice	choice	left	NaN	NaN	0.7559202000002188	True	NaN	NaN	left	True	3.0	5.0	3.0
366.50095729999975	0.4999	sub-30	1	sequence	feedback	NaN	NaN	NaN	NaN	NaN	NaN	NaN	NaN	NaN	NaN	NaN	NaN	NaN
367.0010082999997	1.0006	sub-30	1	sequence	cue	Katze	NaN	NaN	NaN	NaN	NaN	NaN	NaN	NaN	NaN	NaN	NaN	NaN
368.00162100000034	2.0015	sub-30	1	sequence	blank	blank	NaN	NaN	NaN	NaN	NaN	NaN	NaN	NaN	NaN	NaN	NaN	NaN
370.0031528	0.3003	sub-30	1	sequence	fixation	dot	NaN	NaN	NaN	NaN	NaN	NaN	NaN	NaN	NaN	NaN	NaN	NaN
370.32097690000046	0.0992	sub-30	1	sequence	stimulus	Haus	NaN	NaN	64.0	NaN	NaN	2.0	1.0	NaN	NaN	NaN	NaN	NaN
370.42016669999975	0.0668	sub-30	1	sequence	interval	dot	NaN	NaN	NaN	NaN	NaN	NaN	NaN	NaN	NaN	NaN	NaN	NaN
370.4870144000006	0.1001	sub-30	1	sequence	stimulus	Katze	NaN	NaN	64.0	NaN	NaN	3.0	2.0	NaN	NaN	NaN	NaN	NaN
370.5870937999998	0.0667	sub-30	1	sequence	interval	dot	NaN	NaN	NaN	NaN	NaN	NaN	NaN	NaN	NaN	NaN	NaN	NaN
370.6537724	0.0999	sub-30	1	sequence	stimulus	Schuh	NaN	NaN	64.0	NaN	NaN	4.0	3.0	NaN	NaN	NaN	NaN	NaN
370.7537054000004	0.0671	sub-30	1	sequence	interval	dot	NaN	NaN	NaN	NaN	NaN	NaN	NaN	NaN	NaN	NaN	NaN	NaN
370.8207941999999	0.0997	sub-30	1	sequence	stimulus	Gesicht	NaN	NaN	64.0	NaN	NaN	1.0	4.0	NaN	NaN	NaN	NaN	NaN
370.92050329999984	0.0668	sub-30	1	sequence	interval	dot	NaN	NaN	NaN	NaN	NaN	NaN	NaN	NaN	NaN	NaN	NaN	NaN
370.9873511000005	0.1	sub-30	1	sequence	stimulus	Stuhl	NaN	NaN	64.0	NaN	NaN	5.0	5.0	NaN	NaN	NaN	NaN	NaN
371.0873386000003	0.0667	sub-30	1	sequence	interval	dot	NaN	NaN	NaN	NaN	NaN	NaN	NaN	NaN	NaN	NaN	NaN	NaN
371.1540001000003	8.3884	sub-30	1	sequence	delay	dot	NaN	NaN	NaN	NaN	NaN	NaN	NaN	NaN	NaN	NaN	NaN	NaN
379.5212498000001	0.8404	sub-30	1	sequence	choice	choice	left	NaN	NaN	0.808751000000484	True	NaN	NaN	left	True	2.0	3.0	2.0
380.3617540000005	0.5001	sub-30	1	sequence	feedback	NaN	NaN	NaN	NaN	NaN	NaN	NaN	NaN	NaN	NaN	NaN	NaN	NaN
380.86202440000034	1.0007	sub-30	1	sequence	cue	Stuhl	NaN	NaN	NaN	NaN	NaN	NaN	NaN	NaN	NaN	NaN	NaN	NaN
381.8627317999999	2.0016	sub-30	1	sequence	blank	blank	NaN	NaN	NaN	NaN	NaN	NaN	NaN	NaN	NaN	NaN	NaN	NaN
383.8643290999999	0.3002	sub-30	1	sequence	fixation	dot	NaN	NaN	NaN	NaN	NaN	NaN	NaN	NaN	NaN	NaN	NaN	NaN
384.1831210999999	0.1149	sub-30	1	sequence	stimulus	Gesicht	NaN	NaN	512.0	NaN	NaN	1.0	1.0	NaN	NaN	NaN	NaN	NaN
384.2979713000004	0.5172	sub-30	1	sequence	interval	dot	NaN	NaN	NaN	NaN	NaN	NaN	NaN	NaN	NaN	NaN	NaN	NaN
384.8152074	0.1	sub-30	1	sequence	stimulus	Schuh	NaN	NaN	512.0	NaN	NaN	4.0	2.0	NaN	NaN	NaN	NaN	NaN
384.9151859000003	0.5172	sub-30	1	sequence	interval	dot	NaN	NaN	NaN	NaN	NaN	NaN	NaN	NaN	NaN	NaN	NaN	NaN
385.4323685999998	0.1	sub-30	1	sequence	stimulus	Haus	NaN	NaN	512.0	NaN	NaN	2.0	3.0	NaN	NaN	NaN	NaN	NaN
385.5323251	0.5172	sub-30	1	sequence	interval	dot	NaN	NaN	NaN	NaN	NaN	NaN	NaN	NaN	NaN	NaN	NaN	NaN
386.0495551000004	0.1001	sub-30	1	sequence	stimulus	Stuhl	NaN	NaN	512.0	NaN	NaN	5.0	4.0	NaN	NaN	NaN	NaN	NaN
386.1496318999998	0.5171	sub-30	1	sequence	interval	dot	NaN	NaN	NaN	NaN	NaN	NaN	NaN	NaN	NaN	NaN	NaN	NaN
386.6667109999999	0.1	sub-30	1	sequence	stimulus	Katze	NaN	NaN	512.0	NaN	NaN	3.0	5.0	NaN	NaN	NaN	NaN	NaN
386.7667234000001	0.517	sub-30	1	sequence	interval	dot	NaN	NaN	NaN	NaN	NaN	NaN	NaN	NaN	NaN	NaN	NaN	NaN
387.28372800000034	6.1366	sub-30	1	sequence	delay	dot	NaN	NaN	NaN	NaN	NaN	NaN	NaN	NaN	NaN	NaN	NaN	NaN
393.4049495999998	0.7681	sub-30	1	sequence	choice	choice	right	NaN	NaN	0.7468503000000055	True	NaN	NaN	right	True	5.0	4.0	4.0
394.1733328	0.4999	sub-30	1	sequence	feedback	NaN	NaN	NaN	NaN	NaN	NaN	NaN	NaN	NaN	NaN	NaN	NaN	NaN
394.6734889	1.0004	sub-30	1	sequence	cue	Stuhl	NaN	NaN	NaN	NaN	NaN	NaN	NaN	NaN	NaN	NaN	NaN	NaN
395.6738868000002	2.0017	sub-30	1	sequence	blank	blank	NaN	NaN	NaN	NaN	NaN	NaN	NaN	NaN	NaN	NaN	NaN	NaN
397.6756256999997	0.3002	sub-30	1	sequence	fixation	dot	NaN	NaN	NaN	NaN	NaN	NaN	NaN	NaN	NaN	NaN	NaN	NaN
397.9940907999999	0.1152	sub-30	1	sequence	stimulus	Katze	NaN	NaN	128.0	NaN	NaN	3.0	1.0	NaN	NaN	NaN	NaN	NaN
398.1092488000004	0.1337	sub-30	1	sequence	interval	dot	NaN	NaN	NaN	NaN	NaN	NaN	NaN	NaN	NaN	NaN	NaN	NaN
398.24296090000007	0.0998	sub-30	1	sequence	stimulus	Gesicht	NaN	NaN	128.0	NaN	NaN	1.0	2.0	NaN	NaN	NaN	NaN	NaN
398.3427923999998	0.1336	sub-30	1	sequence	interval	dot	NaN	NaN	NaN	NaN	NaN	NaN	NaN	NaN	NaN	NaN	NaN	NaN
398.4763812000001	0.0999	sub-30	1	sequence	stimulus	Haus	NaN	NaN	128.0	NaN	NaN	2.0	3.0	NaN	NaN	NaN	NaN	NaN
398.5763235000004	0.1337	sub-30	1	sequence	interval	dot	NaN	NaN	NaN	NaN	NaN	NaN	NaN	NaN	NaN	NaN	NaN	NaN
398.7099988	0.1146	sub-30	1	sequence	stimulus	Stuhl	NaN	NaN	128.0	NaN	NaN	5.0	4.0	NaN	NaN	NaN	NaN	NaN
398.82462060000034	0.1356	sub-30	1	sequence	interval	dot	NaN	NaN	NaN	NaN	NaN	NaN	NaN	NaN	NaN	NaN	NaN	NaN
398.9601902000004	0.0999	sub-30	1	sequence	stimulus	Schuh	NaN	NaN	128.0	NaN	NaN	4.0	5.0	NaN	NaN	NaN	NaN	NaN
399.06005840000034	0.1335	sub-30	1	sequence	interval	dot	NaN	NaN	NaN	NaN	NaN	NaN	NaN	NaN	NaN	NaN	NaN	NaN
399.1935782999999	8.0546	sub-30	1	sequence	delay	dot	NaN	NaN	NaN	NaN	NaN	NaN	NaN	NaN	NaN	NaN	NaN	NaN
407.23666800000046	0.8141	sub-30	1	sequence	choice	choice	right	NaN	NaN	0.7908804999997301	True	NaN	NaN	right	True	5.0	4.0	4.0
408.05093750000015	0.5	sub-30	1	sequence	feedback	NaN	NaN	NaN	NaN	NaN	NaN	NaN	NaN	NaN	NaN	NaN	NaN	NaN
408.5511004999999	1.0007	sub-30	1	sequence	cue	Schuh	NaN	NaN	NaN	NaN	NaN	NaN	NaN	NaN	NaN	NaN	NaN	NaN
409.5517983999998	2.0016	sub-30	1	sequence	blank	blank	NaN	NaN	NaN	NaN	NaN	NaN	NaN	NaN	NaN	NaN	NaN	NaN
411.5533857999999	0.3002	sub-30	1	sequence	fixation	dot	NaN	NaN	NaN	NaN	NaN	NaN	NaN	NaN	NaN	NaN	NaN	NaN
411.8712780000005	0.0993	sub-30	1	sequence	stimulus	Katze	NaN	NaN	32.0	NaN	NaN	3.0	1.0	NaN	NaN	NaN	NaN	NaN
411.9705469999999	0.0333	sub-30	1	sequence	interval	dot	NaN	NaN	NaN	NaN	NaN	NaN	NaN	NaN	NaN	NaN	NaN	NaN
412.003858	0.0999	sub-30	1	sequence	stimulus	Gesicht	NaN	NaN	32.0	NaN	NaN	1.0	2.0	NaN	NaN	NaN	NaN	NaN
412.1037972000004	0.0335	sub-30	1	sequence	interval	dot	NaN	NaN	NaN	NaN	NaN	NaN	NaN	NaN	NaN	NaN	NaN	NaN
412.1373193	0.0999	sub-30	1	sequence	stimulus	Schuh	NaN	NaN	32.0	NaN	NaN	4.0	3.0	NaN	NaN	NaN	NaN	NaN
412.2372479000005	0.0335	sub-30	1	sequence	interval	dot	NaN	NaN	NaN	NaN	NaN	NaN	NaN	NaN	NaN	NaN	NaN	NaN
412.27071890000025	0.1	sub-30	1	sequence	stimulus	Stuhl	NaN	NaN	32.0	NaN	NaN	5.0	4.0	NaN	NaN	NaN	NaN	NaN
412.37067990000014	0.0335	sub-30	1	sequence	interval	dot	NaN	NaN	NaN	NaN	NaN	NaN	NaN	NaN	NaN	NaN	NaN	NaN
412.40420730000005	0.0999	sub-30	1	sequence	stimulus	Haus	NaN	NaN	32.0	NaN	NaN	2.0	5.0	NaN	NaN	NaN	NaN	NaN
412.5041167	0.0334	sub-30	1	sequence	interval	dot	NaN	NaN	NaN	NaN	NaN	NaN	NaN	NaN	NaN	NaN	NaN	NaN
412.5374898999999	8.5221	sub-30	1	sequence	delay	dot	NaN	NaN	NaN	NaN	NaN	NaN	NaN	NaN	NaN	NaN	NaN	NaN
421.0425133999997	1.1698	sub-30	1	sequence	choice	choice	left	NaN	NaN	1.1396614000004774	True	NaN	NaN	left	True	3.0	4.0	3.0
422.2125498000005	0.5	sub-30	1	sequence	feedback	NaN	NaN	NaN	NaN	NaN	NaN	NaN	NaN	NaN	NaN	NaN	NaN	NaN
422.712759	1.0005	sub-30	1	sequence	cue	Gesicht	NaN	NaN	NaN	NaN	NaN	NaN	NaN	NaN	NaN	NaN	NaN	NaN
423.7132392000003	2.0016	sub-30	1	sequence	blank	blank	NaN	NaN	NaN	NaN	NaN	NaN	NaN	NaN	NaN	NaN	NaN	NaN
425.7148413000005	0.3002	sub-30	1	sequence	fixation	dot	NaN	NaN	NaN	NaN	NaN	NaN	NaN	NaN	NaN	NaN	NaN	NaN
426.0336353000002	0.1149	sub-30	1	sequence	stimulus	Schuh	NaN	NaN	512.0	NaN	NaN	4.0	1.0	NaN	NaN	NaN	NaN	NaN
426.1484896000002	0.5172	sub-30	1	sequence	interval	dot	NaN	NaN	NaN	NaN	NaN	NaN	NaN	NaN	NaN	NaN	NaN	NaN
426.66572910000014	0.0999	sub-30	1	sequence	stimulus	Katze	NaN	NaN	512.0	NaN	NaN	3.0	2.0	NaN	NaN	NaN	NaN	NaN
426.76567650000015	0.5172	sub-30	1	sequence	interval	dot	NaN	NaN	NaN	NaN	NaN	NaN	NaN	NaN	NaN	NaN	NaN	NaN
427.2828766000002	0.0999	sub-30	1	sequence	stimulus	Haus	NaN	NaN	512.0	NaN	NaN	2.0	3.0	NaN	NaN	NaN	NaN	NaN
427.3828036000005	0.5172	sub-30	1	sequence	interval	dot	NaN	NaN	NaN	NaN	NaN	NaN	NaN	NaN	NaN	NaN	NaN	NaN
427.9000124000004	0.1	sub-30	1	sequence	stimulus	Stuhl	NaN	NaN	512.0	NaN	NaN	5.0	4.0	NaN	NaN	NaN	NaN	NaN
428.0000023000002	0.5172	sub-30	1	sequence	interval	dot	NaN	NaN	NaN	NaN	NaN	NaN	NaN	NaN	NaN	NaN	NaN	NaN
428.5172164000005	0.0999	sub-30	1	sequence	stimulus	Gesicht	NaN	NaN	512.0	NaN	NaN	1.0	5.0	NaN	NaN	NaN	NaN	NaN
428.6171253000002	0.5171	sub-30	1	sequence	interval	dot	NaN	NaN	NaN	NaN	NaN	NaN	NaN	NaN	NaN	NaN	NaN	NaN
429.13423909999983	6.1534	sub-30	1	sequence	delay	dot	NaN	NaN	NaN	NaN	NaN	NaN	NaN	NaN	NaN	NaN	NaN	NaN
435.26398830000016	0.7095	sub-30	1	sequence	choice	choice	right	NaN	NaN	0.6795776999997543	True	NaN	NaN	right	True	4.0	5.0	5.0
435.9737051000002	0.4999	sub-30	1	sequence	feedback	NaN	NaN	NaN	NaN	NaN	NaN	NaN	NaN	NaN	NaN	NaN	NaN	NaN
436.4741131999999	25.4536	sub-30	1	other	break	break	NaN	NaN	NaN	NaN	NaN	NaN	NaN	NaN	NaN	NaN	NaN	NaN
465.7480780000005	0.4996	sub-30	1	localizer	stimulus	Stuhl	NaN	0	2.6521813999997335	NaN	True	NaN	NaN	NaN	NaN	NaN	NaN	NaN
466.24762850000025	2.6522	sub-30	1	localizer	blank	interval	NaN	NaN	NaN	NaN	NaN	NaN	NaN	NaN	NaN	NaN	NaN	NaN
469.2009730999998	0.4994	sub-30	1	localizer	stimulus	Haus	NaN	0	2.1348353000003044	NaN	True	NaN	NaN	NaN	NaN	NaN	NaN	NaN
469.6838884999997	2.1348	sub-30	1	localizer	blank	interval	NaN	NaN	NaN	NaN	NaN	NaN	NaN	NaN	NaN	NaN	NaN	NaN
472.1199039000003	0.4995	sub-30	1	localizer	stimulus	Stuhl	NaN	180	2.2850658999996085	0.6070835999998963	True	NaN	NaN	NaN	NaN	NaN	NaN	NaN
472.6028223000003	2.2851	sub-30	1	localizer	blank	interval	NaN	NaN	NaN	NaN	NaN	NaN	NaN	NaN	NaN	NaN	NaN	NaN
475.1890720000001	0.4994	sub-30	1	localizer	stimulus	Stuhl	NaN	0	2.4517106000003537	NaN	True	NaN	NaN	NaN	NaN	NaN	NaN	NaN
475.6721158	2.4517	sub-30	1	localizer	blank	interval	NaN	NaN	NaN	NaN	NaN	NaN	NaN	NaN	NaN	NaN	NaN	NaN
478.4249857000004	0.4995	sub-30	1	localizer	stimulus	Katze	NaN	0	3.0356776999997237	NaN	True	NaN	NaN	NaN	NaN	NaN	NaN	NaN
478.9080233000004	3.0357	sub-30	1	localizer	blank	interval	NaN	NaN	NaN	NaN	NaN	NaN	NaN	NaN	NaN	NaN	NaN	NaN
482.2447946000002	0.4976	sub-30	1	localizer	stimulus	Stuhl	NaN	0	2.5371673000000214	NaN	True	NaN	NaN	NaN	NaN	NaN	NaN	NaN
482.7424369	2.5372	sub-30	1	localizer	blank	interval	NaN	NaN	NaN	NaN	NaN	NaN	NaN	NaN	NaN	NaN	NaN	NaN
485.5807808	0.4994	sub-30	1	localizer	stimulus	Gesicht	NaN	0	2.8354810000000725	NaN	True	NaN	NaN	NaN	NaN	NaN	NaN	NaN
486.06368980000025	2.8355	sub-30	1	localizer	blank	interval	NaN	NaN	NaN	NaN	NaN	NaN	NaN	NaN	NaN	NaN	NaN	NaN
489.2003808	0.4994	sub-30	1	localizer	stimulus	Gesicht	NaN	0	2.5018608999998833	NaN	True	NaN	NaN	NaN	NaN	NaN	NaN	NaN
489.6833303000003	2.5019	sub-30	1	localizer	blank	interval	NaN	NaN	NaN	NaN	NaN	NaN	NaN	NaN	NaN	NaN	NaN	NaN
492.4863514999997	0.4995	sub-30	1	localizer	stimulus	Katze	NaN	0	2.1849543000007543	NaN	True	NaN	NaN	NaN	NaN	NaN	NaN	NaN
492.9693054999998	2.185	sub-30	1	localizer	blank	interval	NaN	NaN	NaN	NaN	NaN	NaN	NaN	NaN	NaN	NaN	NaN	NaN
495.4554327000005	0.4995	sub-30	1	localizer	stimulus	Katze	NaN	180	1.3509556999997585	0.6317755000000034	True	NaN	NaN	NaN	NaN	NaN	NaN	NaN
495.93837470000017	1.351	sub-30	1	localizer	blank	interval	NaN	NaN	NaN	NaN	NaN	NaN	NaN	NaN	NaN	NaN	NaN	NaN
497.5906522000005	0.4995	sub-30	1	localizer	stimulus	Haus	NaN	0	3.102375599999448	NaN	True	NaN	NaN	NaN	NaN	NaN	NaN	NaN
498.0734387000002	3.1024	sub-30	1	localizer	blank	interval	NaN	NaN	NaN	NaN	NaN	NaN	NaN	NaN	NaN	NaN	NaN	NaN
501.4771122000002	0.4994	sub-30	1	localizer	stimulus	Katze	NaN	0	2.034819000000425	NaN	True	NaN	NaN	NaN	NaN	NaN	NaN	NaN
501.9600897999999	2.0348	sub-30	1	localizer	blank	interval	NaN	NaN	NaN	NaN	NaN	NaN	NaN	NaN	NaN	NaN	NaN	NaN
504.2961815999997	0.4995	sub-30	1	localizer	stimulus	Gesicht	NaN	180	2.7853358000002117	0.5109259000000748	True	NaN	NaN	NaN	NaN	NaN	NaN	NaN
504.7790775000003	2.7853	sub-30	1	localizer	blank	interval	NaN	NaN	NaN	NaN	NaN	NaN	NaN	NaN	NaN	NaN	NaN	NaN
507.8656514000004	0.4994	sub-30	1	localizer	stimulus	Haus	NaN	0	2.6019531000001734	NaN	True	NaN	NaN	NaN	NaN	NaN	NaN	NaN
508.3483818000004	2.602	sub-30	1	localizer	blank	interval	NaN	NaN	NaN	NaN	NaN	NaN	NaN	NaN	NaN	NaN	NaN	NaN
511.2515276000004	0.4995	sub-30	1	localizer	stimulus	Haus	NaN	180	2.068162399999892	0.5394372000000658	True	NaN	NaN	NaN	NaN	NaN	NaN	NaN
511.73448520000056	2.0682	sub-30	1	localizer	blank	interval	NaN	NaN	NaN	NaN	NaN	NaN	NaN	NaN	NaN	NaN	NaN	NaN
514.1038442999998	0.4994	sub-30	1	localizer	stimulus	Schuh	NaN	0	2.2350325000006706	NaN	True	NaN	NaN	NaN	NaN	NaN	NaN	NaN
514.5868001999997	2.235	sub-30	1	localizer	blank	interval	NaN	NaN	NaN	NaN	NaN	NaN	NaN	NaN	NaN	NaN	NaN	NaN
517.1229279999998	0.4995	sub-30	1	localizer	stimulus	Gesicht	NaN	0	1.4177090000002863	NaN	True	NaN	NaN	NaN	NaN	NaN	NaN	NaN
517.6059882999998	1.4177	sub-30	1	localizer	blank	interval	NaN	NaN	NaN	NaN	NaN	NaN	NaN	NaN	NaN	NaN	NaN	NaN
519.3247250000004	0.4995	sub-30	1	localizer	stimulus	Schuh	NaN	180	2.4852478999991945	0.5542065999998158	True	NaN	NaN	NaN	NaN	NaN	NaN	NaN
519.8076365000006	2.4852	sub-30	1	localizer	blank	interval	NaN	NaN	NaN	NaN	NaN	NaN	NaN	NaN	NaN	NaN	NaN	NaN
522.5941469999998	0.4996	sub-30	1	localizer	stimulus	Haus	NaN	0	4.203041299999313	NaN	True	NaN	NaN	NaN	NaN	NaN	NaN	NaN
523.0772375000006	4.203	sub-30	1	localizer	blank	interval	NaN	NaN	NaN	NaN	NaN	NaN	NaN	NaN	NaN	NaN	NaN	NaN
527.5813990000006	0.4995	sub-30	1	localizer	stimulus	Gesicht	NaN	0	2.735381000000416	NaN	True	NaN	NaN	NaN	NaN	NaN	NaN	NaN
528.0643246	2.7354	sub-30	1	localizer	blank	interval	NaN	NaN	NaN	NaN	NaN	NaN	NaN	NaN	NaN	NaN	NaN	NaN
531.1009027999999	0.4996	sub-30	1	localizer	stimulus	Stuhl	NaN	0	1.901403100000607	NaN	True	NaN	NaN	NaN	NaN	NaN	NaN	NaN
531.5838402999998	1.9014	sub-30	1	localizer	blank	interval	NaN	NaN	NaN	NaN	NaN	NaN	NaN	NaN	NaN	NaN	NaN	NaN
533.7864141999999	0.4995	sub-30	1	localizer	stimulus	Schuh	NaN	0	2.3184299000004103	NaN	True	NaN	NaN	NaN	NaN	NaN	NaN	NaN
534.2693380999999	2.3184	sub-30	1	localizer	blank	interval	NaN	NaN	NaN	NaN	NaN	NaN	NaN	NaN	NaN	NaN	NaN	NaN
536.8889048000001	0.4996	sub-30	1	localizer	stimulus	Schuh	NaN	0	2.218496100000266	NaN	True	NaN	NaN	NaN	NaN	NaN	NaN	NaN
537.3718237000003	2.2185	sub-30	1	localizer	blank	interval	NaN	NaN	NaN	NaN	NaN	NaN	NaN	NaN	NaN	NaN	NaN	NaN
539.8913549999997	0.4996	sub-30	1	localizer	stimulus	Katze	NaN	0	2.7521450000003824	NaN	True	NaN	NaN	NaN	NaN	NaN	NaN	NaN
540.3743157999997	2.7521	sub-30	1	localizer	blank	interval	NaN	NaN	NaN	NaN	NaN	NaN	NaN	NaN	NaN	NaN	NaN	NaN
543.4276678000006	0.4994	sub-30	1	localizer	stimulus	Schuh	NaN	0	2.5187060000007477	NaN	True	NaN	NaN	NaN	NaN	NaN	NaN	NaN
543.9106493999998	2.5187	sub-30	1	localizer	blank	interval	NaN	NaN	NaN	NaN	NaN	NaN	NaN	NaN	NaN	NaN	NaN	NaN
549.9155046000005	1.0006	sub-30	1	sequence	cue	Haus	NaN	NaN	NaN	NaN	NaN	NaN	NaN	NaN	NaN	NaN	NaN	NaN
550.9161021	2.0017	sub-30	1	sequence	blank	blank	NaN	NaN	NaN	NaN	NaN	NaN	NaN	NaN	NaN	NaN	NaN	NaN
552.9177931000004	0.3002	sub-30	1	sequence	fixation	dot	NaN	NaN	NaN	NaN	NaN	NaN	NaN	NaN	NaN	NaN	NaN	NaN
553.2365126000004	0.1148	sub-30	1	sequence	stimulus	Stuhl	NaN	NaN	128.0	NaN	NaN	5.0	1.0	NaN	NaN	NaN	NaN	NaN
553.3512882000005	0.1336	sub-30	1	sequence	interval	dot	NaN	NaN	NaN	NaN	NaN	NaN	NaN	NaN	NaN	NaN	NaN	NaN
553.4848450999998	0.1	sub-30	1	sequence	stimulus	Schuh	NaN	NaN	128.0	NaN	NaN	4.0	2.0	NaN	NaN	NaN	NaN	NaN
553.5848029999997	0.1337	sub-30	1	sequence	interval	dot	NaN	NaN	NaN	NaN	NaN	NaN	NaN	NaN	NaN	NaN	NaN	NaN
553.7184824000005	0.0998	sub-30	1	sequence	stimulus	Katze	NaN	NaN	128.0	NaN	NaN	3.0	3.0	NaN	NaN	NaN	NaN	NaN
553.8183029000002	0.1336	sub-30	1	sequence	interval	dot	NaN	NaN	NaN	NaN	NaN	NaN	NaN	NaN	NaN	NaN	NaN	NaN
553.9519233000001	0.0999	sub-30	1	sequence	stimulus	Gesicht	NaN	NaN	128.0	NaN	NaN	1.0	4.0	NaN	NaN	NaN	NaN	NaN
554.0518573999998	0.1336	sub-30	1	sequence	interval	dot	NaN	NaN	NaN	NaN	NaN	NaN	NaN	NaN	NaN	NaN	NaN	NaN
554.1854721999998	0.1001	sub-30	1	sequence	stimulus	Haus	NaN	NaN	128.0	NaN	NaN	2.0	5.0	NaN	NaN	NaN	NaN	NaN
554.2855561000006	0.1333	sub-30	1	sequence	interval	dot	NaN	NaN	NaN	NaN	NaN	NaN	NaN	NaN	NaN	NaN	NaN	NaN
554.4188077999997	8.0882	sub-30	1	sequence	delay	dot	NaN	NaN	NaN	NaN	NaN	NaN	NaN	NaN	NaN	NaN	NaN	NaN
562.4793214000001	0.7469	sub-30	1	sequence	choice	choice	right	NaN	NaN	0.7159904000000097	True	NaN	NaN	right	True	4.0	5.0	5.0
563.2266266000006	0.4998	sub-30	1	sequence	feedback	NaN	NaN	NaN	NaN	NaN	NaN	NaN	NaN	NaN	NaN	NaN	NaN	NaN
563.7265997000004	1.0009	sub-30	1	sequence	cue	Schuh	NaN	NaN	NaN	NaN	NaN	NaN	NaN	NaN	NaN	NaN	NaN	NaN
564.7274815999999	2.0015	sub-30	1	sequence	blank	blank	NaN	NaN	NaN	NaN	NaN	NaN	NaN	NaN	NaN	NaN	NaN	NaN
566.7289615	0.3004	sub-30	1	sequence	fixation	dot	NaN	NaN	NaN	NaN	NaN	NaN	NaN	NaN	NaN	NaN	NaN	NaN
567.0476232000001	0.1151	sub-30	1	sequence	stimulus	Stuhl	NaN	NaN	64.0	NaN	NaN	5.0	1.0	NaN	NaN	NaN	NaN	NaN
567.1627053000002	0.067	sub-30	1	sequence	interval	dot	NaN	NaN	NaN	NaN	NaN	NaN	NaN	NaN	NaN	NaN	NaN	NaN
567.2296888000001	0.0999	sub-30	1	sequence	stimulus	Gesicht	NaN	NaN	64.0	NaN	NaN	1.0	2.0	NaN	NaN	NaN	NaN	NaN
567.3296148999998	0.0669	sub-30	1	sequence	interval	dot	NaN	NaN	NaN	NaN	NaN	NaN	NaN	NaN	NaN	NaN	NaN	NaN
567.3964722000001	0.0998	sub-30	1	sequence	stimulus	Katze	NaN	NaN	64.0	NaN	NaN	3.0	3.0	NaN	NaN	NaN	NaN	NaN
567.4962895999997	0.0669	sub-30	1	sequence	interval	dot	NaN	NaN	NaN	NaN	NaN	NaN	NaN	NaN	NaN	NaN	NaN	NaN
567.5631481	0.1	sub-30	1	sequence	stimulus	Schuh	NaN	NaN	64.0	NaN	NaN	4.0	4.0	NaN	NaN	NaN	NaN	NaN
567.6631864999999	0.0668	sub-30	1	sequence	interval	dot	NaN	NaN	NaN	NaN	NaN	NaN	NaN	NaN	NaN	NaN	NaN	NaN
567.7299449000002	0.0999	sub-30	1	sequence	stimulus	Haus	NaN	NaN	64.0	NaN	NaN	2.0	5.0	NaN	NaN	NaN	NaN	NaN
567.8298134000006	0.0669	sub-30	1	sequence	interval	dot	NaN	NaN	NaN	NaN	NaN	NaN	NaN	NaN	NaN	NaN	NaN	NaN
567.8967050000001	8.3882	sub-30	1	sequence	delay	dot	NaN	NaN	NaN	NaN	NaN	NaN	NaN	NaN	NaN	NaN	NaN	NaN
576.2587252000003	1.0124	sub-30	1	sequence	choice	choice	left	NaN	NaN	0.9780589000001784	True	NaN	NaN	left	True	4.0	1.0	4.0
577.2714088000002	0.4998	sub-30	1	sequence	feedback	NaN	NaN	NaN	NaN	NaN	NaN	NaN	NaN	NaN	NaN	NaN	NaN	NaN
577.7713209000003	1.0007	sub-30	1	sequence	cue	Katze	NaN	NaN	NaN	NaN	NaN	NaN	NaN	NaN	NaN	NaN	NaN	NaN
578.7719986000002	2.0016	sub-30	1	sequence	blank	blank	NaN	NaN	NaN	NaN	NaN	NaN	NaN	NaN	NaN	NaN	NaN	NaN
580.7736326000004	0.3002	sub-30	1	sequence	fixation	dot	NaN	NaN	NaN	NaN	NaN	NaN	NaN	NaN	NaN	NaN	NaN	NaN
581.1061848999998	0.101	sub-30	1	sequence	stimulus	Haus	NaN	NaN	64.0	NaN	NaN	2.0	1.0	NaN	NaN	NaN	NaN	NaN
581.2072113000004	0.0669	sub-30	1	sequence	interval	dot	NaN	NaN	NaN	NaN	NaN	NaN	NaN	NaN	NaN	NaN	NaN	NaN
581.2741261000001	0.1	sub-30	1	sequence	stimulus	Katze	NaN	NaN	64.0	NaN	NaN	3.0	2.0	NaN	NaN	NaN	NaN	NaN
581.3740877999999	0.0668	sub-30	1	sequence	interval	dot	NaN	NaN	NaN	NaN	NaN	NaN	NaN	NaN	NaN	NaN	NaN	NaN
581.4408911	0.0999	sub-30	1	sequence	stimulus	Schuh	NaN	NaN	64.0	NaN	NaN	4.0	3.0	NaN	NaN	NaN	NaN	NaN
581.5407415	0.0668	sub-30	1	sequence	interval	dot	NaN	NaN	NaN	NaN	NaN	NaN	NaN	NaN	NaN	NaN	NaN	NaN
581.6075725000001	0.1	sub-30	1	sequence	stimulus	Gesicht	NaN	NaN	64.0	NaN	NaN	1.0	4.0	NaN	NaN	NaN	NaN	NaN
581.7075669000005	0.0669	sub-30	1	sequence	interval	dot	NaN	NaN	NaN	NaN	NaN	NaN	NaN	NaN	NaN	NaN	NaN	NaN
581.7744185000001	0.1001	sub-30	1	sequence	stimulus	Stuhl	NaN	NaN	64.0	NaN	NaN	5.0	5.0	NaN	NaN	NaN	NaN	NaN
581.8744711999998	0.0667	sub-30	1	sequence	interval	dot	NaN	NaN	NaN	NaN	NaN	NaN	NaN	NaN	NaN	NaN	NaN	NaN
581.9411780999999	8.3716	sub-30	1	sequence	delay	dot	NaN	NaN	NaN	NaN	NaN	NaN	NaN	NaN	NaN	NaN	NaN	NaN
590.298444	0.7669	sub-30	1	sequence	choice	choice	left	NaN	NaN	0.7501623999996809	True	NaN	NaN	left	True	2.0	5.0	2.0
591.0655658000005	0.5	sub-30	1	sequence	feedback	NaN	NaN	NaN	NaN	NaN	NaN	NaN	NaN	NaN	NaN	NaN	NaN	NaN
591.5656825000005	1.0007	sub-30	1	sequence	cue	Katze	NaN	NaN	NaN	NaN	NaN	NaN	NaN	NaN	NaN	NaN	NaN	NaN
592.5663572000003	2.0017	sub-30	1	sequence	blank	blank	NaN	NaN	NaN	NaN	NaN	NaN	NaN	NaN	NaN	NaN	NaN	NaN
594.5681009	0.3001	sub-30	1	sequence	fixation	dot	NaN	NaN	NaN	NaN	NaN	NaN	NaN	NaN	NaN	NaN	NaN	NaN
594.8867121000003	0.1149	sub-30	1	sequence	stimulus	Gesicht	NaN	NaN	512.0	NaN	NaN	1.0	1.0	NaN	NaN	NaN	NaN	NaN
595.0015991999999	0.5172	sub-30	1	sequence	interval	dot	NaN	NaN	NaN	NaN	NaN	NaN	NaN	NaN	NaN	NaN	NaN	NaN
595.5188286000002	0.1	sub-30	1	sequence	stimulus	Schuh	NaN	NaN	512.0	NaN	NaN	4.0	2.0	NaN	NaN	NaN	NaN	NaN
595.6187879999998	0.5172	sub-30	1	sequence	interval	dot	NaN	NaN	NaN	NaN	NaN	NaN	NaN	NaN	NaN	NaN	NaN	NaN
596.1360237999997	0.0999	sub-30	1	sequence	stimulus	Haus	NaN	NaN	512.0	NaN	NaN	2.0	3.0	NaN	NaN	NaN	NaN	NaN
596.2359440999999	0.5172	sub-30	1	sequence	interval	dot	NaN	NaN	NaN	NaN	NaN	NaN	NaN	NaN	NaN	NaN	NaN	NaN
596.7531654000004	0.1	sub-30	1	sequence	stimulus	Stuhl	NaN	NaN	512.0	NaN	NaN	5.0	4.0	NaN	NaN	NaN	NaN	NaN
596.8531830000002	0.5171	sub-30	1	sequence	interval	dot	NaN	NaN	NaN	NaN	NaN	NaN	NaN	NaN	NaN	NaN	NaN	NaN
597.3703206	0.1	sub-30	1	sequence	stimulus	Katze	NaN	NaN	512.0	NaN	NaN	3.0	5.0	NaN	NaN	NaN	NaN	NaN
597.4702842000006	0.5171	sub-30	1	sequence	interval	dot	NaN	NaN	NaN	NaN	NaN	NaN	NaN	NaN	NaN	NaN	NaN	NaN
597.9873744000006	6.17	sub-30	1	sequence	delay	dot	NaN	NaN	NaN	NaN	NaN	NaN	NaN	NaN	NaN	NaN	NaN	NaN
604.1306249999998	0.8126	sub-30	1	sequence	choice	choice	right	NaN	NaN	0.7855701999997109	True	NaN	NaN	right	True	3.0	5.0	5.0
604.9435009999997	0.5001	sub-30	1	sequence	feedback	NaN	NaN	NaN	NaN	NaN	NaN	NaN	NaN	NaN	NaN	NaN	NaN	NaN
605.4437706999997	1.0006	sub-30	1	sequence	cue	Haus	NaN	NaN	NaN	NaN	NaN	NaN	NaN	NaN	NaN	NaN	NaN	NaN
606.4443628999998	1.9997	sub-30	1	sequence	blank	blank	NaN	NaN	NaN	NaN	NaN	NaN	NaN	NaN	NaN	NaN	NaN	NaN
608.4440604000001	0.3022	sub-30	1	sequence	fixation	dot	NaN	NaN	NaN	NaN	NaN	NaN	NaN	NaN	NaN	NaN	NaN	NaN
608.7646389000001	0.1152	sub-30	1	sequence	stimulus	Katze	NaN	NaN	32.0	NaN	NaN	3.0	1.0	NaN	NaN	NaN	NaN	NaN
608.8798719000006	0.0333	sub-30	1	sequence	interval	dot	NaN	NaN	NaN	NaN	NaN	NaN	NaN	NaN	NaN	NaN	NaN	NaN
608.9132086	0.1001	sub-30	1	sequence	stimulus	Gesicht	NaN	NaN	32.0	NaN	NaN	1.0	2.0	NaN	NaN	NaN	NaN	NaN
609.0133008000003	0.0343	sub-30	1	sequence	interval	dot	NaN	NaN	NaN	NaN	NaN	NaN	NaN	NaN	NaN	NaN	NaN	NaN
609.0475830000005	0.0991	sub-30	1	sequence	stimulus	Schuh	NaN	NaN	32.0	NaN	NaN	4.0	3.0	NaN	NaN	NaN	NaN	NaN
609.1466994000002	0.0336	sub-30	1	sequence	interval	dot	NaN	NaN	NaN	NaN	NaN	NaN	NaN	NaN	NaN	NaN	NaN	NaN
609.1802828	0.0998	sub-30	1	sequence	stimulus	Stuhl	NaN	NaN	32.0	NaN	NaN	5.0	4.0	NaN	NaN	NaN	NaN	NaN
609.2800806000005	0.0335	sub-30	1	sequence	interval	dot	NaN	NaN	NaN	NaN	NaN	NaN	NaN	NaN	NaN	NaN	NaN	NaN
609.3135890000003	0.0999	sub-30	1	sequence	stimulus	Haus	NaN	NaN	32.0	NaN	NaN	2.0	5.0	NaN	NaN	NaN	NaN	NaN
609.4135258000006	0.0334	sub-30	1	sequence	interval	dot	NaN	NaN	NaN	NaN	NaN	NaN	NaN	NaN	NaN	NaN	NaN	NaN
609.4468932	8.5384	sub-30	1	sequence	delay	dot	NaN	NaN	NaN	NaN	NaN	NaN	NaN	NaN	NaN	NaN	NaN	NaN
617.9623176000005	0.6921	sub-30	1	sequence	choice	choice	right	NaN	NaN	0.6616942999999083	True	NaN	NaN	right	True	2.0	5.0	5.0
618.6546472999999	0.5	sub-30	1	sequence	feedback	NaN	NaN	NaN	NaN	NaN	NaN	NaN	NaN	NaN	NaN	NaN	NaN	NaN
619.1548794	1.0006	sub-30	1	sequence	cue	Stuhl	NaN	NaN	NaN	NaN	NaN	NaN	NaN	NaN	NaN	NaN	NaN	NaN
620.1555065000002	2.0014	sub-30	1	sequence	blank	blank	NaN	NaN	NaN	NaN	NaN	NaN	NaN	NaN	NaN	NaN	NaN	NaN
622.1569172	0.3003	sub-30	1	sequence	fixation	dot	NaN	NaN	NaN	NaN	NaN	NaN	NaN	NaN	NaN	NaN	NaN	NaN
622.4747125000004	0.0993	sub-30	1	sequence	stimulus	Schuh	NaN	NaN	512.0	NaN	NaN	4.0	1.0	NaN	NaN	NaN	NaN	NaN
622.5739848000003	0.5171	sub-30	1	sequence	interval	dot	NaN	NaN	NaN	NaN	NaN	NaN	NaN	NaN	NaN	NaN	NaN	NaN
623.0910885000003	0.1	sub-30	1	sequence	stimulus	Katze	NaN	NaN	512.0	NaN	NaN	3.0	2.0	NaN	NaN	NaN	NaN	NaN
623.1910723000001	0.5172	sub-30	1	sequence	interval	dot	NaN	NaN	NaN	NaN	NaN	NaN	NaN	NaN	NaN	NaN	NaN	NaN
623.7083197000002	0.0999	sub-30	1	sequence	stimulus	Haus	NaN	NaN	512.0	NaN	NaN	2.0	3.0	NaN	NaN	NaN	NaN	NaN
623.8082321000002	0.5172	sub-30	1	sequence	interval	dot	NaN	NaN	NaN	NaN	NaN	NaN	NaN	NaN	NaN	NaN	NaN	NaN
624.3254415000001	0.1	sub-30	1	sequence	stimulus	Stuhl	NaN	NaN	512.0	NaN	NaN	5.0	4.0	NaN	NaN	NaN	NaN	NaN
624.4254175000005	0.5172	sub-30	1	sequence	interval	dot	NaN	NaN	NaN	NaN	NaN	NaN	NaN	NaN	NaN	NaN	NaN	NaN
624.9426119999998	0.0999	sub-30	1	sequence	stimulus	Gesicht	NaN	NaN	512.0	NaN	NaN	1.0	5.0	NaN	NaN	NaN	NaN	NaN
625.0425513	0.5172	sub-30	1	sequence	interval	dot	NaN	NaN	NaN	NaN	NaN	NaN	NaN	NaN	NaN	NaN	NaN	NaN
625.5597707000006	6.1532	sub-30	1	sequence	delay	dot	NaN	NaN	NaN	NaN	NaN	NaN	NaN	NaN	NaN	NaN	NaN	NaN
631.6895524000001	0.7427	sub-30	1	sequence	choice	choice	right	NaN	NaN	0.7099122999998144	True	NaN	NaN	right	True	5.0	4.0	4.0
632.4324907999999	0.4998	sub-30	1	sequence	feedback	NaN	NaN	NaN	NaN	NaN	NaN	NaN	NaN	NaN	NaN	NaN	NaN	NaN
632.9324647000003	1.0007	sub-30	1	sequence	cue	Schuh	NaN	NaN	NaN	NaN	NaN	NaN	NaN	NaN	NaN	NaN	NaN	NaN
633.9331578000001	2.0016	sub-30	1	sequence	blank	blank	NaN	NaN	NaN	NaN	NaN	NaN	NaN	NaN	NaN	NaN	NaN	NaN
635.9347690000004	0.3002	sub-30	1	sequence	fixation	dot	NaN	NaN	NaN	NaN	NaN	NaN	NaN	NaN	NaN	NaN	NaN	NaN
636.2534329999999	0.115	sub-30	1	sequence	stimulus	Katze	NaN	NaN	128.0	NaN	NaN	3.0	1.0	NaN	NaN	NaN	NaN	NaN
636.3684345000001	0.1335	sub-30	1	sequence	interval	dot	NaN	NaN	NaN	NaN	NaN	NaN	NaN	NaN	NaN	NaN	NaN	NaN
636.5019584000001	0.1	sub-30	1	sequence	stimulus	Gesicht	NaN	NaN	128.0	NaN	NaN	1.0	2.0	NaN	NaN	NaN	NaN	NaN
636.6019113000002	0.1336	sub-30	1	sequence	interval	dot	NaN	NaN	NaN	NaN	NaN	NaN	NaN	NaN	NaN	NaN	NaN	NaN
636.7354971000004	0.0999	sub-30	1	sequence	stimulus	Haus	NaN	NaN	128.0	NaN	NaN	2.0	3.0	NaN	NaN	NaN	NaN	NaN
636.8354313	0.1336	sub-30	1	sequence	interval	dot	NaN	NaN	NaN	NaN	NaN	NaN	NaN	NaN	NaN	NaN	NaN	NaN
636.9689927999998	0.0999	sub-30	1	sequence	stimulus	Stuhl	NaN	NaN	128.0	NaN	NaN	5.0	4.0	NaN	NaN	NaN	NaN	NaN
637.0689419	0.1336	sub-30	1	sequence	interval	dot	NaN	NaN	NaN	NaN	NaN	NaN	NaN	NaN	NaN	NaN	NaN	NaN
637.2025190000004	0.0999	sub-30	1	sequence	stimulus	Schuh	NaN	NaN	128.0	NaN	NaN	4.0	5.0	NaN	NaN	NaN	NaN	NaN
637.3024678000002	0.1334	sub-30	1	sequence	interval	dot	NaN	NaN	NaN	NaN	NaN	NaN	NaN	NaN	NaN	NaN	NaN	NaN
637.4359046	8.0547	sub-30	1	sequence	delay	dot	NaN	NaN	NaN	NaN	NaN	NaN	NaN	NaN	NaN	NaN	NaN	NaN
645.4691486000002	0.9409	sub-30	1	sequence	choice	choice	left	NaN	NaN	0.9164877000002888	True	NaN	NaN	left	True	5.0	3.0	5.0
646.4103513	0.4999	sub-30	1	sequence	feedback	NaN	NaN	NaN	NaN	NaN	NaN	NaN	NaN	NaN	NaN	NaN	NaN	NaN
646.9103977000004	1.0008	sub-30	1	sequence	cue	Katze	NaN	NaN	NaN	NaN	NaN	NaN	NaN	NaN	NaN	NaN	NaN	NaN
647.9112077	2.0016	sub-30	1	sequence	blank	blank	NaN	NaN	NaN	NaN	NaN	NaN	NaN	NaN	NaN	NaN	NaN	NaN
649.9127780999997	0.2983	sub-30	1	sequence	fixation	dot	NaN	NaN	NaN	NaN	NaN	NaN	NaN	NaN	NaN	NaN	NaN	NaN
650.2314622000004	0.115	sub-30	1	sequence	stimulus	Haus	NaN	NaN	32.0	NaN	NaN	2.0	1.0	NaN	NaN	NaN	NaN	NaN
650.3464423000005	0.0335	sub-30	1	sequence	interval	dot	NaN	NaN	NaN	NaN	NaN	NaN	NaN	NaN	NaN	NaN	NaN	NaN
650.3799435000001	0.1	sub-30	1	sequence	stimulus	Schuh	NaN	NaN	32.0	NaN	NaN	4.0	2.0	NaN	NaN	NaN	NaN	NaN
650.4799124000001	0.0335	sub-30	1	sequence	interval	dot	NaN	NaN	NaN	NaN	NaN	NaN	NaN	NaN	NaN	NaN	NaN	NaN
650.5134152	0.1	sub-30	1	sequence	stimulus	Stuhl	NaN	NaN	32.0	NaN	NaN	5.0	3.0	NaN	NaN	NaN	NaN	NaN
650.6133845000004	0.0335	sub-30	1	sequence	interval	dot	NaN	NaN	NaN	NaN	NaN	NaN	NaN	NaN	NaN	NaN	NaN	NaN
650.6469056000005	0.1	sub-30	1	sequence	stimulus	Gesicht	NaN	NaN	32.0	NaN	NaN	1.0	4.0	NaN	NaN	NaN	NaN	NaN
650.7468773999999	0.0335	sub-30	1	sequence	interval	dot	NaN	NaN	NaN	NaN	NaN	NaN	NaN	NaN	NaN	NaN	NaN	NaN
650.7803451999998	0.1	sub-30	1	sequence	stimulus	Katze	NaN	NaN	32.0	NaN	NaN	3.0	5.0	NaN	NaN	NaN	NaN	NaN
650.8803077000002	0.0334	sub-30	1	sequence	interval	dot	NaN	NaN	NaN	NaN	NaN	NaN	NaN	NaN	NaN	NaN	NaN	NaN
650.9137457000006	8.5383	sub-30	1	sequence	delay	dot	NaN	NaN	NaN	NaN	NaN	NaN	NaN	NaN	NaN	NaN	NaN	NaN
659.4310986999999	0.9737	sub-30	1	sequence	choice	choice	left	NaN	NaN	0.9388350999997784	True	NaN	NaN	left	True	5.0	4.0	5.0
660.4050443000006	0.4999	sub-30	1	sequence	feedback	NaN	NaN	NaN	NaN	NaN	NaN	NaN	NaN	NaN	NaN	NaN	NaN	NaN
664.7255953000004	0.4994	sub-30	1	localizer	stimulus	Gesicht	NaN	0	2.551912699999775	NaN	True	NaN	NaN	NaN	NaN	NaN	NaN	NaN
665.2084934000004	2.5519	sub-30	1	localizer	blank	interval	NaN	NaN	NaN	NaN	NaN	NaN	NaN	NaN	NaN	NaN	NaN	NaN
668.0616578999998	0.4994	sub-30	1	localizer	stimulus	Katze	NaN	180	2.518673900000067	0.4972996000005878	True	NaN	NaN	NaN	NaN	NaN	NaN	NaN
668.5445213000003	2.5187	sub-30	1	localizer	blank	interval	NaN	NaN	NaN	NaN	NaN	NaN	NaN	NaN	NaN	NaN	NaN	NaN
671.3644591000002	0.4995	sub-30	1	localizer	stimulus	Haus	NaN	0	2.251504200000454	NaN	True	NaN	NaN	NaN	NaN	NaN	NaN	NaN
671.8474207999998	2.2515	sub-30	1	localizer	blank	interval	NaN	NaN	NaN	NaN	NaN	NaN	NaN	NaN	NaN	NaN	NaN	NaN
674.4000614000006	0.4996	sub-30	1	localizer	stimulus	Katze	NaN	0	2.8187434999999823	NaN	True	NaN	NaN	NaN	NaN	NaN	NaN	NaN
674.8830293000001	2.8187	sub-30	1	localizer	blank	interval	NaN	NaN	NaN	NaN	NaN	NaN	NaN	NaN	NaN	NaN	NaN	NaN
678.0029469000001	0.4995	sub-30	1	localizer	stimulus	Katze	NaN	0	3.2358203000003414	NaN	True	NaN	NaN	NaN	NaN	NaN	NaN	NaN
678.4858738000003	3.2358	sub-30	1	localizer	blank	interval	NaN	NaN	NaN	NaN	NaN	NaN	NaN	NaN	NaN	NaN	NaN	NaN
682.0228756000006	0.4995	sub-30	1	localizer	stimulus	Stuhl	NaN	180	3.152482099999361	0.6159428999999363	True	NaN	NaN	NaN	NaN	NaN	NaN	NaN
682.5057671000004	3.1525	sub-30	1	localizer	blank	interval	NaN	NaN	NaN	NaN	NaN	NaN	NaN	NaN	NaN	NaN	NaN	NaN
685.959409	0.4994	sub-30	1	localizer	stimulus	Haus	NaN	0	2.652003799999875	NaN	True	NaN	NaN	NaN	NaN	NaN	NaN	NaN
686.4423230000002	2.652	sub-30	1	localizer	blank	interval	NaN	NaN	NaN	NaN	NaN	NaN	NaN	NaN	NaN	NaN	NaN	NaN
689.3956998000003	0.4993	sub-30	1	localizer	stimulus	Gesicht	NaN	180	2.5520218000001478	0.531207699999868	True	NaN	NaN	NaN	NaN	NaN	NaN	NaN
689.8784870999998	2.552	sub-30	1	localizer	blank	interval	NaN	NaN	NaN	NaN	NaN	NaN	NaN	NaN	NaN	NaN	NaN	NaN
692.7322382000002	0.499	sub-30	1	localizer	stimulus	Schuh	NaN	0	2.8519513000001098	NaN	True	NaN	NaN	NaN	NaN	NaN	NaN	NaN
693.2147015999999	2.852	sub-30	1	localizer	blank	interval	NaN	NaN	NaN	NaN	NaN	NaN	NaN	NaN	NaN	NaN	NaN	NaN
696.3679738999999	0.4993	sub-30	1	localizer	stimulus	Gesicht	NaN	0	2.635417299999972	NaN	True	NaN	NaN	NaN	NaN	NaN	NaN	NaN
696.8507325	2.6354	sub-30	1	localizer	blank	interval	NaN	NaN	NaN	NaN	NaN	NaN	NaN	NaN	NaN	NaN	NaN	NaN
699.7872290000005	0.4994	sub-30	1	localizer	stimulus	Haus	NaN	180	2.4185552999997526	0.5156015000002299	True	NaN	NaN	NaN	NaN	NaN	NaN	NaN
700.2701715000003	2.4186	sub-30	1	localizer	blank	interval	NaN	NaN	NaN	NaN	NaN	NaN	NaN	NaN	NaN	NaN	NaN	NaN
702.9898865000005	0.4995	sub-30	1	localizer	stimulus	Haus	NaN	0	2.3517946000001757	NaN	True	NaN	NaN	NaN	NaN	NaN	NaN	NaN
703.4727788	2.3518	sub-30	1	localizer	blank	interval	NaN	NaN	NaN	NaN	NaN	NaN	NaN	NaN	NaN	NaN	NaN	NaN
706.1256788000001	0.4995	sub-30	1	localizer	stimulus	Stuhl	NaN	0	3.5860727999997835	NaN	True	NaN	NaN	NaN	NaN	NaN	NaN	NaN
706.6086310000001	3.5861	sub-30	1	localizer	blank	interval	NaN	NaN	NaN	NaN	NaN	NaN	NaN	NaN	NaN	NaN	NaN	NaN
710.4960064000006	0.4995	sub-30	1	localizer	stimulus	Schuh	NaN	0	3.1358338000000003	NaN	True	NaN	NaN	NaN	NaN	NaN	NaN	NaN
710.9789716000005	3.1358	sub-30	1	localizer	blank	interval	NaN	NaN	NaN	NaN	NaN	NaN	NaN	NaN	NaN	NaN	NaN	NaN
714.4159573000006	0.4993	sub-30	1	localizer	stimulus	Katze	NaN	0	2.1350286000006236	NaN	True	NaN	NaN	NaN	NaN	NaN	NaN	NaN
714.8986175999999	2.135	sub-30	1	localizer	blank	interval	NaN	NaN	NaN	NaN	NaN	NaN	NaN	NaN	NaN	NaN	NaN	NaN
717.3347322	0.4994	sub-30	1	localizer	stimulus	Schuh	NaN	0	2.8855485999993107	NaN	True	NaN	NaN	NaN	NaN	NaN	NaN	NaN
717.8176896000004	2.8855	sub-30	1	localizer	blank	interval	NaN	NaN	NaN	NaN	NaN	NaN	NaN	NaN	NaN	NaN	NaN	NaN
721.0043704	0.4994	sub-30	1	localizer	stimulus	Haus	NaN	0	2.3684794999999212	NaN	True	NaN	NaN	NaN	NaN	NaN	NaN	NaN
721.4873486000006	2.3685	sub-30	1	localizer	blank	interval	NaN	NaN	NaN	NaN	NaN	NaN	NaN	NaN	NaN	NaN	NaN	NaN
724.1569135	0.4995	sub-30	1	localizer	stimulus	Schuh	NaN	0	2.6853784000004453	NaN	True	NaN	NaN	NaN	NaN	NaN	NaN	NaN
724.6398423	2.6854	sub-30	1	localizer	blank	interval	NaN	NaN	NaN	NaN	NaN	NaN	NaN	NaN	NaN	NaN	NaN	NaN
727.6263864000002	0.4995	sub-30	1	localizer	stimulus	Schuh	NaN	180	3.185811299999841	0.5164370000002236	True	NaN	NaN	NaN	NaN	NaN	NaN	NaN
728.1093025	3.1858	sub-30	1	localizer	blank	interval	NaN	NaN	NaN	NaN	NaN	NaN	NaN	NaN	NaN	NaN	NaN	NaN
731.5963971000001	0.4994	sub-30	1	localizer	stimulus	Stuhl	NaN	0	2.6187299000002895	NaN	True	NaN	NaN	NaN	NaN	NaN	NaN	NaN
732.0793424000003	2.6187	sub-30	1	localizer	blank	interval	NaN	NaN	NaN	NaN	NaN	NaN	NaN	NaN	NaN	NaN	NaN	NaN
734.9992845000006	0.4994	sub-30	1	localizer	stimulus	Gesicht	NaN	0	2.1681798999998136	NaN	True	NaN	NaN	NaN	NaN	NaN	NaN	NaN
735.4820543000005	2.1682	sub-30	1	localizer	blank	interval	NaN	NaN	NaN	NaN	NaN	NaN	NaN	NaN	NaN	NaN	NaN	NaN
737.9514009000004	0.4995	sub-30	1	localizer	stimulus	Gesicht	NaN	0	2.5186437000002115	NaN	True	NaN	NaN	NaN	NaN	NaN	NaN	NaN
738.4343416000002	2.5186	sub-30	1	localizer	blank	interval	NaN	NaN	NaN	NaN	NaN	NaN	NaN	NaN	NaN	NaN	NaN	NaN
741.2540625000001	0.4996	sub-30	1	localizer	stimulus	Stuhl	NaN	0	3.5694351000001916	NaN	True	NaN	NaN	NaN	NaN	NaN	NaN	NaN
741.7370092000001	3.5694	sub-30	1	localizer	blank	interval	NaN	NaN	NaN	NaN	NaN	NaN	NaN	NaN	NaN	NaN	NaN	NaN
745.6076153000004	0.4995	sub-30	1	localizer	stimulus	Stuhl	NaN	0	2.085010300000249	NaN	True	NaN	NaN	NaN	NaN	NaN	NaN	NaN
746.0905014999998	2.085	sub-30	1	localizer	blank	interval	NaN	NaN	NaN	NaN	NaN	NaN	NaN	NaN	NaN	NaN	NaN	NaN
748.4765810999997	0.4995	sub-30	1	localizer	stimulus	Katze	NaN	0	1.167443400000593	NaN	True	NaN	NaN	NaN	NaN	NaN	NaN	NaN
748.9595098	1.1674	sub-30	1	localizer	blank	interval	NaN	NaN	NaN	NaN	NaN	NaN	NaN	NaN	NaN	NaN	NaN	NaN
753.6136983000006	1.0006	sub-30	1	sequence	cue	Gesicht	NaN	NaN	NaN	NaN	NaN	NaN	NaN	NaN	NaN	NaN	NaN	NaN
754.6143428000005	2.0014	sub-30	1	sequence	blank	blank	NaN	NaN	NaN	NaN	NaN	NaN	NaN	NaN	NaN	NaN	NaN	NaN
756.6157891000003	0.3003	sub-30	1	sequence	fixation	dot	NaN	NaN	NaN	NaN	NaN	NaN	NaN	NaN	NaN	NaN	NaN	NaN
756.9492428000003	0.1001	sub-30	1	sequence	stimulus	Stuhl	NaN	NaN	128.0	NaN	NaN	5.0	1.0	NaN	NaN	NaN	NaN	NaN
757.0493926999998	0.1334	sub-30	1	sequence	interval	dot	NaN	NaN	NaN	NaN	NaN	NaN	NaN	NaN	NaN	NaN	NaN	NaN
757.1828009999999	0.1	sub-30	1	sequence	stimulus	Schuh	NaN	NaN	128.0	NaN	NaN	4.0	2.0	NaN	NaN	NaN	NaN	NaN
757.2828230000005	0.1336	sub-30	1	sequence	interval	dot	NaN	NaN	NaN	NaN	NaN	NaN	NaN	NaN	NaN	NaN	NaN	NaN
757.4164117	0.0999	sub-30	1	sequence	stimulus	Katze	NaN	NaN	128.0	NaN	NaN	3.0	3.0	NaN	NaN	NaN	NaN	NaN
757.5163119999997	0.1336	sub-30	1	sequence	interval	dot	NaN	NaN	NaN	NaN	NaN	NaN	NaN	NaN	NaN	NaN	NaN	NaN
757.6498716000006	0.0999	sub-30	1	sequence	stimulus	Gesicht	NaN	NaN	128.0	NaN	NaN	1.0	4.0	NaN	NaN	NaN	NaN	NaN
757.7498197000004	0.1336	sub-30	1	sequence	interval	dot	NaN	NaN	NaN	NaN	NaN	NaN	NaN	NaN	NaN	NaN	NaN	NaN
757.8834431000005	0.0999	sub-30	1	sequence	stimulus	Haus	NaN	NaN	128.0	NaN	NaN	2.0	5.0	NaN	NaN	NaN	NaN	NaN
757.9833564	0.1334	sub-30	1	sequence	interval	dot	NaN	NaN	NaN	NaN	NaN	NaN	NaN	NaN	NaN	NaN	NaN	NaN
758.1167985000002	8.0549	sub-30	1	sequence	delay	dot	NaN	NaN	NaN	NaN	NaN	NaN	NaN	NaN	NaN	NaN	NaN	NaN
766.1583415000005	1.016	sub-30	1	sequence	choice	choice	right	NaN	NaN	0.9949790000000576	True	NaN	NaN	right	True	5.0	4.0	4.0
767.1746985	0.5	sub-30	1	sequence	feedback	NaN	NaN	NaN	NaN	NaN	NaN	NaN	NaN	NaN	NaN	NaN	NaN	NaN
767.6748261000002	1.0006	sub-30	1	sequence	cue	Gesicht	NaN	NaN	NaN	NaN	NaN	NaN	NaN	NaN	NaN	NaN	NaN	NaN
768.6754624000005	2.0015	sub-30	1	sequence	blank	blank	NaN	NaN	NaN	NaN	NaN	NaN	NaN	NaN	NaN	NaN	NaN	NaN
770.67695	0.3004	sub-30	1	sequence	fixation	dot	NaN	NaN	NaN	NaN	NaN	NaN	NaN	NaN	NaN	NaN	NaN	NaN
770.9968057000006	0.1138	sub-30	1	sequence	stimulus	Katze	NaN	NaN	32.0	NaN	NaN	3.0	1.0	NaN	NaN	NaN	NaN	NaN
771.1106396000005	0.0335	sub-30	1	sequence	interval	dot	NaN	NaN	NaN	NaN	NaN	NaN	NaN	NaN	NaN	NaN	NaN	NaN
771.1441156999999	0.0999	sub-30	1	sequence	stimulus	Gesicht	NaN	NaN	32.0	NaN	NaN	1.0	2.0	NaN	NaN	NaN	NaN	NaN
771.2440548000004	0.0335	sub-30	1	sequence	interval	dot	NaN	NaN	NaN	NaN	NaN	NaN	NaN	NaN	NaN	NaN	NaN	NaN
771.2775532000005	0.0999	sub-30	1	sequence	stimulus	Schuh	NaN	NaN	32.0	NaN	NaN	4.0	3.0	NaN	NaN	NaN	NaN	NaN
771.3774905999999	0.0335	sub-30	1	sequence	interval	dot	NaN	NaN	NaN	NaN	NaN	NaN	NaN	NaN	NaN	NaN	NaN	NaN
771.4109798999998	0.1	sub-30	1	sequence	stimulus	Stuhl	NaN	NaN	32.0	NaN	NaN	5.0	4.0	NaN	NaN	NaN	NaN	NaN
771.510937	0.0335	sub-30	1	sequence	interval	dot	NaN	NaN	NaN	NaN	NaN	NaN	NaN	NaN	NaN	NaN	NaN	NaN
771.5444482000003	0.0999	sub-30	1	sequence	stimulus	Haus	NaN	NaN	32.0	NaN	NaN	2.0	5.0	NaN	NaN	NaN	NaN	NaN
771.6443745000006	0.0336	sub-30	1	sequence	interval	dot	NaN	NaN	NaN	NaN	NaN	NaN	NaN	NaN	NaN	NaN	NaN	NaN
771.6779458000001	8.5553	sub-30	1	sequence	delay	dot	NaN	NaN	NaN	NaN	NaN	NaN	NaN	NaN	NaN	NaN	NaN	NaN
780.1983650000002	0.8373	sub-30	1	sequence	choice	choice	left	NaN	NaN	0.7974246999992829	True	NaN	NaN	left	True	2.0	4.0	2.0
781.0359253000006	0.5	sub-30	1	sequence	feedback	NaN	NaN	NaN	NaN	NaN	NaN	NaN	NaN	NaN	NaN	NaN	NaN	NaN
781.5361893999998	1.0004	sub-30	1	sequence	cue	Gesicht	NaN	NaN	NaN	NaN	NaN	NaN	NaN	NaN	NaN	NaN	NaN	NaN
782.5365741000005	2.0016	sub-30	1	sequence	blank	blank	NaN	NaN	NaN	NaN	NaN	NaN	NaN	NaN	NaN	NaN	NaN	NaN
784.5381980000002	0.3002	sub-30	1	sequence	fixation	dot	NaN	NaN	NaN	NaN	NaN	NaN	NaN	NaN	NaN	NaN	NaN	NaN
784.8568642	0.115	sub-30	1	sequence	stimulus	Haus	NaN	NaN	32.0	NaN	NaN	2.0	1.0	NaN	NaN	NaN	NaN	NaN
784.9718153000003	0.0335	sub-30	1	sequence	interval	dot	NaN	NaN	NaN	NaN	NaN	NaN	NaN	NaN	NaN	NaN	NaN	NaN
785.0053317000002	0.0999	sub-30	1	sequence	stimulus	Schuh	NaN	NaN	32.0	NaN	NaN	4.0	2.0	NaN	NaN	NaN	NaN	NaN
785.1052439000005	0.0335	sub-30	1	sequence	interval	dot	NaN	NaN	NaN	NaN	NaN	NaN	NaN	NaN	NaN	NaN	NaN	NaN
785.1387441000006	0.0999	sub-30	1	sequence	stimulus	Stuhl	NaN	NaN	32.0	NaN	NaN	5.0	3.0	NaN	NaN	NaN	NaN	NaN
785.2386912000002	0.0335	sub-30	1	sequence	interval	dot	NaN	NaN	NaN	NaN	NaN	NaN	NaN	NaN	NaN	NaN	NaN	NaN
785.2722011000005	0.0999	sub-30	1	sequence	stimulus	Gesicht	NaN	NaN	32.0	NaN	NaN	1.0	4.0	NaN	NaN	NaN	NaN	NaN
785.3721311999998	0.0335	sub-30	1	sequence	interval	dot	NaN	NaN	NaN	NaN	NaN	NaN	NaN	NaN	NaN	NaN	NaN	NaN
785.4056111999998	0.1	sub-30	1	sequence	stimulus	Katze	NaN	NaN	32.0	NaN	NaN	3.0	5.0	NaN	NaN	NaN	NaN	NaN
785.5055794999998	0.0334	sub-30	1	sequence	interval	dot	NaN	NaN	NaN	NaN	NaN	NaN	NaN	NaN	NaN	NaN	NaN	NaN
785.5389433	8.5386	sub-30	1	sequence	delay	dot	NaN	NaN	NaN	NaN	NaN	NaN	NaN	NaN	NaN	NaN	NaN	NaN
794.0557598000005	0.7576	sub-30	1	sequence	choice	choice	right	NaN	NaN	0.7211059999999634	True	NaN	NaN	right	True	3.0	4.0	4.0
794.8136654999998	0.5	sub-30	1	sequence	feedback	NaN	NaN	NaN	NaN	NaN	NaN	NaN	NaN	NaN	NaN	NaN	NaN	NaN
795.3137943000002	1.0007	sub-30	1	sequence	cue	Gesicht	NaN	NaN	NaN	NaN	NaN	NaN	NaN	NaN	NaN	NaN	NaN	NaN
796.3144548	2.0017	sub-30	1	sequence	blank	blank	NaN	NaN	NaN	NaN	NaN	NaN	NaN	NaN	NaN	NaN	NaN	NaN
798.3161762999998	0.3	sub-30	1	sequence	fixation	dot	NaN	NaN	NaN	NaN	NaN	NaN	NaN	NaN	NaN	NaN	NaN	NaN
798.6345977999999	0.115	sub-30	1	sequence	stimulus	Stuhl	NaN	NaN	64.0	NaN	NaN	5.0	1.0	NaN	NaN	NaN	NaN	NaN
798.7496065000005	0.0668	sub-30	1	sequence	interval	dot	NaN	NaN	NaN	NaN	NaN	NaN	NaN	NaN	NaN	NaN	NaN	NaN
798.8164508	0.1	sub-30	1	sequence	stimulus	Gesicht	NaN	NaN	64.0	NaN	NaN	1.0	2.0	NaN	NaN	NaN	NaN	NaN
798.9164591999997	0.0668	sub-30	1	sequence	interval	dot	NaN	NaN	NaN	NaN	NaN	NaN	NaN	NaN	NaN	NaN	NaN	NaN
798.9832655	0.0999	sub-30	1	sequence	stimulus	Katze	NaN	NaN	64.0	NaN	NaN	3.0	3.0	NaN	NaN	NaN	NaN	NaN
799.0832154999998	0.0669	sub-30	1	sequence	interval	dot	NaN	NaN	NaN	NaN	NaN	NaN	NaN	NaN	NaN	NaN	NaN	NaN
799.1500680999998	0.1	sub-30	1	sequence	stimulus	Schuh	NaN	NaN	64.0	NaN	NaN	4.0	4.0	NaN	NaN	NaN	NaN	NaN
799.2500736000002	0.0668	sub-30	1	sequence	interval	dot	NaN	NaN	NaN	NaN	NaN	NaN	NaN	NaN	NaN	NaN	NaN	NaN
799.3168996000004	0.0999	sub-30	1	sequence	stimulus	Haus	NaN	NaN	64.0	NaN	NaN	2.0	5.0	NaN	NaN	NaN	NaN	NaN
799.4168202000001	0.0667	sub-30	1	sequence	interval	dot	NaN	NaN	NaN	NaN	NaN	NaN	NaN	NaN	NaN	NaN	NaN	NaN
799.4835326000002	8.3719	sub-30	1	sequence	delay	dot	NaN	NaN	NaN	NaN	NaN	NaN	NaN	NaN	NaN	NaN	NaN	NaN
807.8354037999998	0.7558	sub-30	1	sequence	choice	choice	right	NaN	NaN	0.7272559999992154	True	NaN	NaN	right	True	4.0	2.0	2.0
808.5914205999998	0.4999	sub-30	1	sequence	feedback	NaN	NaN	NaN	NaN	NaN	NaN	NaN	NaN	NaN	NaN	NaN	NaN	NaN
809.0914727999998	1.0007	sub-30	1	sequence	cue	Gesicht	NaN	NaN	NaN	NaN	NaN	NaN	NaN	NaN	NaN	NaN	NaN	NaN
810.0921679000003	2.0018	sub-30	1	sequence	blank	blank	NaN	NaN	NaN	NaN	NaN	NaN	NaN	NaN	NaN	NaN	NaN	NaN
812.0939563000002	0.3001	sub-30	1	sequence	fixation	dot	NaN	NaN	NaN	NaN	NaN	NaN	NaN	NaN	NaN	NaN	NaN	NaN
812.4115679000006	0.0992	sub-30	1	sequence	stimulus	Katze	NaN	NaN	128.0	NaN	NaN	3.0	1.0	NaN	NaN	NaN	NaN	NaN
812.5107325999998	0.1336	sub-30	1	sequence	interval	dot	NaN	NaN	NaN	NaN	NaN	NaN	NaN	NaN	NaN	NaN	NaN	NaN
812.6443237000003	0.0999	sub-30	1	sequence	stimulus	Gesicht	NaN	NaN	128.0	NaN	NaN	1.0	2.0	NaN	NaN	NaN	NaN	NaN
812.7442476000006	0.1336	sub-30	1	sequence	interval	dot	NaN	NaN	NaN	NaN	NaN	NaN	NaN	NaN	NaN	NaN	NaN	NaN
812.8778573	0.0999	sub-30	1	sequence	stimulus	Haus	NaN	NaN	128.0	NaN	NaN	2.0	3.0	NaN	NaN	NaN	NaN	NaN
812.9777648999998	0.1336	sub-30	1	sequence	interval	dot	NaN	NaN	NaN	NaN	NaN	NaN	NaN	NaN	NaN	NaN	NaN	NaN
813.1113548000003	0.0999	sub-30	1	sequence	stimulus	Stuhl	NaN	NaN	128.0	NaN	NaN	5.0	4.0	NaN	NaN	NaN	NaN	NaN
813.2112974000001	0.1336	sub-30	1	sequence	interval	dot	NaN	NaN	NaN	NaN	NaN	NaN	NaN	NaN	NaN	NaN	NaN	NaN
813.3448576999999	0.1	sub-30	1	sequence	stimulus	Schuh	NaN	NaN	128.0	NaN	NaN	4.0	5.0	NaN	NaN	NaN	NaN	NaN
813.4448185000001	0.1334	sub-30	1	sequence	interval	dot	NaN	NaN	NaN	NaN	NaN	NaN	NaN	NaN	NaN	NaN	NaN	NaN
813.5782348000002	8.0549	sub-30	1	sequence	delay	dot	NaN	NaN	NaN	NaN	NaN	NaN	NaN	NaN	NaN	NaN	NaN	NaN
821.6152683999999	0.904	sub-30	1	sequence	choice	choice	left	NaN	NaN	0.8695097999998325	True	NaN	NaN	left	True	2.0	4.0	2.0
822.5195013000002	0.5	sub-30	1	sequence	feedback	NaN	NaN	NaN	NaN	NaN	NaN	NaN	NaN	NaN	NaN	NaN	NaN	NaN
823.0196858999998	1.0004	sub-30	1	sequence	cue	Gesicht	NaN	NaN	NaN	NaN	NaN	NaN	NaN	NaN	NaN	NaN	NaN	NaN
824.0200722	2.0016	sub-30	1	sequence	blank	blank	NaN	NaN	NaN	NaN	NaN	NaN	NaN	NaN	NaN	NaN	NaN	NaN
826.0216734000005	0.3003	sub-30	1	sequence	fixation	dot	NaN	NaN	NaN	NaN	NaN	NaN	NaN	NaN	NaN	NaN	NaN	NaN
826.3405325000003	0.1148	sub-30	1	sequence	stimulus	Haus	NaN	NaN	64.0	NaN	NaN	2.0	1.0	NaN	NaN	NaN	NaN	NaN
826.4553481000003	0.0668	sub-30	1	sequence	interval	dot	NaN	NaN	NaN	NaN	NaN	NaN	NaN	NaN	NaN	NaN	NaN	NaN
826.5221771000006	0.1	sub-30	1	sequence	stimulus	Katze	NaN	NaN	64.0	NaN	NaN	3.0	2.0	NaN	NaN	NaN	NaN	NaN
826.6221384	0.0669	sub-30	1	sequence	interval	dot	NaN	NaN	NaN	NaN	NaN	NaN	NaN	NaN	NaN	NaN	NaN	NaN
826.6889915000002	0.1001	sub-30	1	sequence	stimulus	Schuh	NaN	NaN	64.0	NaN	NaN	4.0	3.0	NaN	NaN	NaN	NaN	NaN
826.7890439000003	0.0669	sub-30	1	sequence	interval	dot	NaN	NaN	NaN	NaN	NaN	NaN	NaN	NaN	NaN	NaN	NaN	NaN
826.8558966	0.0998	sub-30	1	sequence	stimulus	Gesicht	NaN	NaN	64.0	NaN	NaN	1.0	4.0	NaN	NaN	NaN	NaN	NaN
826.9557314000003	0.0668	sub-30	1	sequence	interval	dot	NaN	NaN	NaN	NaN	NaN	NaN	NaN	NaN	NaN	NaN	NaN	NaN
827.0225681000002	0.1	sub-30	1	sequence	stimulus	Stuhl	NaN	NaN	64.0	NaN	NaN	5.0	5.0	NaN	NaN	NaN	NaN	NaN
827.1225469999999	0.0667	sub-30	1	sequence	interval	dot	NaN	NaN	NaN	NaN	NaN	NaN	NaN	NaN	NaN	NaN	NaN	NaN
827.1892533999999	8.3885	sub-30	1	sequence	delay	dot	NaN	NaN	NaN	NaN	NaN	NaN	NaN	NaN	NaN	NaN	NaN	NaN
835.5507753000002	0.7796	sub-30	1	sequence	choice	choice	left	NaN	NaN	0.74884480000037	True	NaN	NaN	left	True	4.0	2.0	4.0
836.3306672999997	0.5001	sub-30	1	sequence	feedback	NaN	NaN	NaN	NaN	NaN	NaN	NaN	NaN	NaN	NaN	NaN	NaN	NaN
836.8310338000001	1.0003	sub-30	1	sequence	cue	Stuhl	NaN	NaN	NaN	NaN	NaN	NaN	NaN	NaN	NaN	NaN	NaN	NaN
837.8313591000006	2.0017	sub-30	1	sequence	blank	blank	NaN	NaN	NaN	NaN	NaN	NaN	NaN	NaN	NaN	NaN	NaN	NaN
839.8330747	0.3004	sub-30	1	sequence	fixation	dot	NaN	NaN	NaN	NaN	NaN	NaN	NaN	NaN	NaN	NaN	NaN	NaN
840.1516757999998	0.115	sub-30	1	sequence	stimulus	Schuh	NaN	NaN	512.0	NaN	NaN	4.0	1.0	NaN	NaN	NaN	NaN	NaN
840.2666266000006	0.5171	sub-30	1	sequence	interval	dot	NaN	NaN	NaN	NaN	NaN	NaN	NaN	NaN	NaN	NaN	NaN	NaN
840.7837028000004	0.1	sub-30	1	sequence	stimulus	Katze	NaN	NaN	512.0	NaN	NaN	3.0	2.0	NaN	NaN	NaN	NaN	NaN
840.8836590000001	0.5172	sub-30	1	sequence	interval	dot	NaN	NaN	NaN	NaN	NaN	NaN	NaN	NaN	NaN	NaN	NaN	NaN
841.4008874000001	0.1	sub-30	1	sequence	stimulus	Haus	NaN	NaN	512.0	NaN	NaN	2.0	3.0	NaN	NaN	NaN	NaN	NaN
841.5008475000004	0.5172	sub-30	1	sequence	interval	dot	NaN	NaN	NaN	NaN	NaN	NaN	NaN	NaN	NaN	NaN	NaN	NaN
842.0180285000006	0.1	sub-30	1	sequence	stimulus	Stuhl	NaN	NaN	512.0	NaN	NaN	5.0	4.0	NaN	NaN	NaN	NaN	NaN
842.1179824000001	0.5172	sub-30	1	sequence	interval	dot	NaN	NaN	NaN	NaN	NaN	NaN	NaN	NaN	NaN	NaN	NaN	NaN
842.6352281	0.0999	sub-30	1	sequence	stimulus	Gesicht	NaN	NaN	512.0	NaN	NaN	1.0	5.0	NaN	NaN	NaN	NaN	NaN
842.7351660000004	0.5171	sub-30	1	sequence	interval	dot	NaN	NaN	NaN	NaN	NaN	NaN	NaN	NaN	NaN	NaN	NaN	NaN
843.2522239	6.1534	sub-30	1	sequence	delay	dot	NaN	NaN	NaN	NaN	NaN	NaN	NaN	NaN	NaN	NaN	NaN	NaN
849.3825371000003	0.6589	sub-30	1	sequence	choice	choice	right	NaN	NaN	0.62496530000044	True	NaN	NaN	right	True	5.0	4.0	4.0
850.0417416	0.4998	sub-30	1	sequence	feedback	NaN	NaN	NaN	NaN	NaN	NaN	NaN	NaN	NaN	NaN	NaN	NaN	NaN
850.5416634000003	1.0007	sub-30	1	sequence	cue	Katze	NaN	NaN	NaN	NaN	NaN	NaN	NaN	NaN	NaN	NaN	NaN	NaN
851.5423552000002	2.0015	sub-30	1	sequence	blank	blank	NaN	NaN	NaN	NaN	NaN	NaN	NaN	NaN	NaN	NaN	NaN	NaN
853.5439102999999	0.3002	sub-30	1	sequence	fixation	dot	NaN	NaN	NaN	NaN	NaN	NaN	NaN	NaN	NaN	NaN	NaN	NaN
853.861758	0.0991	sub-30	1	sequence	stimulus	Gesicht	NaN	NaN	512.0	NaN	NaN	1.0	1.0	NaN	NaN	NaN	NaN	NaN
853.9608871999999	0.5174	sub-30	1	sequence	interval	dot	NaN	NaN	NaN	NaN	NaN	NaN	NaN	NaN	NaN	NaN	NaN	NaN
854.4782546000006	0.0999	sub-30	1	sequence	stimulus	Schuh	NaN	NaN	512.0	NaN	NaN	4.0	2.0	NaN	NaN	NaN	NaN	NaN
854.5781519000002	0.5172	sub-30	1	sequence	interval	dot	NaN	NaN	NaN	NaN	NaN	NaN	NaN	NaN	NaN	NaN	NaN	NaN
855.0953082000005	0.0999	sub-30	1	sequence	stimulus	Haus	NaN	NaN	512.0	NaN	NaN	2.0	3.0	NaN	NaN	NaN	NaN	NaN
855.1952301000001	0.5172	sub-30	1	sequence	interval	dot	NaN	NaN	NaN	NaN	NaN	NaN	NaN	NaN	NaN	NaN	NaN	NaN
855.7124363000003	0.1001	sub-30	1	sequence	stimulus	Stuhl	NaN	NaN	512.0	NaN	NaN	5.0	4.0	NaN	NaN	NaN	NaN	NaN
855.8125734000005	0.517	sub-30	1	sequence	interval	dot	NaN	NaN	NaN	NaN	NaN	NaN	NaN	NaN	NaN	NaN	NaN	NaN
856.3296141000001	0.1	sub-30	1	sequence	stimulus	Katze	NaN	NaN	512.0	NaN	NaN	3.0	5.0	NaN	NaN	NaN	NaN	NaN
856.4295692000005	0.5172	sub-30	1	sequence	interval	dot	NaN	NaN	NaN	NaN	NaN	NaN	NaN	NaN	NaN	NaN	NaN	NaN
856.9467884000005	6.1532	sub-30	1	sequence	delay	dot	NaN	NaN	NaN	NaN	NaN	NaN	NaN	NaN	NaN	NaN	NaN	NaN
863.0842129000002	0.8351	sub-30	1	sequence	choice	choice	left	NaN	NaN	0.8107247000007192	True	NaN	NaN	left	True	5.0	1.0	5.0
863.9196061000002	0.4998	sub-30	1	sequence	feedback	NaN	NaN	NaN	NaN	NaN	NaN	NaN	NaN	NaN	NaN	NaN	NaN	NaN
864.4197566000003	26.8048	sub-30	1	other	break	break	NaN	NaN	NaN	NaN	NaN	NaN	NaN	NaN	NaN	NaN	NaN	NaN
895.0450596999999	0.4995	sub-30	1	localizer	stimulus	Gesicht	NaN	0	3.3026104000000487	NaN	True	NaN	NaN	NaN	NaN	NaN	NaN	NaN
895.5445636000004	3.3026	sub-30	1	localizer	blank	interval	NaN	NaN	NaN	NaN	NaN	NaN	NaN	NaN	NaN	NaN	NaN	NaN
899.1484732999998	0.4995	sub-30	1	localizer	stimulus	Gesicht	NaN	0	1.9848128000003271	NaN	True	NaN	NaN	NaN	NaN	NaN	NaN	NaN
899.6314880999998	1.9848	sub-30	1	localizer	blank	interval	NaN	NaN	NaN	NaN	NaN	NaN	NaN	NaN	NaN	NaN	NaN	NaN
901.9174927000004	0.4995	sub-30	1	localizer	stimulus	Stuhl	NaN	0	2.034484100000668	NaN	True	NaN	NaN	NaN	NaN	NaN	NaN	NaN
902.4005263999998	2.0345	sub-30	1	localizer	blank	interval	NaN	NaN	NaN	NaN	NaN	NaN	NaN	NaN	NaN	NaN	NaN	NaN
904.7362174	0.4994	sub-30	1	localizer	stimulus	Gesicht	NaN	0	2.6687097000003632	NaN	True	NaN	NaN	NaN	NaN	NaN	NaN	NaN
905.2191125	2.6687	sub-30	1	localizer	blank	interval	NaN	NaN	NaN	NaN	NaN	NaN	NaN	NaN	NaN	NaN	NaN	NaN
908.1889789000006	0.4995	sub-30	1	localizer	stimulus	Katze	NaN	0	2.1349297000006118	NaN	True	NaN	NaN	NaN	NaN	NaN	NaN	NaN
908.6718904999998	2.1349	sub-30	1	localizer	blank	interval	NaN	NaN	NaN	NaN	NaN	NaN	NaN	NaN	NaN	NaN	NaN	NaN
911.1080330000004	0.4994	sub-30	1	localizer	stimulus	Gesicht	NaN	180	2.1350108999996564	0.5225188000003982	True	NaN	NaN	NaN	NaN	NaN	NaN	NaN
911.5909570000003	2.135	sub-30	1	localizer	blank	interval	NaN	NaN	NaN	NaN	NaN	NaN	NaN	NaN	NaN	NaN	NaN	NaN
914.0270602	0.4995	sub-30	1	localizer	stimulus	Schuh	NaN	0	1.551166999999623	NaN	True	NaN	NaN	NaN	NaN	NaN	NaN	NaN
914.5099544000004	1.5512	sub-30	1	localizer	blank	interval	NaN	NaN	NaN	NaN	NaN	NaN	NaN	NaN	NaN	NaN	NaN	NaN
916.3625339	0.4992	sub-30	1	localizer	stimulus	Katze	NaN	180	3.352622999999994	0.5078496999994968	True	NaN	NaN	NaN	NaN	NaN	NaN	NaN
916.8451752	3.3526	sub-30	1	localizer	blank	interval	NaN	NaN	NaN	NaN	NaN	NaN	NaN	NaN	NaN	NaN	NaN	NaN
920.4990710000002	0.4994	sub-30	1	localizer	stimulus	Katze	NaN	0	1.9180550999998331	NaN	True	NaN	NaN	NaN	NaN	NaN	NaN	NaN
920.9820385000004	1.9181	sub-30	1	localizer	blank	interval	NaN	NaN	NaN	NaN	NaN	NaN	NaN	NaN	NaN	NaN	NaN	NaN
923.2013191000004	0.4995	sub-30	1	localizer	stimulus	Stuhl	NaN	0	1.9512324999996054	NaN	True	NaN	NaN	NaN	NaN	NaN	NaN	NaN
923.6842848000006	1.9512	sub-30	1	localizer	blank	interval	NaN	NaN	NaN	NaN	NaN	NaN	NaN	NaN	NaN	NaN	NaN	NaN
925.9366884	0.4996	sub-30	1	localizer	stimulus	Stuhl	NaN	180	2.1349553000000014	0.5096806999999899	True	NaN	NaN	NaN	NaN	NaN	NaN	NaN
926.4195811	2.135	sub-30	1	localizer	blank	interval	NaN	NaN	NaN	NaN	NaN	NaN	NaN	NaN	NaN	NaN	NaN	NaN
928.8556857000004	0.4995	sub-30	1	localizer	stimulus	Katze	NaN	0	2.6019449000006034	NaN	True	NaN	NaN	NaN	NaN	NaN	NaN	NaN
929.3386228999998	2.6019	sub-30	1	localizer	blank	interval	NaN	NaN	NaN	NaN	NaN	NaN	NaN	NaN	NaN	NaN	NaN	NaN
932.2417959000004	0.4997	sub-30	1	localizer	stimulus	Haus	NaN	0	2.7353848000001335	NaN	True	NaN	NaN	NaN	NaN	NaN	NaN	NaN
932.7247033000004	2.7354	sub-30	1	localizer	blank	interval	NaN	NaN	NaN	NaN	NaN	NaN	NaN	NaN	NaN	NaN	NaN	NaN
935.7612446000004	0.4995	sub-30	1	localizer	stimulus	Gesicht	NaN	0	2.1682916999999406	NaN	True	NaN	NaN	NaN	NaN	NaN	NaN	NaN
936.2442010000004	2.1683	sub-30	1	localizer	blank	interval	NaN	NaN	NaN	NaN	NaN	NaN	NaN	NaN	NaN	NaN	NaN	NaN
938.7136756999998	0.4994	sub-30	1	localizer	stimulus	Haus	NaN	0	2.735544600000253	NaN	True	NaN	NaN	NaN	NaN	NaN	NaN	NaN
939.1965706	2.7355	sub-30	1	localizer	blank	interval	NaN	NaN	NaN	NaN	NaN	NaN	NaN	NaN	NaN	NaN	NaN	NaN
942.2332329	0.4995	sub-30	1	localizer	stimulus	Schuh	NaN	0	2.968821100000241	NaN	True	NaN	NaN	NaN	NaN	NaN	NaN	NaN
942.7162059000002	2.9688	sub-30	1	localizer	blank	interval	NaN	NaN	NaN	NaN	NaN	NaN	NaN	NaN	NaN	NaN	NaN	NaN
945.9862019000002	0.4997	sub-30	1	localizer	stimulus	Schuh	NaN	180	1.984819100000209	0.5562307000000146	True	NaN	NaN	NaN	NaN	NaN	NaN	NaN
946.4691174999998	1.9848	sub-30	1	localizer	blank	interval	NaN	NaN	NaN	NaN	NaN	NaN	NaN	NaN	NaN	NaN	NaN	NaN
948.7551160000004	0.4995	sub-30	1	localizer	stimulus	Stuhl	NaN	0	2.268402800000217	NaN	True	NaN	NaN	NaN	NaN	NaN	NaN	NaN
949.2380836000002	2.2684	sub-30	1	localizer	blank	interval	NaN	NaN	NaN	NaN	NaN	NaN	NaN	NaN	NaN	NaN	NaN	NaN
951.8076007999998	0.4995	sub-30	1	localizer	stimulus	Haus	NaN	180	2.2016009999999824	0.5907422000000224	True	NaN	NaN	NaN	NaN	NaN	NaN	NaN
952.2906216	2.2016	sub-30	1	localizer	blank	interval	NaN	NaN	NaN	NaN	NaN	NaN	NaN	NaN	NaN	NaN	NaN	NaN
954.7933239000004	0.4995	sub-30	1	localizer	stimulus	Katze	NaN	0	3.1691380000002027	NaN	True	NaN	NaN	NaN	NaN	NaN	NaN	NaN
955.2762171000004	3.1691	sub-30	1	localizer	blank	interval	NaN	NaN	NaN	NaN	NaN	NaN	NaN	NaN	NaN	NaN	NaN	NaN
958.7465153000004	0.4994	sub-30	1	localizer	stimulus	Schuh	NaN	0	1.7846295999997892	NaN	True	NaN	NaN	NaN	NaN	NaN	NaN	NaN
959.2294442000002	1.7846	sub-30	1	localizer	blank	interval	NaN	NaN	NaN	NaN	NaN	NaN	NaN	NaN	NaN	NaN	NaN	NaN
961.3153591	0.4994	sub-30	1	localizer	stimulus	Haus	NaN	0	2.9023045999999795	NaN	True	NaN	NaN	NaN	NaN	NaN	NaN	NaN
961.7982429000004	2.9023	sub-30	1	localizer	blank	interval	NaN	NaN	NaN	NaN	NaN	NaN	NaN	NaN	NaN	NaN	NaN	NaN
965.0018085000002	0.4995	sub-30	1	localizer	stimulus	Haus	NaN	0	2.3350123000000167	NaN	True	NaN	NaN	NaN	NaN	NaN	NaN	NaN
965.4847822000002	2.335	sub-30	1	localizer	blank	interval	NaN	NaN	NaN	NaN	NaN	NaN	NaN	NaN	NaN	NaN	NaN	NaN
968.1208932999998	0.4998	sub-30	1	localizer	stimulus	Stuhl	NaN	0	2.7186314999997876	NaN	True	NaN	NaN	NaN	NaN	NaN	NaN	NaN
968.6038221	2.7186	sub-30	1	localizer	blank	interval	NaN	NaN	NaN	NaN	NaN	NaN	NaN	NaN	NaN	NaN	NaN	NaN
971.6236039000004	0.4994	sub-30	1	localizer	stimulus	Schuh	NaN	0	2.5852619000007735	NaN	True	NaN	NaN	NaN	NaN	NaN	NaN	NaN
972.1065473999996	2.5853	sub-30	1	localizer	blank	interval	NaN	NaN	NaN	NaN	NaN	NaN	NaN	NaN	NaN	NaN	NaN	NaN
978.1782799000002	1.0005	sub-30	1	sequence	cue	Gesicht	NaN	NaN	NaN	NaN	NaN	NaN	NaN	NaN	NaN	NaN	NaN	NaN
979.1788083	2.0016	sub-30	1	sequence	blank	blank	NaN	NaN	NaN	NaN	NaN	NaN	NaN	NaN	NaN	NaN	NaN	NaN
981.1804234	0.3002	sub-30	1	sequence	fixation	dot	NaN	NaN	NaN	NaN	NaN	NaN	NaN	NaN	NaN	NaN	NaN	NaN
981.4982039000006	0.0992	sub-30	1	sequence	stimulus	Stuhl	NaN	NaN	64.0	NaN	NaN	5.0	1.0	NaN	NaN	NaN	NaN	NaN
981.5973811000003	0.0669	sub-30	1	sequence	interval	dot	NaN	NaN	NaN	NaN	NaN	NaN	NaN	NaN	NaN	NaN	NaN	NaN
981.6642628999998	0.0999	sub-30	1	sequence	stimulus	Gesicht	NaN	NaN	64.0	NaN	NaN	1.0	2.0	NaN	NaN	NaN	NaN	NaN
981.7641977000004	0.0668	sub-30	1	sequence	interval	dot	NaN	NaN	NaN	NaN	NaN	NaN	NaN	NaN	NaN	NaN	NaN	NaN
981.8310314	0.1	sub-30	1	sequence	stimulus	Katze	NaN	NaN	64.0	NaN	NaN	3.0	3.0	NaN	NaN	NaN	NaN	NaN
981.9309817000004	0.0669	sub-30	1	sequence	interval	dot	NaN	NaN	NaN	NaN	NaN	NaN	NaN	NaN	NaN	NaN	NaN	NaN
981.9978406	0.0999	sub-30	1	sequence	stimulus	Schuh	NaN	NaN	64.0	NaN	NaN	4.0	4.0	NaN	NaN	NaN	NaN	NaN
982.0977696	0.0669	sub-30	1	sequence	interval	dot	NaN	NaN	NaN	NaN	NaN	NaN	NaN	NaN	NaN	NaN	NaN	NaN
982.1646560999998	0.0999	sub-30	1	sequence	stimulus	Haus	NaN	NaN	64.0	NaN	NaN	2.0	5.0	NaN	NaN	NaN	NaN	NaN
982.2645754000004	0.0667	sub-30	1	sequence	interval	dot	NaN	NaN	NaN	NaN	NaN	NaN	NaN	NaN	NaN	NaN	NaN	NaN
982.3312848000004	8.3719	sub-30	1	sequence	delay	dot	NaN	NaN	NaN	NaN	NaN	NaN	NaN	NaN	NaN	NaN	NaN	NaN
990.6892792999996	0.7997	sub-30	1	sequence	choice	choice	right	NaN	NaN	0.7831249000000753	True	NaN	NaN	right	True	3.0	2.0	2.0
991.4893713	0.4998	sub-30	1	sequence	feedback	NaN	NaN	NaN	NaN	NaN	NaN	NaN	NaN	NaN	NaN	NaN	NaN	NaN
991.9893108000006	1.0007	sub-30	1	sequence	cue	Katze	NaN	NaN	NaN	NaN	NaN	NaN	NaN	NaN	NaN	NaN	NaN	NaN
992.9899966000004	2.0016	sub-30	1	sequence	blank	blank	NaN	NaN	NaN	NaN	NaN	NaN	NaN	NaN	NaN	NaN	NaN	NaN
994.9915752000006	0.3002	sub-30	1	sequence	fixation	dot	NaN	NaN	NaN	NaN	NaN	NaN	NaN	NaN	NaN	NaN	NaN	NaN
995.3095586999998	0.099	sub-30	1	sequence	stimulus	Stuhl	NaN	NaN	128.0	NaN	NaN	5.0	1.0	NaN	NaN	NaN	NaN	NaN
995.4085520999996	0.1337	sub-30	1	sequence	interval	dot	NaN	NaN	NaN	NaN	NaN	NaN	NaN	NaN	NaN	NaN	NaN	NaN
995.5422204000006	0.0999	sub-30	1	sequence	stimulus	Schuh	NaN	NaN	128.0	NaN	NaN	4.0	2.0	NaN	NaN	NaN	NaN	NaN
995.6421167	0.1335	sub-30	1	sequence	interval	dot	NaN	NaN	NaN	NaN	NaN	NaN	NaN	NaN	NaN	NaN	NaN	NaN
995.7756364000006	0.1	sub-30	1	sequence	stimulus	Katze	NaN	NaN	128.0	NaN	NaN	3.0	3.0	NaN	NaN	NaN	NaN	NaN
995.8755953	0.1336	sub-30	1	sequence	interval	dot	NaN	NaN	NaN	NaN	NaN	NaN	NaN	NaN	NaN	NaN	NaN	NaN
996.0092107	0.0999	sub-30	1	sequence	stimulus	Gesicht	NaN	NaN	128.0	NaN	NaN	1.0	4.0	NaN	NaN	NaN	NaN	NaN
996.1091350000006	0.1336	sub-30	1	sequence	interval	dot	NaN	NaN	NaN	NaN	NaN	NaN	NaN	NaN	NaN	NaN	NaN	NaN
996.2427159999996	0.0999	sub-30	1	sequence	stimulus	Haus	NaN	NaN	128.0	NaN	NaN	2.0	5.0	NaN	NaN	NaN	NaN	NaN
996.3426420000004	0.1335	sub-30	1	sequence	interval	dot	NaN	NaN	NaN	NaN	NaN	NaN	NaN	NaN	NaN	NaN	NaN	NaN
996.4761077000004	8.0715	sub-30	1	sequence	delay	dot	NaN	NaN	NaN	NaN	NaN	NaN	NaN	NaN	NaN	NaN	NaN	NaN
1004.5211068999996	0.7459	sub-30	1	sequence	choice	choice	right	NaN	NaN	0.7148100999993403	True	NaN	NaN	right	True	1.0	3.0	3.0
1005.2672294000004	0.5	sub-30	1	sequence	feedback	NaN	NaN	NaN	NaN	NaN	NaN	NaN	NaN	NaN	NaN	NaN	NaN	NaN
1005.7674038000004	1.0006	sub-30	1	sequence	cue	Katze	NaN	NaN	NaN	NaN	NaN	NaN	NaN	NaN	NaN	NaN	NaN	NaN
1006.7680068	2.0014	sub-30	1	sequence	blank	blank	NaN	NaN	NaN	NaN	NaN	NaN	NaN	NaN	NaN	NaN	NaN	NaN
1008.7693870000004	0.3003	sub-30	1	sequence	fixation	dot	NaN	NaN	NaN	NaN	NaN	NaN	NaN	NaN	NaN	NaN	NaN	NaN
1009.0880316000002	0.115	sub-30	1	sequence	stimulus	Gesicht	NaN	NaN	512.0	NaN	NaN	1.0	1.0	NaN	NaN	NaN	NaN	NaN
1009.2030205	0.5173	sub-30	1	sequence	interval	dot	NaN	NaN	NaN	NaN	NaN	NaN	NaN	NaN	NaN	NaN	NaN	NaN
1009.720335	0.0998	sub-30	1	sequence	stimulus	Schuh	NaN	NaN	512.0	NaN	NaN	4.0	2.0	NaN	NaN	NaN	NaN	NaN
1009.8201772000002	0.5173	sub-30	1	sequence	interval	dot	NaN	NaN	NaN	NaN	NaN	NaN	NaN	NaN	NaN	NaN	NaN	NaN
1010.3374414	0.0999	sub-30	1	sequence	stimulus	Haus	NaN	NaN	512.0	NaN	NaN	2.0	3.0	NaN	NaN	NaN	NaN	NaN
1010.4373379999996	0.5173	sub-30	1	sequence	interval	dot	NaN	NaN	NaN	NaN	NaN	NaN	NaN	NaN	NaN	NaN	NaN	NaN
1010.9545893000004	0.1	sub-30	1	sequence	stimulus	Stuhl	NaN	NaN	512.0	NaN	NaN	5.0	4.0	NaN	NaN	NaN	NaN	NaN
1011.0545485000002	0.5172	sub-30	1	sequence	interval	dot	NaN	NaN	NaN	NaN	NaN	NaN	NaN	NaN	NaN	NaN	NaN	NaN
1011.5717513999998	0.0999	sub-30	1	sequence	stimulus	Katze	NaN	NaN	512.0	NaN	NaN	3.0	5.0	NaN	NaN	NaN	NaN	NaN
1011.6716631999998	0.5171	sub-30	1	sequence	interval	dot	NaN	NaN	NaN	NaN	NaN	NaN	NaN	NaN	NaN	NaN	NaN	NaN
1012.1887901	6.1534	sub-30	1	sequence	delay	dot	NaN	NaN	NaN	NaN	NaN	NaN	NaN	NaN	NaN	NaN	NaN	NaN
1018.3266445999998	0.8348	sub-30	1	sequence	choice	choice	left	NaN	NaN	0.8082757000001948	True	NaN	NaN	left	True	5.0	4.0	5.0
1019.1616783999998	0.5	sub-30	1	sequence	feedback	NaN	NaN	NaN	NaN	NaN	NaN	NaN	NaN	NaN	NaN	NaN	NaN	NaN
1019.6619376	1.0005	sub-30	1	sequence	cue	Gesicht	NaN	NaN	NaN	NaN	NaN	NaN	NaN	NaN	NaN	NaN	NaN	NaN
1020.6624584	2.0015	sub-30	1	sequence	blank	blank	NaN	NaN	NaN	NaN	NaN	NaN	NaN	NaN	NaN	NaN	NaN	NaN
1022.6639378	0.3003	sub-30	1	sequence	fixation	dot	NaN	NaN	NaN	NaN	NaN	NaN	NaN	NaN	NaN	NaN	NaN	NaN
1022.9817898	0.0992	sub-30	1	sequence	stimulus	Haus	NaN	NaN	64.0	NaN	NaN	2.0	1.0	NaN	NaN	NaN	NaN	NaN
1023.0809980000004	0.0667	sub-30	1	sequence	interval	dot	NaN	NaN	NaN	NaN	NaN	NaN	NaN	NaN	NaN	NaN	NaN	NaN
1023.1477333000004	0.1	sub-30	1	sequence	stimulus	Katze	NaN	NaN	64.0	NaN	NaN	3.0	2.0	NaN	NaN	NaN	NaN	NaN
1023.2477568000004	0.0669	sub-30	1	sequence	interval	dot	NaN	NaN	NaN	NaN	NaN	NaN	NaN	NaN	NaN	NaN	NaN	NaN
1023.3146404	0.0999	sub-30	1	sequence	stimulus	Schuh	NaN	NaN	64.0	NaN	NaN	4.0	3.0	NaN	NaN	NaN	NaN	NaN
1023.4145482000004	0.0669	sub-30	1	sequence	interval	dot	NaN	NaN	NaN	NaN	NaN	NaN	NaN	NaN	NaN	NaN	NaN	NaN
1023.4814189999996	0.0999	sub-30	1	sequence	stimulus	Gesicht	NaN	NaN	64.0	NaN	NaN	1.0	4.0	NaN	NaN	NaN	NaN	NaN
1023.5812974	0.0669	sub-30	1	sequence	interval	dot	NaN	NaN	NaN	NaN	NaN	NaN	NaN	NaN	NaN	NaN	NaN	NaN
1023.6481534000004	0.1	sub-30	1	sequence	stimulus	Stuhl	NaN	NaN	64.0	NaN	NaN	5.0	5.0	NaN	NaN	NaN	NaN	NaN
1023.7481595	0.0668	sub-30	1	sequence	interval	dot	NaN	NaN	NaN	NaN	NaN	NaN	NaN	NaN	NaN	NaN	NaN	NaN
1023.8149254	8.3884	sub-30	1	sequence	delay	dot	NaN	NaN	NaN	NaN	NaN	NaN	NaN	NaN	NaN	NaN	NaN	NaN
1032.1843752000004	0.955	sub-30	1	sequence	choice	choice	left	NaN	NaN	0.9311368999997284	True	NaN	NaN	left	True	4.0	5.0	4.0
1033.1396392000006	0.5	sub-30	1	sequence	feedback	NaN	NaN	NaN	NaN	NaN	NaN	NaN	NaN	NaN	NaN	NaN	NaN	NaN
1033.6398940999998	1.0004	sub-30	1	sequence	cue	Gesicht	NaN	NaN	NaN	NaN	NaN	NaN	NaN	NaN	NaN	NaN	NaN	NaN
1034.6403175000005	2.0016	sub-30	1	sequence	blank	blank	NaN	NaN	NaN	NaN	NaN	NaN	NaN	NaN	NaN	NaN	NaN	NaN
1036.6419106000003	0.3002	sub-30	1	sequence	fixation	dot	NaN	NaN	NaN	NaN	NaN	NaN	NaN	NaN	NaN	NaN	NaN	NaN
1036.9597426	0.0991	sub-30	1	sequence	stimulus	Schuh	NaN	NaN	512.0	NaN	NaN	4.0	1.0	NaN	NaN	NaN	NaN	NaN
1037.0588668	0.5174	sub-30	1	sequence	interval	dot	NaN	NaN	NaN	NaN	NaN	NaN	NaN	NaN	NaN	NaN	NaN	NaN
1037.5762233000005	0.0998	sub-30	1	sequence	stimulus	Katze	NaN	NaN	512.0	NaN	NaN	3.0	2.0	NaN	NaN	NaN	NaN	NaN
1037.6760642	0.5172	sub-30	1	sequence	interval	dot	NaN	NaN	NaN	NaN	NaN	NaN	NaN	NaN	NaN	NaN	NaN	NaN
1038.1932695000005	0.0999	sub-30	1	sequence	stimulus	Haus	NaN	NaN	512.0	NaN	NaN	2.0	3.0	NaN	NaN	NaN	NaN	NaN
1038.2931983	0.5173	sub-30	1	sequence	interval	dot	NaN	NaN	NaN	NaN	NaN	NaN	NaN	NaN	NaN	NaN	NaN	NaN
1038.8104488	0.0999	sub-30	1	sequence	stimulus	Stuhl	NaN	NaN	512.0	NaN	NaN	5.0	4.0	NaN	NaN	NaN	NaN	NaN
1038.9103831000002	0.5172	sub-30	1	sequence	interval	dot	NaN	NaN	NaN	NaN	NaN	NaN	NaN	NaN	NaN	NaN	NaN	NaN
1039.4276071000004	0.0999	sub-30	1	sequence	stimulus	Gesicht	NaN	NaN	512.0	NaN	NaN	1.0	5.0	NaN	NaN	NaN	NaN	NaN
1039.5275253	0.5171	sub-30	1	sequence	interval	dot	NaN	NaN	NaN	NaN	NaN	NaN	NaN	NaN	NaN	NaN	NaN	NaN
1040.0446364	6.1533	sub-30	1	sequence	delay	dot	NaN	NaN	NaN	NaN	NaN	NaN	NaN	NaN	NaN	NaN	NaN	NaN
1046.1719583000004	0.8454	sub-30	1	sequence	choice	choice	left	NaN	NaN	0.8164426000003004	True	NaN	NaN	left	True	5.0	3.0	5.0
1047.0175965	0.5	sub-30	1	sequence	feedback	NaN	NaN	NaN	NaN	NaN	NaN	NaN	NaN	NaN	NaN	NaN	NaN	NaN
1047.5177728999995	1.0005	sub-30	1	sequence	cue	Schuh	NaN	NaN	NaN	NaN	NaN	NaN	NaN	NaN	NaN	NaN	NaN	NaN
1048.5183284000004	2.0016	sub-30	1	sequence	blank	blank	NaN	NaN	NaN	NaN	NaN	NaN	NaN	NaN	NaN	NaN	NaN	NaN
1050.5199326000002	0.3001	sub-30	1	sequence	fixation	dot	NaN	NaN	NaN	NaN	NaN	NaN	NaN	NaN	NaN	NaN	NaN	NaN
1050.8383693000003	0.1151	sub-30	1	sequence	stimulus	Katze	NaN	NaN	128.0	NaN	NaN	3.0	1.0	NaN	NaN	NaN	NaN	NaN
1050.9534615000002	0.1335	sub-30	1	sequence	interval	dot	NaN	NaN	NaN	NaN	NaN	NaN	NaN	NaN	NaN	NaN	NaN	NaN
1051.0870034	0.1	sub-30	1	sequence	stimulus	Gesicht	NaN	NaN	128.0	NaN	NaN	1.0	2.0	NaN	NaN	NaN	NaN	NaN
1051.1869633000006	0.1336	sub-30	1	sequence	interval	dot	NaN	NaN	NaN	NaN	NaN	NaN	NaN	NaN	NaN	NaN	NaN	NaN
1051.3205906000003	0.0999	sub-30	1	sequence	stimulus	Haus	NaN	NaN	128.0	NaN	NaN	2.0	3.0	NaN	NaN	NaN	NaN	NaN
1051.4205034000006	0.1335	sub-30	1	sequence	interval	dot	NaN	NaN	NaN	NaN	NaN	NaN	NaN	NaN	NaN	NaN	NaN	NaN
1051.5540400999998	0.1	sub-30	1	sequence	stimulus	Stuhl	NaN	NaN	128.0	NaN	NaN	5.0	4.0	NaN	NaN	NaN	NaN	NaN
1051.6540132	0.1336	sub-30	1	sequence	interval	dot	NaN	NaN	NaN	NaN	NaN	NaN	NaN	NaN	NaN	NaN	NaN	NaN
1051.7875749000004	0.1	sub-30	1	sequence	stimulus	Schuh	NaN	NaN	128.0	NaN	NaN	4.0	5.0	NaN	NaN	NaN	NaN	NaN
1051.8875554000006	0.1334	sub-30	1	sequence	interval	dot	NaN	NaN	NaN	NaN	NaN	NaN	NaN	NaN	NaN	NaN	NaN	NaN
1052.0209872000005	8.0548	sub-30	1	sequence	delay	dot	NaN	NaN	NaN	NaN	NaN	NaN	NaN	NaN	NaN	NaN	NaN	NaN
1060.0558093999998	0.7226	sub-30	1	sequence	choice	choice	left	NaN	NaN	0.6905318999997689	True	NaN	NaN	left	True	5.0	2.0	5.0
1060.7786316000002	0.4998	sub-30	1	sequence	feedback	NaN	NaN	NaN	NaN	NaN	NaN	NaN	NaN	NaN	NaN	NaN	NaN	NaN
1061.2786052	1.0007	sub-30	1	sequence	cue	Schuh	NaN	NaN	NaN	NaN	NaN	NaN	NaN	NaN	NaN	NaN	NaN	NaN
1062.2793262000005	2.0016	sub-30	1	sequence	blank	blank	NaN	NaN	NaN	NaN	NaN	NaN	NaN	NaN	NaN	NaN	NaN	NaN
1064.2808903000005	0.3003	sub-30	1	sequence	fixation	dot	NaN	NaN	NaN	NaN	NaN	NaN	NaN	NaN	NaN	NaN	NaN	NaN
1064.5988091	0.0991	sub-30	1	sequence	stimulus	Haus	NaN	NaN	32.0	NaN	NaN	2.0	1.0	NaN	NaN	NaN	NaN	NaN
1064.6978731999998	0.0335	sub-30	1	sequence	interval	dot	NaN	NaN	NaN	NaN	NaN	NaN	NaN	NaN	NaN	NaN	NaN	NaN
1064.7313334	0.1	sub-30	1	sequence	stimulus	Schuh	NaN	NaN	32.0	NaN	NaN	4.0	2.0	NaN	NaN	NaN	NaN	NaN
1064.8312985000002	0.0335	sub-30	1	sequence	interval	dot	NaN	NaN	NaN	NaN	NaN	NaN	NaN	NaN	NaN	NaN	NaN	NaN
1064.8648010000006	0.1	sub-30	1	sequence	stimulus	Stuhl	NaN	NaN	32.0	NaN	NaN	5.0	3.0	NaN	NaN	NaN	NaN	NaN
1064.9647628000002	0.0335	sub-30	1	sequence	interval	dot	NaN	NaN	NaN	NaN	NaN	NaN	NaN	NaN	NaN	NaN	NaN	NaN
1064.9982552	0.0999	sub-30	1	sequence	stimulus	Gesicht	NaN	NaN	32.0	NaN	NaN	1.0	4.0	NaN	NaN	NaN	NaN	NaN
1065.0982002	0.0335	sub-30	1	sequence	interval	dot	NaN	NaN	NaN	NaN	NaN	NaN	NaN	NaN	NaN	NaN	NaN	NaN
1065.1316661	0.1	sub-30	1	sequence	stimulus	Katze	NaN	NaN	32.0	NaN	NaN	3.0	5.0	NaN	NaN	NaN	NaN	NaN
1065.2316511	0.0334	sub-30	1	sequence	interval	dot	NaN	NaN	NaN	NaN	NaN	NaN	NaN	NaN	NaN	NaN	NaN	NaN
1065.2650046	8.5385	sub-30	1	sequence	delay	dot	NaN	NaN	NaN	NaN	NaN	NaN	NaN	NaN	NaN	NaN	NaN	NaN
1073.7833062	1.4566	sub-30	1	sequence	choice	choice	right	NaN	NaN	1.4347287999999023	True	NaN	NaN	right	True	3.0	2.0	2.0
1075.2401885	0.5001	sub-30	1	sequence	feedback	NaN	NaN	NaN	NaN	NaN	NaN	NaN	NaN	NaN	NaN	NaN	NaN	NaN
1075.7405230000004	1.0004	sub-30	1	sequence	cue	Stuhl	NaN	NaN	NaN	NaN	NaN	NaN	NaN	NaN	NaN	NaN	NaN	NaN
1076.7409712999995	2.0017	sub-30	1	sequence	blank	blank	NaN	NaN	NaN	NaN	NaN	NaN	NaN	NaN	NaN	NaN	NaN	NaN
1078.7426962	0.3001	sub-30	1	sequence	fixation	dot	NaN	NaN	NaN	NaN	NaN	NaN	NaN	NaN	NaN	NaN	NaN	NaN
1079.0613858000006	0.115	sub-30	1	sequence	stimulus	Katze	NaN	NaN	32.0	NaN	NaN	3.0	1.0	NaN	NaN	NaN	NaN	NaN
1079.1763798000002	0.0335	sub-30	1	sequence	interval	dot	NaN	NaN	NaN	NaN	NaN	NaN	NaN	NaN	NaN	NaN	NaN	NaN
1079.2098504000005	0.0999	sub-30	1	sequence	stimulus	Gesicht	NaN	NaN	32.0	NaN	NaN	1.0	2.0	NaN	NaN	NaN	NaN	NaN
1079.3097311	0.0336	sub-30	1	sequence	interval	dot	NaN	NaN	NaN	NaN	NaN	NaN	NaN	NaN	NaN	NaN	NaN	NaN
1079.3433415	0.0998	sub-30	1	sequence	stimulus	Schuh	NaN	NaN	32.0	NaN	NaN	4.0	3.0	NaN	NaN	NaN	NaN	NaN
1079.4431801	0.0336	sub-30	1	sequence	interval	dot	NaN	NaN	NaN	NaN	NaN	NaN	NaN	NaN	NaN	NaN	NaN	NaN
1079.4767687000003	0.0999	sub-30	1	sequence	stimulus	Stuhl	NaN	NaN	32.0	NaN	NaN	5.0	4.0	NaN	NaN	NaN	NaN	NaN
1079.5766267999998	0.0336	sub-30	1	sequence	interval	dot	NaN	NaN	NaN	NaN	NaN	NaN	NaN	NaN	NaN	NaN	NaN	NaN
1079.6102166	0.0998	sub-30	1	sequence	stimulus	Haus	NaN	NaN	32.0	NaN	NaN	2.0	5.0	NaN	NaN	NaN	NaN	NaN
1079.7100073	0.0334	sub-30	1	sequence	interval	dot	NaN	NaN	NaN	NaN	NaN	NaN	NaN	NaN	NaN	NaN	NaN	NaN
1079.7434416000006	8.5385	sub-30	1	sequence	delay	dot	NaN	NaN	NaN	NaN	NaN	NaN	NaN	NaN	NaN	NaN	NaN	NaN
1088.2650066000006	1.2033	sub-30	1	sequence	choice	choice	right	NaN	NaN	1.1802840999998807	True	NaN	NaN	right	True	5.0	4.0	4.0
1089.4685496000002	0.5	sub-30	1	sequence	feedback	NaN	NaN	NaN	NaN	NaN	NaN	NaN	NaN	NaN	NaN	NaN	NaN	NaN
1093.7889919	0.4995	sub-30	1	localizer	stimulus	Schuh	NaN	180	2.702078000000256	0.7531709999993836	True	NaN	NaN	NaN	NaN	NaN	NaN	NaN
1094.2718990000003	2.7021	sub-30	1	localizer	blank	interval	NaN	NaN	NaN	NaN	NaN	NaN	NaN	NaN	NaN	NaN	NaN	NaN
1097.2751552999998	0.4995	sub-30	1	localizer	stimulus	Gesicht	NaN	0	2.735405899999705	NaN	True	NaN	NaN	NaN	NaN	NaN	NaN	NaN
1097.7580534	2.7354	sub-30	1	localizer	blank	interval	NaN	NaN	NaN	NaN	NaN	NaN	NaN	NaN	NaN	NaN	NaN	NaN
1100.794616	0.4995	sub-30	1	localizer	stimulus	Stuhl	NaN	0	2.802127100000689	NaN	True	NaN	NaN	NaN	NaN	NaN	NaN	NaN
1101.277588	2.8021	sub-30	1	localizer	blank	interval	NaN	NaN	NaN	NaN	NaN	NaN	NaN	NaN	NaN	NaN	NaN	NaN
1104.3808985000005	0.4994	sub-30	1	localizer	stimulus	Katze	NaN	0	2.4518158000000767	NaN	True	NaN	NaN	NaN	NaN	NaN	NaN	NaN
1104.8638085000002	2.4518	sub-30	1	localizer	blank	interval	NaN	NaN	NaN	NaN	NaN	NaN	NaN	NaN	NaN	NaN	NaN	NaN
1107.6168708000005	0.4995	sub-30	1	localizer	stimulus	Gesicht	NaN	0	3.152422199999819	NaN	True	NaN	NaN	NaN	NaN	NaN	NaN	NaN
1108.0999044	3.1524	sub-30	1	localizer	blank	interval	NaN	NaN	NaN	NaN	NaN	NaN	NaN	NaN	NaN	NaN	NaN	NaN
1111.5534718	0.4996	sub-30	1	localizer	stimulus	Katze	NaN	180	2.6185011999996277	0.596820800000387	True	NaN	NaN	NaN	NaN	NaN	NaN	NaN
1112.0364661000003	2.6185	sub-30	1	localizer	blank	interval	NaN	NaN	NaN	NaN	NaN	NaN	NaN	NaN	NaN	NaN	NaN	NaN
1114.9560984	0.4994	sub-30	1	localizer	stimulus	Stuhl	NaN	0	3.0856661000004806	NaN	True	NaN	NaN	NaN	NaN	NaN	NaN	NaN
1115.4390138	3.0857	sub-30	1	localizer	blank	interval	NaN	NaN	NaN	NaN	NaN	NaN	NaN	NaN	NaN	NaN	NaN	NaN
1118.8258598000002	0.4996	sub-30	1	localizer	stimulus	Stuhl	NaN	180	2.2351223999994545	0.5163656000004266	True	NaN	NaN	NaN	NaN	NaN	NaN	NaN
1119.3087964000006	2.2351	sub-30	1	localizer	blank	interval	NaN	NaN	NaN	NaN	NaN	NaN	NaN	NaN	NaN	NaN	NaN	NaN
1121.8450297999998	0.4994	sub-30	1	localizer	stimulus	Haus	NaN	0	2.218269699999837	NaN	True	NaN	NaN	NaN	NaN	NaN	NaN	NaN
1122.3279632000003	2.2183	sub-30	1	localizer	blank	interval	NaN	NaN	NaN	NaN	NaN	NaN	NaN	NaN	NaN	NaN	NaN	NaN
1124.8474256999998	0.4994	sub-30	1	localizer	stimulus	Gesicht	NaN	0	3.1024009000004753	NaN	True	NaN	NaN	NaN	NaN	NaN	NaN	NaN
1125.3303415	3.1024	sub-30	1	localizer	blank	interval	NaN	NaN	NaN	NaN	NaN	NaN	NaN	NaN	NaN	NaN	NaN	NaN
1128.7339444999998	0.4994	sub-30	1	localizer	stimulus	Gesicht	NaN	0	2.5353432000001703	NaN	True	NaN	NaN	NaN	NaN	NaN	NaN	NaN
1129.2168195000004	2.5353	sub-30	1	localizer	blank	interval	NaN	NaN	NaN	NaN	NaN	NaN	NaN	NaN	NaN	NaN	NaN	NaN
1132.0708782000002	0.5153	sub-30	1	localizer	stimulus	Schuh	NaN	0	2.3349313999995047	NaN	True	NaN	NaN	NaN	NaN	NaN	NaN	NaN
1132.5363496	2.3349	sub-30	1	localizer	blank	interval	NaN	NaN	NaN	NaN	NaN	NaN	NaN	NaN	NaN	NaN	NaN	NaN
1135.1724485000004	0.4994	sub-30	1	localizer	stimulus	Stuhl	NaN	0	1.9180563999998412	NaN	True	NaN	NaN	NaN	NaN	NaN	NaN	NaN
1135.6553694000004	1.9181	sub-30	1	localizer	blank	interval	NaN	NaN	NaN	NaN	NaN	NaN	NaN	NaN	NaN	NaN	NaN	NaN
1137.8746145000005	0.4994	sub-30	1	localizer	stimulus	Schuh	NaN	0	2.1182225000000017	NaN	True	NaN	NaN	NaN	NaN	NaN	NaN	NaN
1138.3575327	2.1182	sub-30	1	localizer	blank	interval	NaN	NaN	NaN	NaN	NaN	NaN	NaN	NaN	NaN	NaN	NaN	NaN
1140.7769419000006	0.4995	sub-30	1	localizer	stimulus	Katze	NaN	0	2.685403100000258	NaN	True	NaN	NaN	NaN	NaN	NaN	NaN	NaN
1141.2598472999998	2.6854	sub-30	1	localizer	blank	interval	NaN	NaN	NaN	NaN	NaN	NaN	NaN	NaN	NaN	NaN	NaN	NaN
