onset	duration	subject	session	condition	trial_type	stim_label	key_down	orientation	interval_time	response_time	accuracy	stim_index	serial_position	key_expected	key_pressed	choice_left	choice_right	choice_correct
1.324731700000484	1.0136	sub-24	1	instruction	instruction	language_selection	german	NaN	NaN	NaN	NaN	NaN	NaN	NaN	NaN	NaN	NaN	NaN
27.00888020000002	0.4995	sub-24	1	localizer	stimulus	Katze	NaN	0	1.8680425000002288	NaN	1.0	NaN	NaN	NaN	NaN	NaN	NaN	NaN
27.491847600000256	1.868	sub-24	1	localizer	blank	interval	NaN	NaN	NaN	NaN	NaN	NaN	NaN	NaN	NaN	NaN	NaN	NaN
29.66095120000045	0.4996	sub-24	1	localizer	stimulus	Katze	NaN	180	1.7180216999995501	0.726403599999685	True	NaN	NaN	NaN	NaN	NaN	NaN	NaN
30.144009700000424	1.718	sub-24	1	localizer	blank	interval	NaN	NaN	NaN	NaN	NaN	NaN	NaN	NaN	NaN	NaN	NaN	NaN
32.16303940000034	0.4995	sub-24	1	localizer	stimulus	Schuh	NaN	0	2.0849201000000903	NaN	True	NaN	NaN	NaN	NaN	NaN	NaN	NaN
32.646103800000674	2.0849	sub-24	1	localizer	blank	interval	NaN	NaN	NaN	NaN	NaN	NaN	NaN	NaN	NaN	NaN	NaN	NaN
35.03294020000067	0.5154	sub-24	1	localizer	stimulus	Schuh	NaN	0	2.6518779999996696	NaN	True	NaN	NaN	NaN	NaN	NaN	NaN	NaN
35.515136100000746	2.6519	sub-24	1	localizer	blank	interval	NaN	NaN	NaN	NaN	NaN	NaN	NaN	NaN	NaN	NaN	NaN	NaN
38.46810240000013	0.4996	sub-24	1	localizer	stimulus	Stuhl	NaN	0	3.0690045999999853	NaN	True	NaN	NaN	NaN	NaN	NaN	NaN	NaN
38.9511422000005	3.069	sub-24	1	localizer	blank	interval	NaN	NaN	NaN	NaN	NaN	NaN	NaN	NaN	NaN	NaN	NaN	NaN
42.3212108000007	0.4996	sub-24	1	localizer	stimulus	Katze	NaN	0	3.219208399999843	NaN	True	NaN	NaN	NaN	NaN	NaN	NaN	NaN
42.80425110000033	3.2192	sub-24	1	localizer	blank	interval	NaN	NaN	NaN	NaN	NaN	NaN	NaN	NaN	NaN	NaN	NaN	NaN
46.32448040000054	0.4996	sub-24	1	localizer	stimulus	Gesicht	NaN	180	1.8514042999995581	0.6390820999995412	True	NaN	NaN	NaN	NaN	NaN	NaN	NaN
46.80749960000048	1.8514	sub-24	1	localizer	blank	interval	NaN	NaN	NaN	NaN	NaN	NaN	NaN	NaN	NaN	NaN	NaN	NaN
48.95994780000001	0.4997	sub-24	1	localizer	stimulus	Gesicht	NaN	0	1.7179493000003276	NaN	True	NaN	NaN	NaN	NaN	NaN	NaN	NaN
49.44301170000017	1.7179	sub-24	1	localizer	blank	interval	NaN	NaN	NaN	NaN	NaN	NaN	NaN	NaN	NaN	NaN	NaN	NaN
51.462048100000175	0.4995	sub-24	1	localizer	stimulus	Haus	NaN	0	2.8355313000001843	NaN	True	NaN	NaN	NaN	NaN	NaN	NaN	NaN
51.94507470000008	2.8355	sub-24	1	localizer	blank	interval	NaN	NaN	NaN	NaN	NaN	NaN	NaN	NaN	NaN	NaN	NaN	NaN
55.08158100000037	0.4996	sub-24	1	localizer	stimulus	Katze	NaN	0	3.3192385000002105	NaN	True	NaN	NaN	NaN	NaN	NaN	NaN	NaN
55.56465780000053	3.3192	sub-24	1	localizer	blank	interval	NaN	NaN	NaN	NaN	NaN	NaN	NaN	NaN	NaN	NaN	NaN	NaN
59.18487180000011	0.4997	sub-24	1	localizer	stimulus	Haus	NaN	0	2.535191699999814	NaN	True	NaN	NaN	NaN	NaN	NaN	NaN	NaN
59.66800740000053	2.5352	sub-24	1	localizer	blank	interval	NaN	NaN	NaN	NaN	NaN	NaN	NaN	NaN	NaN	NaN	NaN	NaN
62.50422280000021	0.4996	sub-24	1	localizer	stimulus	Stuhl	NaN	0	3.703040900000815	NaN	True	NaN	NaN	NaN	NaN	NaN	NaN	NaN
62.98719110000002	3.703	sub-24	1	localizer	blank	interval	NaN	NaN	NaN	NaN	NaN	NaN	NaN	NaN	NaN	NaN	NaN	NaN
66.99118310000085	0.4996	sub-24	1	localizer	stimulus	Gesicht	NaN	0	2.184982700000546	NaN	True	NaN	NaN	NaN	NaN	NaN	NaN	NaN
67.47417190000033	2.185	sub-24	1	localizer	blank	interval	NaN	NaN	NaN	NaN	NaN	NaN	NaN	NaN	NaN	NaN	NaN	NaN
69.96024690000013	0.4996	sub-24	1	localizer	stimulus	Katze	NaN	0	2.4018177999996624	NaN	True	NaN	NaN	NaN	NaN	NaN	NaN	NaN
70.44325850000041	2.4018	sub-24	1	localizer	blank	interval	NaN	NaN	NaN	NaN	NaN	NaN	NaN	NaN	NaN	NaN	NaN	NaN
73.14613100000042	0.4996	sub-24	1	localizer	stimulus	Stuhl	NaN	180	3.3026631000002453	0.5612929999997505	True	NaN	NaN	NaN	NaN	NaN	NaN	NaN
73.62916500000028	3.3027	sub-24	1	localizer	blank	interval	NaN	NaN	NaN	NaN	NaN	NaN	NaN	NaN	NaN	NaN	NaN	NaN
77.2329019000008	0.4996	sub-24	1	localizer	stimulus	Stuhl	NaN	0	2.6852912000003926	NaN	True	NaN	NaN	NaN	NaN	NaN	NaN	NaN
77.71595630000047	2.6853	sub-24	1	localizer	blank	interval	NaN	NaN	NaN	NaN	NaN	NaN	NaN	NaN	NaN	NaN	NaN	NaN
80.70225550000032	0.4995	sub-24	1	localizer	stimulus	Haus	NaN	0	2.718827499999861	NaN	True	NaN	NaN	NaN	NaN	NaN	NaN	NaN
81.18528320000041	2.7188	sub-24	1	localizer	blank	interval	NaN	NaN	NaN	NaN	NaN	NaN	NaN	NaN	NaN	NaN	NaN	NaN
84.20512810000037	0.4995	sub-24	1	localizer	stimulus	Gesicht	NaN	0	3.6695049999998446	NaN	True	NaN	NaN	NaN	NaN	NaN	NaN	NaN
84.68821450000087	3.6695	sub-24	1	localizer	blank	interval	NaN	NaN	NaN	NaN	NaN	NaN	NaN	NaN	NaN	NaN	NaN	NaN
88.65876360000038	0.4995	sub-24	1	localizer	stimulus	Stuhl	NaN	0	2.2849880000003253	NaN	True	NaN	NaN	NaN	NaN	NaN	NaN	NaN
89.1418061000004	2.285	sub-24	1	localizer	blank	interval	NaN	NaN	NaN	NaN	NaN	NaN	NaN	NaN	NaN	NaN	NaN	NaN
91.72785900000054	0.4997	sub-24	1	localizer	stimulus	Schuh	NaN	0	3.052480299999843	NaN	True	NaN	NaN	NaN	NaN	NaN	NaN	NaN
92.21083010000076	3.0525	sub-24	1	localizer	blank	interval	NaN	NaN	NaN	NaN	NaN	NaN	NaN	NaN	NaN	NaN	NaN	NaN
95.56444250000004	0.4996	sub-24	1	localizer	stimulus	Haus	NaN	180	1.9347521999998207	0.6150035999999091	True	NaN	NaN	NaN	NaN	NaN	NaN	NaN
96.04745540000022	1.9348	sub-24	1	localizer	blank	interval	NaN	NaN	NaN	NaN	NaN	NaN	NaN	NaN	NaN	NaN	NaN	NaN
98.2833227000001	0.4996	sub-24	1	localizer	stimulus	Haus	NaN	0	2.034577400000657	NaN	True	NaN	NaN	NaN	NaN	NaN	NaN	NaN
98.7664635000001	2.0346	sub-24	1	localizer	blank	interval	NaN	NaN	NaN	NaN	NaN	NaN	NaN	NaN	NaN	NaN	NaN	NaN
101.10212280000088	0.4995	sub-24	1	localizer	stimulus	Schuh	NaN	180	2.335084199999983	0.5813742000000275	True	NaN	NaN	NaN	NaN	NaN	NaN	NaN
101.58510940000087	2.3351	sub-24	1	localizer	blank	interval	NaN	NaN	NaN	NaN	NaN	NaN	NaN	NaN	NaN	NaN	NaN	NaN
104.22128390000034	0.5005	sub-24	1	localizer	stimulus	Gesicht	NaN	0	2.017945200000227	NaN	True	NaN	NaN	NaN	NaN	NaN	NaN	NaN
104.70451250000042	2.0179	sub-24	1	localizer	blank	interval	NaN	NaN	NaN	NaN	NaN	NaN	NaN	NaN	NaN	NaN	NaN	NaN
107.02354510000076	0.4996	sub-24	1	localizer	stimulus	Schuh	NaN	0	2.5351550000005005	NaN	True	NaN	NaN	NaN	NaN	NaN	NaN	NaN
107.50667020000036	2.5352	sub-24	1	localizer	blank	interval	NaN	NaN	NaN	NaN	NaN	NaN	NaN	NaN	NaN	NaN	NaN	NaN
113.52836750000006	1.0005	sub-24	1	sequence	cue	Stuhl	NaN	NaN	NaN	NaN	NaN	NaN	NaN	NaN	NaN	NaN	NaN	NaN
114.52888170000006	2.0016	sub-24	1	sequence	blank	blank	NaN	NaN	NaN	NaN	NaN	NaN	NaN	NaN	NaN	NaN	NaN	NaN
116.53046110000014	0.3003	sub-24	1	sequence	fixation	dot	NaN	NaN	NaN	NaN	NaN	NaN	NaN	NaN	NaN	NaN	NaN	NaN
116.8788297000001	0.102	sub-24	1	sequence	stimulus	Gesicht	NaN	NaN	32.0	NaN	NaN	1.0	1.0	NaN	NaN	NaN	NaN	NaN
116.98087530000066	0.0335	sub-24	1	sequence	interval	dot	NaN	NaN	NaN	NaN	NaN	NaN	NaN	NaN	NaN	NaN	NaN	NaN
117.014408	0.0999	sub-24	1	sequence	stimulus	Haus	NaN	NaN	32.0	NaN	NaN	2.0	2.0	NaN	NaN	NaN	NaN	NaN
117.11432390000029	0.0335	sub-24	1	sequence	interval	dot	NaN	NaN	NaN	NaN	NaN	NaN	NaN	NaN	NaN	NaN	NaN	NaN
117.14784490000056	0.1	sub-24	1	sequence	stimulus	Stuhl	NaN	NaN	32.0	NaN	NaN	5.0	3.0	NaN	NaN	NaN	NaN	NaN
117.24780110000027	0.0335	sub-24	1	sequence	interval	dot	NaN	NaN	NaN	NaN	NaN	NaN	NaN	NaN	NaN	NaN	NaN	NaN
117.2813102	0.0999	sub-24	1	sequence	stimulus	Katze	NaN	NaN	32.0	NaN	NaN	3.0	4.0	NaN	NaN	NaN	NaN	NaN
117.38125890000084	0.0336	sub-24	1	sequence	interval	dot	NaN	NaN	NaN	NaN	NaN	NaN	NaN	NaN	NaN	NaN	NaN	NaN
117.41481860000022	0.0999	sub-24	1	sequence	stimulus	Schuh	NaN	NaN	32.0	NaN	NaN	4.0	5.0	NaN	NaN	NaN	NaN	NaN
117.51469910000014	0.0334	sub-24	1	sequence	interval	dot	NaN	NaN	NaN	NaN	NaN	NaN	NaN	NaN	NaN	NaN	NaN	NaN
117.54805650000073	8.5381	sub-24	1	sequence	delay	dot	NaN	NaN	NaN	NaN	NaN	NaN	NaN	NaN	NaN	NaN	NaN	NaN
126.05750010000064	1.0149	sub-24	1	sequence	choice	choice	right	NaN	NaN	0.9813278000001446	True	NaN	NaN	right	1.0	5.0	3.0	3.0
127.07282160000068	0.4999	sub-24	1	sequence	feedback	NaN	NaN	NaN	NaN	NaN	NaN	NaN	NaN	NaN	NaN	NaN	NaN	NaN
127.57291340000027	1.0006	sub-24	1	sequence	cue	Schuh	NaN	NaN	NaN	NaN	NaN	NaN	NaN	NaN	NaN	NaN	NaN	NaN
128.57350150000002	2.0016	sub-24	1	sequence	blank	blank	NaN	NaN	NaN	NaN	NaN	NaN	NaN	NaN	NaN	NaN	NaN	NaN
130.57513170000038	0.3003	sub-24	1	sequence	fixation	dot	NaN	NaN	NaN	NaN	NaN	NaN	NaN	NaN	NaN	NaN	NaN	NaN
130.89323740000054	0.0989	sub-24	1	sequence	stimulus	Haus	NaN	NaN	512.0	NaN	NaN	2.0	1.0	NaN	NaN	NaN	NaN	NaN
130.99213170000075	0.5172	sub-24	1	sequence	interval	dot	NaN	NaN	NaN	NaN	NaN	NaN	NaN	NaN	NaN	NaN	NaN	NaN
131.50931260000016	0.1	sub-24	1	sequence	stimulus	Gesicht	NaN	NaN	512.0	NaN	NaN	1.0	2.0	NaN	NaN	NaN	NaN	NaN
131.6092968000003	0.5172	sub-24	1	sequence	interval	dot	NaN	NaN	NaN	NaN	NaN	NaN	NaN	NaN	NaN	NaN	NaN	NaN
132.12646700000005	0.1	sub-24	1	sequence	stimulus	Schuh	NaN	NaN	512.0	NaN	NaN	4.0	3.0	NaN	NaN	NaN	NaN	NaN
132.2264578000004	0.5172	sub-24	1	sequence	interval	dot	NaN	NaN	NaN	NaN	NaN	NaN	NaN	NaN	NaN	NaN	NaN	NaN
132.74366390000068	0.1001	sub-24	1	sequence	stimulus	Katze	NaN	NaN	512.0	NaN	NaN	3.0	4.0	NaN	NaN	NaN	NaN	NaN
132.84376650000013	0.5172	sub-24	1	sequence	interval	dot	NaN	NaN	NaN	NaN	NaN	NaN	NaN	NaN	NaN	NaN	NaN	NaN
133.3609219	0.1	sub-24	1	sequence	stimulus	Stuhl	NaN	NaN	512.0	NaN	NaN	5.0	5.0	NaN	NaN	NaN	NaN	NaN
133.46091830000023	0.5171	sub-24	1	sequence	interval	dot	NaN	NaN	NaN	NaN	NaN	NaN	NaN	NaN	NaN	NaN	NaN	NaN
133.97799000000032	6.1362	sub-24	1	sequence	delay	dot	NaN	NaN	NaN	NaN	NaN	NaN	NaN	NaN	NaN	NaN	NaN	NaN
140.09708560000036	0.8536	sub-24	1	sequence	choice	choice	left	NaN	NaN	0.8333873000001404	True	NaN	NaN	left	True	3.0	4.0	3.0
140.9509478	0.5	sub-24	1	sequence	feedback	NaN	NaN	NaN	NaN	NaN	NaN	NaN	NaN	NaN	NaN	NaN	NaN	NaN
141.45118820000062	1.0003	sub-24	1	sequence	cue	Haus	NaN	NaN	NaN	NaN	NaN	NaN	NaN	NaN	NaN	NaN	NaN	NaN
142.4514508000002	2.0016	sub-24	1	sequence	blank	blank	NaN	NaN	NaN	NaN	NaN	NaN	NaN	NaN	NaN	NaN	NaN	NaN
144.45306820000042	0.3003	sub-24	1	sequence	fixation	dot	NaN	NaN	NaN	NaN	NaN	NaN	NaN	NaN	NaN	NaN	NaN	NaN
144.7709078000007	0.0991	sub-24	1	sequence	stimulus	Schuh	NaN	NaN	64.0	NaN	NaN	4.0	1.0	NaN	NaN	NaN	NaN	NaN
144.86998360000052	0.0669	sub-24	1	sequence	interval	dot	NaN	NaN	NaN	NaN	NaN	NaN	NaN	NaN	NaN	NaN	NaN	NaN
144.93684570000005	0.1	sub-24	1	sequence	stimulus	Gesicht	NaN	NaN	64.0	NaN	NaN	1.0	2.0	NaN	NaN	NaN	NaN	NaN
145.03682480000043	0.0668	sub-24	1	sequence	interval	dot	NaN	NaN	NaN	NaN	NaN	NaN	NaN	NaN	NaN	NaN	NaN	NaN
145.10366370000065	0.1	sub-24	1	sequence	stimulus	Katze	NaN	NaN	64.0	NaN	NaN	3.0	3.0	NaN	NaN	NaN	NaN	NaN
145.20362569999998	0.0668	sub-24	1	sequence	interval	dot	NaN	NaN	NaN	NaN	NaN	NaN	NaN	NaN	NaN	NaN	NaN	NaN
145.27045590000034	0.0999	sub-24	1	sequence	stimulus	Haus	NaN	NaN	64.0	NaN	NaN	2.0	4.0	NaN	NaN	NaN	NaN	NaN
145.37040200000047	0.0668	sub-24	1	sequence	interval	dot	NaN	NaN	NaN	NaN	NaN	NaN	NaN	NaN	NaN	NaN	NaN	NaN
145.43725059999997	0.1001	sub-24	1	sequence	stimulus	Stuhl	NaN	NaN	64.0	NaN	NaN	5.0	5.0	NaN	NaN	NaN	NaN	NaN
145.5373292000004	0.0666	sub-24	1	sequence	interval	dot	NaN	NaN	NaN	NaN	NaN	NaN	NaN	NaN	NaN	NaN	NaN	NaN
145.60393150000073	8.3884	sub-24	1	sequence	delay	dot	NaN	NaN	NaN	NaN	NaN	NaN	NaN	NaN	NaN	NaN	NaN	NaN
153.98078860000078	1.3646	sub-24	1	sequence	choice	choice	right	NaN	NaN	1.3392829000003983	True	NaN	NaN	right	True	5.0	4.0	4.0
155.34563960000014	0.5	sub-24	1	sequence	feedback	NaN	NaN	NaN	NaN	NaN	NaN	NaN	NaN	NaN	NaN	NaN	NaN	NaN
155.84574480000083	1.0007	sub-24	1	sequence	cue	Gesicht	NaN	NaN	NaN	NaN	NaN	NaN	NaN	NaN	NaN	NaN	NaN	NaN
156.846407	2.0017	sub-24	1	sequence	blank	blank	NaN	NaN	NaN	NaN	NaN	NaN	NaN	NaN	NaN	NaN	NaN	NaN
158.84810690000086	0.3003	sub-24	1	sequence	fixation	dot	NaN	NaN	NaN	NaN	NaN	NaN	NaN	NaN	NaN	NaN	NaN	NaN
159.16655620000074	0.1152	sub-24	1	sequence	stimulus	Stuhl	NaN	NaN	64.0	NaN	NaN	5.0	1.0	NaN	NaN	NaN	NaN	NaN
159.2818027000003	0.0669	sub-24	1	sequence	interval	dot	NaN	NaN	NaN	NaN	NaN	NaN	NaN	NaN	NaN	NaN	NaN	NaN
159.34867620000023	0.0999	sub-24	1	sequence	stimulus	Haus	NaN	NaN	64.0	NaN	NaN	2.0	2.0	NaN	NaN	NaN	NaN	NaN
159.44862450000073	0.0668	sub-24	1	sequence	interval	dot	NaN	NaN	NaN	NaN	NaN	NaN	NaN	NaN	NaN	NaN	NaN	NaN
159.5154652000001	0.1	sub-24	1	sequence	stimulus	Katze	NaN	NaN	64.0	NaN	NaN	3.0	3.0	NaN	NaN	NaN	NaN	NaN
159.61548890000086	0.0669	sub-24	1	sequence	interval	dot	NaN	NaN	NaN	NaN	NaN	NaN	NaN	NaN	NaN	NaN	NaN	NaN
159.68237829999998	0.0999	sub-24	1	sequence	stimulus	Schuh	NaN	NaN	64.0	NaN	NaN	4.0	4.0	NaN	NaN	NaN	NaN	NaN
159.78225270000075	0.0668	sub-24	1	sequence	interval	dot	NaN	NaN	NaN	NaN	NaN	NaN	NaN	NaN	NaN	NaN	NaN	NaN
159.84907790000034	0.1	sub-24	1	sequence	stimulus	Gesicht	NaN	NaN	64.0	NaN	NaN	1.0	5.0	NaN	NaN	NaN	NaN	NaN
159.9490631000008	0.0667	sub-24	1	sequence	interval	dot	NaN	NaN	NaN	NaN	NaN	NaN	NaN	NaN	NaN	NaN	NaN	NaN
160.0157577	8.3882	sub-24	1	sequence	delay	dot	NaN	NaN	NaN	NaN	NaN	NaN	NaN	NaN	NaN	NaN	NaN	NaN
168.3846885000003	0.9887	sub-24	1	sequence	choice	choice	left	NaN	NaN	0.9594631999998456	True	NaN	NaN	left	True	5.0	3.0	5.0
169.3736312000001	0.5	sub-24	1	sequence	feedback	NaN	NaN	NaN	NaN	NaN	NaN	NaN	NaN	NaN	NaN	NaN	NaN	NaN
169.87380810000013	1.0006	sub-24	1	sequence	cue	Katze	NaN	NaN	NaN	NaN	NaN	NaN	NaN	NaN	NaN	NaN	NaN	NaN
170.87445130000015	2.0016	sub-24	1	sequence	blank	blank	NaN	NaN	NaN	NaN	NaN	NaN	NaN	NaN	NaN	NaN	NaN	NaN
172.8760430000002	0.3003	sub-24	1	sequence	fixation	dot	NaN	NaN	NaN	NaN	NaN	NaN	NaN	NaN	NaN	NaN	NaN	NaN
173.1939198	0.0991	sub-24	1	sequence	stimulus	Stuhl	NaN	NaN	512.0	NaN	NaN	5.0	1.0	NaN	NaN	NaN	NaN	NaN
173.2930103000008	0.5172	sub-24	1	sequence	interval	dot	NaN	NaN	NaN	NaN	NaN	NaN	NaN	NaN	NaN	NaN	NaN	NaN
173.81024520000028	0.0999	sub-24	1	sequence	stimulus	Haus	NaN	NaN	512.0	NaN	NaN	2.0	2.0	NaN	NaN	NaN	NaN	NaN
173.91017810000085	0.5172	sub-24	1	sequence	interval	dot	NaN	NaN	NaN	NaN	NaN	NaN	NaN	NaN	NaN	NaN	NaN	NaN
174.4273748000005	0.1	sub-24	1	sequence	stimulus	Gesicht	NaN	NaN	512.0	NaN	NaN	1.0	3.0	NaN	NaN	NaN	NaN	NaN
174.52738860000045	0.5172	sub-24	1	sequence	interval	dot	NaN	NaN	NaN	NaN	NaN	NaN	NaN	NaN	NaN	NaN	NaN	NaN
175.0445694	0.1	sub-24	1	sequence	stimulus	Katze	NaN	NaN	512.0	NaN	NaN	3.0	4.0	NaN	NaN	NaN	NaN	NaN
175.1445556000008	0.5171	sub-24	1	sequence	interval	dot	NaN	NaN	NaN	NaN	NaN	NaN	NaN	NaN	NaN	NaN	NaN	NaN
175.66170070000044	0.1	sub-24	1	sequence	stimulus	Schuh	NaN	NaN	512.0	NaN	NaN	4.0	5.0	NaN	NaN	NaN	NaN	NaN
175.76168450000023	0.5171	sub-24	1	sequence	interval	dot	NaN	NaN	NaN	NaN	NaN	NaN	NaN	NaN	NaN	NaN	NaN	NaN
176.27877070000068	6.1363	sub-24	1	sequence	delay	dot	NaN	NaN	NaN	NaN	NaN	NaN	NaN	NaN	NaN	NaN	NaN	NaN
182.3982620000006	0.8866	sub-24	1	sequence	choice	choice	right	NaN	NaN	0.8604202999995323	True	NaN	NaN	right	True	2.0	4.0	4.0
183.28517100000045	0.4998	sub-24	1	sequence	feedback	NaN	NaN	NaN	NaN	NaN	NaN	NaN	NaN	NaN	NaN	NaN	NaN	NaN
183.78522890000025	1.0004	sub-24	1	sequence	cue	Katze	NaN	NaN	NaN	NaN	NaN	NaN	NaN	NaN	NaN	NaN	NaN	NaN
184.7856475000008	2.0018	sub-24	1	sequence	blank	blank	NaN	NaN	NaN	NaN	NaN	NaN	NaN	NaN	NaN	NaN	NaN	NaN
186.78740770000056	0.3001	sub-24	1	sequence	fixation	dot	NaN	NaN	NaN	NaN	NaN	NaN	NaN	NaN	NaN	NaN	NaN	NaN
187.10516580000055	0.0991	sub-24	1	sequence	stimulus	Stuhl	NaN	NaN	128.0	NaN	NaN	5.0	1.0	NaN	NaN	NaN	NaN	NaN
187.20425570000043	0.1336	sub-24	1	sequence	interval	dot	NaN	NaN	NaN	NaN	NaN	NaN	NaN	NaN	NaN	NaN	NaN	NaN
187.33788730000012	0.1	sub-24	1	sequence	stimulus	Haus	NaN	NaN	128.0	NaN	NaN	2.0	2.0	NaN	NaN	NaN	NaN	NaN
187.43784510000023	0.1335	sub-24	1	sequence	interval	dot	NaN	NaN	NaN	NaN	NaN	NaN	NaN	NaN	NaN	NaN	NaN	NaN
187.57133860000067	0.1	sub-24	1	sequence	stimulus	Schuh	NaN	NaN	128.0	NaN	NaN	4.0	3.0	NaN	NaN	NaN	NaN	NaN
187.67133700000068	0.1335	sub-24	1	sequence	interval	dot	NaN	NaN	NaN	NaN	NaN	NaN	NaN	NaN	NaN	NaN	NaN	NaN
187.8048727000005	0.0999	sub-24	1	sequence	stimulus	Katze	NaN	NaN	128.0	NaN	NaN	3.0	4.0	NaN	NaN	NaN	NaN	NaN
187.90481790000013	0.1336	sub-24	1	sequence	interval	dot	NaN	NaN	NaN	NaN	NaN	NaN	NaN	NaN	NaN	NaN	NaN	NaN
188.03837890000068	0.1	sub-24	1	sequence	stimulus	Gesicht	NaN	NaN	128.0	NaN	NaN	1.0	5.0	NaN	NaN	NaN	NaN	NaN
188.13835090000063	0.1335	sub-24	1	sequence	interval	dot	NaN	NaN	NaN	NaN	NaN	NaN	NaN	NaN	NaN	NaN	NaN	NaN
188.2718224	8.0881	sub-24	1	sequence	delay	dot	NaN	NaN	NaN	NaN	NaN	NaN	NaN	NaN	NaN	NaN	NaN	NaN
196.3338685000008	0.9454	sub-24	1	sequence	choice	choice	left	NaN	NaN	0.907646499999828	True	NaN	NaN	left	True	4.0	3.0	4.0
197.2795735	0.5	sub-24	1	sequence	feedback	NaN	NaN	NaN	NaN	NaN	NaN	NaN	NaN	NaN	NaN	NaN	NaN	NaN
197.7798438	1.0006	sub-24	1	sequence	cue	Stuhl	NaN	NaN	NaN	NaN	NaN	NaN	NaN	NaN	NaN	NaN	NaN	NaN
198.78042790000015	2.0017	sub-24	1	sequence	blank	blank	NaN	NaN	NaN	NaN	NaN	NaN	NaN	NaN	NaN	NaN	NaN	NaN
200.78215100000037	0.3003	sub-24	1	sequence	fixation	dot	NaN	NaN	NaN	NaN	NaN	NaN	NaN	NaN	NaN	NaN	NaN	NaN
201.1156307000001	0.1002	sub-24	1	sequence	stimulus	Katze	NaN	NaN	128.0	NaN	NaN	3.0	1.0	NaN	NaN	NaN	NaN	NaN
201.21585950000008	0.1335	sub-24	1	sequence	interval	dot	NaN	NaN	NaN	NaN	NaN	NaN	NaN	NaN	NaN	NaN	NaN	NaN
201.34932800000024	0.1	sub-24	1	sequence	stimulus	Haus	NaN	NaN	128.0	NaN	NaN	2.0	2.0	NaN	NaN	NaN	NaN	NaN
201.44931200000065	0.1336	sub-24	1	sequence	interval	dot	NaN	NaN	NaN	NaN	NaN	NaN	NaN	NaN	NaN	NaN	NaN	NaN
201.58293310000045	0.0999	sub-24	1	sequence	stimulus	Schuh	NaN	NaN	128.0	NaN	NaN	4.0	3.0	NaN	NaN	NaN	NaN	NaN
201.6828103000007	0.1335	sub-24	1	sequence	interval	dot	NaN	NaN	NaN	NaN	NaN	NaN	NaN	NaN	NaN	NaN	NaN	NaN
201.8163375000004	0.1001	sub-24	1	sequence	stimulus	Stuhl	NaN	NaN	128.0	NaN	NaN	5.0	4.0	NaN	NaN	NaN	NaN	NaN
201.9164534000001	0.1335	sub-24	1	sequence	interval	dot	NaN	NaN	NaN	NaN	NaN	NaN	NaN	NaN	NaN	NaN	NaN	NaN
202.0499060000002	0.1	sub-24	1	sequence	stimulus	Gesicht	NaN	NaN	128.0	NaN	NaN	1.0	5.0	NaN	NaN	NaN	NaN	NaN
202.1499360000007	0.1334	sub-24	1	sequence	interval	dot	NaN	NaN	NaN	NaN	NaN	NaN	NaN	NaN	NaN	NaN	NaN	NaN
202.2833716000005	8.0551	sub-24	1	sequence	delay	dot	NaN	NaN	NaN	NaN	NaN	NaN	NaN	NaN	NaN	NaN	NaN	NaN
210.3218198000004	0.8354	sub-24	1	sequence	choice	choice	left	NaN	NaN	0.8172393000004377	True	NaN	NaN	left	True	4.0	5.0	4.0
211.15748040000017	0.5	sub-24	1	sequence	feedback	NaN	NaN	NaN	NaN	NaN	NaN	NaN	NaN	NaN	NaN	NaN	NaN	NaN
211.65775470000065	1.0005	sub-24	1	sequence	cue	Stuhl	NaN	NaN	NaN	NaN	NaN	NaN	NaN	NaN	NaN	NaN	NaN	NaN
212.6582896	2.0017	sub-24	1	sequence	blank	blank	NaN	NaN	NaN	NaN	NaN	NaN	NaN	NaN	NaN	NaN	NaN	NaN
214.66003550000005	0.3001	sub-24	1	sequence	fixation	dot	NaN	NaN	NaN	NaN	NaN	NaN	NaN	NaN	NaN	NaN	NaN	NaN
214.9775793000008	0.0992	sub-24	1	sequence	stimulus	Schuh	NaN	NaN	32.0	NaN	NaN	4.0	1.0	NaN	NaN	NaN	NaN	NaN
215.07681450000015	0.0335	sub-24	1	sequence	interval	dot	NaN	NaN	NaN	NaN	NaN	NaN	NaN	NaN	NaN	NaN	NaN	NaN
215.1102907000004	0.1	sub-24	1	sequence	stimulus	Gesicht	NaN	NaN	32.0	NaN	NaN	1.0	2.0	NaN	NaN	NaN	NaN	NaN
215.2102657000005	0.0335	sub-24	1	sequence	interval	dot	NaN	NaN	NaN	NaN	NaN	NaN	NaN	NaN	NaN	NaN	NaN	NaN
215.2437464000004	0.1	sub-24	1	sequence	stimulus	Haus	NaN	NaN	32.0	NaN	NaN	2.0	3.0	NaN	NaN	NaN	NaN	NaN
215.34373170000072	0.0334	sub-24	1	sequence	interval	dot	NaN	NaN	NaN	NaN	NaN	NaN	NaN	NaN	NaN	NaN	NaN	NaN
215.3771488000002	0.1001	sub-24	1	sequence	stimulus	Katze	NaN	NaN	32.0	NaN	NaN	3.0	4.0	NaN	NaN	NaN	NaN	NaN
215.4772210000001	0.0335	sub-24	1	sequence	interval	dot	NaN	NaN	NaN	NaN	NaN	NaN	NaN	NaN	NaN	NaN	NaN	NaN
215.5107564	0.0999	sub-24	1	sequence	stimulus	Stuhl	NaN	NaN	32.0	NaN	NaN	5.0	5.0	NaN	NaN	NaN	NaN	NaN
215.61068090000023	0.0333	sub-24	1	sequence	interval	dot	NaN	NaN	NaN	NaN	NaN	NaN	NaN	NaN	NaN	NaN	NaN	NaN
215.64393280000056	8.5219	sub-24	1	sequence	delay	dot	NaN	NaN	NaN	NaN	NaN	NaN	NaN	NaN	NaN	NaN	NaN	NaN
224.15325570000005	0.7986	sub-24	1	sequence	choice	choice	right	NaN	NaN	0.7737018999996508	True	NaN	NaN	right	True	4.0	5.0	5.0
224.9521102000008	0.5	sub-24	1	sequence	feedback	NaN	NaN	NaN	NaN	NaN	NaN	NaN	NaN	NaN	NaN	NaN	NaN	NaN
229.27257370000007	0.4994	sub-24	1	localizer	stimulus	Gesicht	NaN	0	1.7345036999995784	NaN	True	NaN	NaN	NaN	NaN	NaN	NaN	NaN
229.7555815000005	1.7345	sub-24	1	localizer	blank	interval	NaN	NaN	NaN	NaN	NaN	NaN	NaN	NaN	NaN	NaN	NaN	NaN
231.79115700000057	0.4996	sub-24	1	localizer	stimulus	Katze	NaN	180	1.4010211999993487	0.6602456999999049	True	NaN	NaN	NaN	NaN	NaN	NaN	NaN
232.2741459000008	1.401	sub-24	1	localizer	blank	interval	NaN	NaN	NaN	NaN	NaN	NaN	NaN	NaN	NaN	NaN	NaN	NaN
233.97628330000043	0.4996	sub-24	1	localizer	stimulus	Katze	NaN	0	2.1516777000006186	NaN	True	NaN	NaN	NaN	NaN	NaN	NaN	NaN
234.45924990000003	2.1517	sub-24	1	localizer	blank	interval	NaN	NaN	NaN	NaN	NaN	NaN	NaN	NaN	NaN	NaN	NaN	NaN
236.91197270000063	0.4996	sub-24	1	localizer	stimulus	Schuh	NaN	0	2.218354200000249	NaN	True	NaN	NaN	NaN	NaN	NaN	NaN	NaN
237.39497350000056	2.2184	sub-24	1	localizer	blank	interval	NaN	NaN	NaN	NaN	NaN	NaN	NaN	NaN	NaN	NaN	NaN	NaN
239.91442570000072	0.4995	sub-24	1	localizer	stimulus	Stuhl	NaN	0	2.351864599999317	NaN	True	NaN	NaN	NaN	NaN	NaN	NaN	NaN
240.39740250000068	2.3519	sub-24	1	localizer	blank	interval	NaN	NaN	NaN	NaN	NaN	NaN	NaN	NaN	NaN	NaN	NaN	NaN
243.0503896	0.4996	sub-24	1	localizer	stimulus	Schuh	NaN	0	3.619349399999919	NaN	True	NaN	NaN	NaN	NaN	NaN	NaN	NaN
243.53341720000023	3.6193	sub-24	1	localizer	blank	interval	NaN	NaN	NaN	NaN	NaN	NaN	NaN	NaN	NaN	NaN	NaN	NaN
247.45386060000052	0.4996	sub-24	1	localizer	stimulus	Gesicht	NaN	180	3.0523567999998704	0.597686999999496	True	NaN	NaN	NaN	NaN	NaN	NaN	NaN
247.93687000000045	3.0524	sub-24	1	localizer	blank	interval	NaN	NaN	NaN	NaN	NaN	NaN	NaN	NaN	NaN	NaN	NaN	NaN
251.2902487000001	0.4996	sub-24	1	localizer	stimulus	Stuhl	NaN	0	2.5518830999999693	NaN	True	NaN	NaN	NaN	NaN	NaN	NaN	NaN
251.7734130000008	2.5519	sub-24	1	localizer	blank	interval	NaN	NaN	NaN	NaN	NaN	NaN	NaN	NaN	NaN	NaN	NaN	NaN
254.62633600000024	0.4995	sub-24	1	localizer	stimulus	Stuhl	NaN	0	2.4352478999998652	NaN	True	NaN	NaN	NaN	NaN	NaN	NaN	NaN
255.10935150000023	2.4352	sub-24	1	localizer	blank	interval	NaN	NaN	NaN	NaN	NaN	NaN	NaN	NaN	NaN	NaN	NaN	NaN
257.8455926000006	0.4996	sub-24	1	localizer	stimulus	Haus	NaN	0	2.201705999999888	NaN	True	NaN	NaN	NaN	NaN	NaN	NaN	NaN
258.3286370000005	2.2017	sub-24	1	localizer	blank	interval	NaN	NaN	NaN	NaN	NaN	NaN	NaN	NaN	NaN	NaN	NaN	NaN
260.8313527	0.4995	sub-24	1	localizer	stimulus	Haus	NaN	0	3.085797200000343	NaN	True	NaN	NaN	NaN	NaN	NaN	NaN	NaN
261.3144091000004	3.0858	sub-24	1	localizer	blank	interval	NaN	NaN	NaN	NaN	NaN	NaN	NaN	NaN	NaN	NaN	NaN	NaN
264.70113590000074	0.4997	sub-24	1	localizer	stimulus	Gesicht	NaN	0	2.9854561000001922	NaN	True	NaN	NaN	NaN	NaN	NaN	NaN	NaN
265.1842936000003	2.9855	sub-24	1	localizer	blank	interval	NaN	NaN	NaN	NaN	NaN	NaN	NaN	NaN	NaN	NaN	NaN	NaN
268.47083590000057	0.4996	sub-24	1	localizer	stimulus	Schuh	NaN	0	1.7013594000000012	NaN	True	NaN	NaN	NaN	NaN	NaN	NaN	NaN
268.9538644000004	1.7014	sub-24	1	localizer	blank	interval	NaN	NaN	NaN	NaN	NaN	NaN	NaN	NaN	NaN	NaN	NaN	NaN
270.9561522000004	0.4997	sub-24	1	localizer	stimulus	Katze	NaN	0	2.251697900000181	NaN	True	NaN	NaN	NaN	NaN	NaN	NaN	NaN
271.43921020000016	2.2517	sub-24	1	localizer	blank	interval	NaN	NaN	NaN	NaN	NaN	NaN	NaN	NaN	NaN	NaN	NaN	NaN
273.99198140000044	0.4996	sub-24	1	localizer	stimulus	Gesicht	NaN	0	2.9856526000003214	NaN	True	NaN	NaN	NaN	NaN	NaN	NaN	NaN
274.4749827000005	2.9857	sub-24	1	localizer	blank	interval	NaN	NaN	NaN	NaN	NaN	NaN	NaN	NaN	NaN	NaN	NaN	NaN
277.7617354000004	0.5002	sub-24	1	localizer	stimulus	Gesicht	NaN	0	1.08408480000071	NaN	True	NaN	NaN	NaN	NaN	NaN	NaN	NaN
278.24475970000003	1.0841	sub-24	1	localizer	blank	interval	NaN	NaN	NaN	NaN	NaN	NaN	NaN	NaN	NaN	NaN	NaN	NaN
279.62988270000005	0.4996	sub-24	1	localizer	stimulus	Haus	NaN	180	1.3343371999999363	0.6215189999993527	True	NaN	NaN	NaN	NaN	NaN	NaN	NaN
280.1128864000002	1.3343	sub-24	1	localizer	blank	interval	NaN	NaN	NaN	NaN	NaN	NaN	NaN	NaN	NaN	NaN	NaN	NaN
281.7482589000001	0.4999	sub-24	1	localizer	stimulus	Stuhl	NaN	0	3.019063499999902	NaN	True	NaN	NaN	NaN	NaN	NaN	NaN	NaN
282.23133470000084	3.0191	sub-24	1	localizer	blank	interval	NaN	NaN	NaN	NaN	NaN	NaN	NaN	NaN	NaN	NaN	NaN	NaN
285.55139490000056	0.4996	sub-24	1	localizer	stimulus	Katze	NaN	0	2.9522871999997733	NaN	True	NaN	NaN	NaN	NaN	NaN	NaN	NaN
286.0344225000008	2.9523	sub-24	1	localizer	blank	interval	NaN	NaN	NaN	NaN	NaN	NaN	NaN	NaN	NaN	NaN	NaN	NaN
289.2877128	0.4995	sub-24	1	localizer	stimulus	Haus	NaN	0	2.1682952999999543	NaN	True	NaN	NaN	NaN	NaN	NaN	NaN	NaN
289.7707672000006	2.1683	sub-24	1	localizer	blank	interval	NaN	NaN	NaN	NaN	NaN	NaN	NaN	NaN	NaN	NaN	NaN	NaN
292.24006800000006	0.4996	sub-24	1	localizer	stimulus	Schuh	NaN	180	2.668723599999794	0.6193332000002556	True	NaN	NaN	NaN	NaN	NaN	NaN	NaN
292.72308930000054	2.6687	sub-24	1	localizer	blank	interval	NaN	NaN	NaN	NaN	NaN	NaN	NaN	NaN	NaN	NaN	NaN	NaN
295.69289320000007	0.4996	sub-24	1	localizer	stimulus	Schuh	NaN	0	1.3175620000002368	NaN	True	NaN	NaN	NaN	NaN	NaN	NaN	NaN
296.1759329000006	1.3176	sub-24	1	localizer	blank	interval	NaN	NaN	NaN	NaN	NaN	NaN	NaN	NaN	NaN	NaN	NaN	NaN
297.7946070000007	0.4995	sub-24	1	localizer	stimulus	Haus	NaN	0	3.3859786000002714	NaN	True	NaN	NaN	NaN	NaN	NaN	NaN	NaN
298.27756820000013	3.386	sub-24	1	localizer	blank	interval	NaN	NaN	NaN	NaN	NaN	NaN	NaN	NaN	NaN	NaN	NaN	NaN
301.96462280000014	0.4996	sub-24	1	localizer	stimulus	Katze	NaN	0	2.885580000000118	NaN	True	NaN	NaN	NaN	NaN	NaN	NaN	NaN
302.4476134000006	2.8856	sub-24	1	localizer	blank	interval	NaN	NaN	NaN	NaN	NaN	NaN	NaN	NaN	NaN	NaN	NaN	NaN
305.6343802000001	0.4995	sub-24	1	localizer	stimulus	Stuhl	NaN	180	2.4018732000004093	0.665294399999766	True	NaN	NaN	NaN	NaN	NaN	NaN	NaN
306.1173881000004	2.4019	sub-24	1	localizer	blank	interval	NaN	NaN	NaN	NaN	NaN	NaN	NaN	NaN	NaN	NaN	NaN	NaN
312.0055575000006	1.0005	sub-24	1	sequence	cue	Katze	NaN	NaN	NaN	NaN	NaN	NaN	NaN	NaN	NaN	NaN	NaN	NaN
313.00609560000066	2.0016	sub-24	1	sequence	blank	blank	NaN	NaN	NaN	NaN	NaN	NaN	NaN	NaN	NaN	NaN	NaN	NaN
315.0077416000004	0.3003	sub-24	1	sequence	fixation	dot	NaN	NaN	NaN	NaN	NaN	NaN	NaN	NaN	NaN	NaN	NaN	NaN
315.3254237000001	0.0992	sub-24	1	sequence	stimulus	Stuhl	NaN	NaN	128.0	NaN	NaN	5.0	1.0	NaN	NaN	NaN	NaN	NaN
315.4246628000001	0.1336	sub-24	1	sequence	interval	dot	NaN	NaN	NaN	NaN	NaN	NaN	NaN	NaN	NaN	NaN	NaN	NaN
315.55823820000023	0.0999	sub-24	1	sequence	stimulus	Haus	NaN	NaN	128.0	NaN	NaN	2.0	2.0	NaN	NaN	NaN	NaN	NaN
315.65816600000016	0.1336	sub-24	1	sequence	interval	dot	NaN	NaN	NaN	NaN	NaN	NaN	NaN	NaN	NaN	NaN	NaN	NaN
315.79172670000025	0.1	sub-24	1	sequence	stimulus	Schuh	NaN	NaN	128.0	NaN	NaN	4.0	3.0	NaN	NaN	NaN	NaN	NaN
315.8916925000003	0.1336	sub-24	1	sequence	interval	dot	NaN	NaN	NaN	NaN	NaN	NaN	NaN	NaN	NaN	NaN	NaN	NaN
316.0252704000004	0.1	sub-24	1	sequence	stimulus	Katze	NaN	NaN	128.0	NaN	NaN	3.0	4.0	NaN	NaN	NaN	NaN	NaN
316.1252319000005	0.1336	sub-24	1	sequence	interval	dot	NaN	NaN	NaN	NaN	NaN	NaN	NaN	NaN	NaN	NaN	NaN	NaN
316.25881670000035	0.0999	sub-24	1	sequence	stimulus	Gesicht	NaN	NaN	128.0	NaN	NaN	1.0	5.0	NaN	NaN	NaN	NaN	NaN
316.3587417000008	0.1335	sub-24	1	sequence	interval	dot	NaN	NaN	NaN	NaN	NaN	NaN	NaN	NaN	NaN	NaN	NaN	NaN
316.4922024000007	8.0713	sub-24	1	sequence	delay	dot	NaN	NaN	NaN	NaN	NaN	NaN	NaN	NaN	NaN	NaN	NaN	NaN
324.53716650000024	0.8457	sub-24	1	sequence	choice	choice	left	NaN	NaN	0.816336500000034	True	NaN	NaN	left	True	4.0	5.0	4.0
325.3830442000008	0.5002	sub-24	1	sequence	feedback	NaN	NaN	NaN	NaN	NaN	NaN	NaN	NaN	NaN	NaN	NaN	NaN	NaN
325.8834035	1.0007	sub-24	1	sequence	cue	Gesicht	NaN	NaN	NaN	NaN	NaN	NaN	NaN	NaN	NaN	NaN	NaN	NaN
326.88409480000064	2.0016	sub-24	1	sequence	blank	blank	NaN	NaN	NaN	NaN	NaN	NaN	NaN	NaN	NaN	NaN	NaN	NaN
328.8857457000004	0.3003	sub-24	1	sequence	fixation	dot	NaN	NaN	NaN	NaN	NaN	NaN	NaN	NaN	NaN	NaN	NaN	NaN
329.20446730000003	0.115	sub-24	1	sequence	stimulus	Katze	NaN	NaN	128.0	NaN	NaN	3.0	1.0	NaN	NaN	NaN	NaN	NaN
329.31943780000074	0.1336	sub-24	1	sequence	interval	dot	NaN	NaN	NaN	NaN	NaN	NaN	NaN	NaN	NaN	NaN	NaN	NaN
329.4530069000002	0.1	sub-24	1	sequence	stimulus	Haus	NaN	NaN	128.0	NaN	NaN	2.0	2.0	NaN	NaN	NaN	NaN	NaN
329.5529782000003	0.1335	sub-24	1	sequence	interval	dot	NaN	NaN	NaN	NaN	NaN	NaN	NaN	NaN	NaN	NaN	NaN	NaN
329.68651710000086	0.1	sub-24	1	sequence	stimulus	Schuh	NaN	NaN	128.0	NaN	NaN	4.0	3.0	NaN	NaN	NaN	NaN	NaN
329.78647190000083	0.1335	sub-24	1	sequence	interval	dot	NaN	NaN	NaN	NaN	NaN	NaN	NaN	NaN	NaN	NaN	NaN	NaN
329.92001470000014	0.1	sub-24	1	sequence	stimulus	Stuhl	NaN	NaN	128.0	NaN	NaN	5.0	4.0	NaN	NaN	NaN	NaN	NaN
330.02003550000063	0.1335	sub-24	1	sequence	interval	dot	NaN	NaN	NaN	NaN	NaN	NaN	NaN	NaN	NaN	NaN	NaN	NaN
330.15353740000046	0.0999	sub-24	1	sequence	stimulus	Gesicht	NaN	NaN	128.0	NaN	NaN	1.0	5.0	NaN	NaN	NaN	NaN	NaN
330.2534734000001	0.1334	sub-24	1	sequence	interval	dot	NaN	NaN	NaN	NaN	NaN	NaN	NaN	NaN	NaN	NaN	NaN	NaN
330.3868764000008	8.0545	sub-24	1	sequence	delay	dot	NaN	NaN	NaN	NaN	NaN	NaN	NaN	NaN	NaN	NaN	NaN	NaN
338.4208955000004	0.7732	sub-24	1	sequence	choice	choice	right	NaN	NaN	0.7460949999995137	True	NaN	NaN	right	True	2.0	5.0	5.0
339.1943704000005	0.5001	sub-24	1	sequence	feedback	NaN	NaN	NaN	NaN	NaN	NaN	NaN	NaN	NaN	NaN	NaN	NaN	NaN
339.69457330000023	1.0006	sub-24	1	sequence	cue	Schuh	NaN	NaN	NaN	NaN	NaN	NaN	NaN	NaN	NaN	NaN	NaN	NaN
340.6951312000001	2.0018	sub-24	1	sequence	blank	blank	NaN	NaN	NaN	NaN	NaN	NaN	NaN	NaN	NaN	NaN	NaN	NaN
342.6969028000003	0.3001	sub-24	1	sequence	fixation	dot	NaN	NaN	NaN	NaN	NaN	NaN	NaN	NaN	NaN	NaN	NaN	NaN
343.01529870000013	0.1151	sub-24	1	sequence	stimulus	Stuhl	NaN	NaN	512.0	NaN	NaN	5.0	1.0	NaN	NaN	NaN	NaN	NaN
343.1304316000005	0.5172	sub-24	1	sequence	interval	dot	NaN	NaN	NaN	NaN	NaN	NaN	NaN	NaN	NaN	NaN	NaN	NaN
343.6476319000003	0.0999	sub-24	1	sequence	stimulus	Haus	NaN	NaN	512.0	NaN	NaN	2.0	2.0	NaN	NaN	NaN	NaN	NaN
343.74757170000066	0.5172	sub-24	1	sequence	interval	dot	NaN	NaN	NaN	NaN	NaN	NaN	NaN	NaN	NaN	NaN	NaN	NaN
344.26479560000007	0.1001	sub-24	1	sequence	stimulus	Gesicht	NaN	NaN	512.0	NaN	NaN	1.0	3.0	NaN	NaN	NaN	NaN	NaN
344.36487620000025	0.5171	sub-24	1	sequence	interval	dot	NaN	NaN	NaN	NaN	NaN	NaN	NaN	NaN	NaN	NaN	NaN	NaN
344.88194640000074	0.1	sub-24	1	sequence	stimulus	Katze	NaN	NaN	512.0	NaN	NaN	3.0	4.0	NaN	NaN	NaN	NaN	NaN
344.9819122000008	0.5172	sub-24	1	sequence	interval	dot	NaN	NaN	NaN	NaN	NaN	NaN	NaN	NaN	NaN	NaN	NaN	NaN
345.49908980000055	0.1	sub-24	1	sequence	stimulus	Schuh	NaN	NaN	512.0	NaN	NaN	4.0	5.0	NaN	NaN	NaN	NaN	NaN
345.5991042000005	0.5171	sub-24	1	sequence	interval	dot	NaN	NaN	NaN	NaN	NaN	NaN	NaN	NaN	NaN	NaN	NaN	NaN
346.11618890000045	6.1531	sub-24	1	sequence	delay	dot	NaN	NaN	NaN	NaN	NaN	NaN	NaN	NaN	NaN	NaN	NaN	NaN
352.2525027000001	0.8196	sub-24	1	sequence	choice	choice	left	NaN	NaN	0.7903271999994104	True	NaN	NaN	left	True	5.0	2.0	5.0
353.0723121000001	0.5	sub-24	1	sequence	feedback	NaN	NaN	NaN	NaN	NaN	NaN	NaN	NaN	NaN	NaN	NaN	NaN	NaN
353.5725493	1.0007	sub-24	1	sequence	cue	Schuh	NaN	NaN	NaN	NaN	NaN	NaN	NaN	NaN	NaN	NaN	NaN	NaN
354.5732549000004	2.0014	sub-24	1	sequence	blank	blank	NaN	NaN	NaN	NaN	NaN	NaN	NaN	NaN	NaN	NaN	NaN	NaN
356.57467540000016	0.3004	sub-24	1	sequence	fixation	dot	NaN	NaN	NaN	NaN	NaN	NaN	NaN	NaN	NaN	NaN	NaN	NaN
356.89283480000086	0.1155	sub-24	1	sequence	stimulus	Gesicht	NaN	NaN	32.0	NaN	NaN	1.0	1.0	NaN	NaN	NaN	NaN	NaN
357.00831800000014	0.0336	sub-24	1	sequence	interval	dot	NaN	NaN	NaN	NaN	NaN	NaN	NaN	NaN	NaN	NaN	NaN	NaN
357.04189320000023	0.0999	sub-24	1	sequence	stimulus	Haus	NaN	NaN	32.0	NaN	NaN	2.0	2.0	NaN	NaN	NaN	NaN	NaN
357.1417855	0.0334	sub-24	1	sequence	interval	dot	NaN	NaN	NaN	NaN	NaN	NaN	NaN	NaN	NaN	NaN	NaN	NaN
357.175209	0.1	sub-24	1	sequence	stimulus	Stuhl	NaN	NaN	32.0	NaN	NaN	5.0	3.0	NaN	NaN	NaN	NaN	NaN
357.27519140000004	0.0335	sub-24	1	sequence	interval	dot	NaN	NaN	NaN	NaN	NaN	NaN	NaN	NaN	NaN	NaN	NaN	NaN
357.30866010000045	0.1001	sub-24	1	sequence	stimulus	Katze	NaN	NaN	32.0	NaN	NaN	3.0	4.0	NaN	NaN	NaN	NaN	NaN
357.4087298000004	0.0334	sub-24	1	sequence	interval	dot	NaN	NaN	NaN	NaN	NaN	NaN	NaN	NaN	NaN	NaN	NaN	NaN
357.4421538000006	0.1	sub-24	1	sequence	stimulus	Schuh	NaN	NaN	32.0	NaN	NaN	4.0	5.0	NaN	NaN	NaN	NaN	NaN
357.5421511000004	0.0334	sub-24	1	sequence	interval	dot	NaN	NaN	NaN	NaN	NaN	NaN	NaN	NaN	NaN	NaN	NaN	NaN
357.5755489000003	8.5383	sub-24	1	sequence	delay	dot	NaN	NaN	NaN	NaN	NaN	NaN	NaN	NaN	NaN	NaN	NaN	NaN
366.0843774000005	0.8321	sub-24	1	sequence	choice	choice	right	NaN	NaN	0.793697100000827	True	NaN	NaN	right	True	3.0	5.0	5.0
366.9167837000005	0.5001	sub-24	1	sequence	feedback	NaN	NaN	NaN	NaN	NaN	NaN	NaN	NaN	NaN	NaN	NaN	NaN	NaN
367.41713530000015	1.0005	sub-24	1	sequence	cue	Katze	NaN	NaN	NaN	NaN	NaN	NaN	NaN	NaN	NaN	NaN	NaN	NaN
368.4176258000007	2.0017	sub-24	1	sequence	blank	blank	NaN	NaN	NaN	NaN	NaN	NaN	NaN	NaN	NaN	NaN	NaN	NaN
370.4192872000003	0.3003	sub-24	1	sequence	fixation	dot	NaN	NaN	NaN	NaN	NaN	NaN	NaN	NaN	NaN	NaN	NaN	NaN
370.73791340000025	0.1151	sub-24	1	sequence	stimulus	Haus	NaN	NaN	512.0	NaN	NaN	2.0	1.0	NaN	NaN	NaN	NaN	NaN
370.8529971000007	0.5173	sub-24	1	sequence	interval	dot	NaN	NaN	NaN	NaN	NaN	NaN	NaN	NaN	NaN	NaN	NaN	NaN
371.37024830000064	0.1	sub-24	1	sequence	stimulus	Gesicht	NaN	NaN	512.0	NaN	NaN	1.0	2.0	NaN	NaN	NaN	NaN	NaN
371.4702258000007	0.5171	sub-24	1	sequence	interval	dot	NaN	NaN	NaN	NaN	NaN	NaN	NaN	NaN	NaN	NaN	NaN	NaN
371.9873640000005	0.1	sub-24	1	sequence	stimulus	Schuh	NaN	NaN	512.0	NaN	NaN	4.0	3.0	NaN	NaN	NaN	NaN	NaN
372.0873254000008	0.5171	sub-24	1	sequence	interval	dot	NaN	NaN	NaN	NaN	NaN	NaN	NaN	NaN	NaN	NaN	NaN	NaN
372.60438280000017	0.1	sub-24	1	sequence	stimulus	Katze	NaN	NaN	512.0	NaN	NaN	3.0	4.0	NaN	NaN	NaN	NaN	NaN
372.7043848000003	0.5171	sub-24	1	sequence	interval	dot	NaN	NaN	NaN	NaN	NaN	NaN	NaN	NaN	NaN	NaN	NaN	NaN
373.2215210000004	0.1	sub-24	1	sequence	stimulus	Stuhl	NaN	NaN	512.0	NaN	NaN	5.0	5.0	NaN	NaN	NaN	NaN	NaN
373.3215013000008	0.5171	sub-24	1	sequence	interval	dot	NaN	NaN	NaN	NaN	NaN	NaN	NaN	NaN	NaN	NaN	NaN	NaN
373.8385924000004	6.1532	sub-24	1	sequence	delay	dot	NaN	NaN	NaN	NaN	NaN	NaN	NaN	NaN	NaN	NaN	NaN	NaN
379.9679481000003	0.8432	sub-24	1	sequence	choice	choice	right	NaN	NaN	0.8037717000006523	True	NaN	NaN	right	True	5.0	4.0	4.0
380.8114097000007	0.5001	sub-24	1	sequence	feedback	NaN	NaN	NaN	NaN	NaN	NaN	NaN	NaN	NaN	NaN	NaN	NaN	NaN
381.3117005000004	1.0004	sub-24	1	sequence	cue	Katze	NaN	NaN	NaN	NaN	NaN	NaN	NaN	NaN	NaN	NaN	NaN	NaN
382.3121516000001	2.0016	sub-24	1	sequence	blank	blank	NaN	NaN	NaN	NaN	NaN	NaN	NaN	NaN	NaN	NaN	NaN	NaN
384.3137888000001	0.3002	sub-24	1	sequence	fixation	dot	NaN	NaN	NaN	NaN	NaN	NaN	NaN	NaN	NaN	NaN	NaN	NaN
384.6322568000005	0.1152	sub-24	1	sequence	stimulus	Stuhl	NaN	NaN	64.0	NaN	NaN	5.0	1.0	NaN	NaN	NaN	NaN	NaN
384.7474262000005	0.0668	sub-24	1	sequence	interval	dot	NaN	NaN	NaN	NaN	NaN	NaN	NaN	NaN	NaN	NaN	NaN	NaN
384.81426640000063	0.0999	sub-24	1	sequence	stimulus	Haus	NaN	NaN	64.0	NaN	NaN	2.0	2.0	NaN	NaN	NaN	NaN	NaN
384.9142059000005	0.0668	sub-24	1	sequence	interval	dot	NaN	NaN	NaN	NaN	NaN	NaN	NaN	NaN	NaN	NaN	NaN	NaN
384.9810325000008	0.1011	sub-24	1	sequence	stimulus	Katze	NaN	NaN	64.0	NaN	NaN	3.0	3.0	NaN	NaN	NaN	NaN	NaN
385.08215700000073	0.0657	sub-24	1	sequence	interval	dot	NaN	NaN	NaN	NaN	NaN	NaN	NaN	NaN	NaN	NaN	NaN	NaN
385.1478367	0.1	sub-24	1	sequence	stimulus	Schuh	NaN	NaN	64.0	NaN	NaN	4.0	4.0	NaN	NaN	NaN	NaN	NaN
385.2478234	0.067	sub-24	1	sequence	interval	dot	NaN	NaN	NaN	NaN	NaN	NaN	NaN	NaN	NaN	NaN	NaN	NaN
385.3148234	0.0998	sub-24	1	sequence	stimulus	Gesicht	NaN	NaN	64.0	NaN	NaN	1.0	5.0	NaN	NaN	NaN	NaN	NaN
385.4146128000002	0.0667	sub-24	1	sequence	interval	dot	NaN	NaN	NaN	NaN	NaN	NaN	NaN	NaN	NaN	NaN	NaN	NaN
385.4813495000008	8.405	sub-24	1	sequence	delay	dot	NaN	NaN	NaN	NaN	NaN	NaN	NaN	NaN	NaN	NaN	NaN	NaN
393.8518773000005	0.7871	sub-24	1	sequence	choice	choice	left	NaN	NaN	0.74944190000042	True	NaN	NaN	left	True	3.0	4.0	3.0
394.63925800000015	0.5	sub-24	1	sequence	feedback	NaN	NaN	NaN	NaN	NaN	NaN	NaN	NaN	NaN	NaN	NaN	NaN	NaN
395.13934830000017	1.0008	sub-24	1	sequence	cue	Stuhl	NaN	NaN	NaN	NaN	NaN	NaN	NaN	NaN	NaN	NaN	NaN	NaN
396.1401258000005	2.0016	sub-24	1	sequence	blank	blank	NaN	NaN	NaN	NaN	NaN	NaN	NaN	NaN	NaN	NaN	NaN	NaN
398.1416968000003	0.3002	sub-24	1	sequence	fixation	dot	NaN	NaN	NaN	NaN	NaN	NaN	NaN	NaN	NaN	NaN	NaN	NaN
398.4593215000005	0.0993	sub-24	1	sequence	stimulus	Schuh	NaN	NaN	64.0	NaN	NaN	4.0	1.0	NaN	NaN	NaN	NaN	NaN
398.55858380000063	0.0669	sub-24	1	sequence	interval	dot	NaN	NaN	NaN	NaN	NaN	NaN	NaN	NaN	NaN	NaN	NaN	NaN
398.6254537000004	0.0999	sub-24	1	sequence	stimulus	Gesicht	NaN	NaN	64.0	NaN	NaN	1.0	2.0	NaN	NaN	NaN	NaN	NaN
398.7253994000002	0.0668	sub-24	1	sequence	interval	dot	NaN	NaN	NaN	NaN	NaN	NaN	NaN	NaN	NaN	NaN	NaN	NaN
398.79223980000006	0.1	sub-24	1	sequence	stimulus	Katze	NaN	NaN	64.0	NaN	NaN	3.0	3.0	NaN	NaN	NaN	NaN	NaN
398.8922098000003	0.0668	sub-24	1	sequence	interval	dot	NaN	NaN	NaN	NaN	NaN	NaN	NaN	NaN	NaN	NaN	NaN	NaN
398.9590184000008	0.1	sub-24	1	sequence	stimulus	Haus	NaN	NaN	64.0	NaN	NaN	2.0	4.0	NaN	NaN	NaN	NaN	NaN
399.0590084000005	0.0668	sub-24	1	sequence	interval	dot	NaN	NaN	NaN	NaN	NaN	NaN	NaN	NaN	NaN	NaN	NaN	NaN
399.1258276000008	0.1	sub-24	1	sequence	stimulus	Stuhl	NaN	NaN	64.0	NaN	NaN	5.0	5.0	NaN	NaN	NaN	NaN	NaN
399.2258354000005	0.0667	sub-24	1	sequence	interval	dot	NaN	NaN	NaN	NaN	NaN	NaN	NaN	NaN	NaN	NaN	NaN	NaN
399.2925314000004	8.3883	sub-24	1	sequence	delay	dot	NaN	NaN	NaN	NaN	NaN	NaN	NaN	NaN	NaN	NaN	NaN	NaN
407.6573724	0.6594	sub-24	1	sequence	choice	choice	right	NaN	NaN	0.6267247000005227	True	NaN	NaN	right	True	4.0	5.0	5.0
408.3170286000004	0.5001	sub-24	1	sequence	feedback	NaN	NaN	NaN	NaN	NaN	NaN	NaN	NaN	NaN	NaN	NaN	NaN	NaN
408.8173286000001	1.0005	sub-24	1	sequence	cue	Katze	NaN	NaN	NaN	NaN	NaN	NaN	NaN	NaN	NaN	NaN	NaN	NaN
409.81783540000015	2.0017	sub-24	1	sequence	blank	blank	NaN	NaN	NaN	NaN	NaN	NaN	NaN	NaN	NaN	NaN	NaN	NaN
411.81954380000025	0.3002	sub-24	1	sequence	fixation	dot	NaN	NaN	NaN	NaN	NaN	NaN	NaN	NaN	NaN	NaN	NaN	NaN
412.1389175000004	0.1142	sub-24	1	sequence	stimulus	Schuh	NaN	NaN	32.0	NaN	NaN	4.0	1.0	NaN	NaN	NaN	NaN	NaN
412.25312870000016	0.0335	sub-24	1	sequence	interval	dot	NaN	NaN	NaN	NaN	NaN	NaN	NaN	NaN	NaN	NaN	NaN	NaN
412.2865816000003	0.1	sub-24	1	sequence	stimulus	Gesicht	NaN	NaN	32.0	NaN	NaN	1.0	2.0	NaN	NaN	NaN	NaN	NaN
412.3865320000005	0.0335	sub-24	1	sequence	interval	dot	NaN	NaN	NaN	NaN	NaN	NaN	NaN	NaN	NaN	NaN	NaN	NaN
412.4200426000007	0.1	sub-24	1	sequence	stimulus	Haus	NaN	NaN	32.0	NaN	NaN	2.0	3.0	NaN	NaN	NaN	NaN	NaN
412.5199980000007	0.0335	sub-24	1	sequence	interval	dot	NaN	NaN	NaN	NaN	NaN	NaN	NaN	NaN	NaN	NaN	NaN	NaN
412.5535039000006	0.1	sub-24	1	sequence	stimulus	Katze	NaN	NaN	32.0	NaN	NaN	3.0	4.0	NaN	NaN	NaN	NaN	NaN
412.6534767000003	0.0334	sub-24	1	sequence	interval	dot	NaN	NaN	NaN	NaN	NaN	NaN	NaN	NaN	NaN	NaN	NaN	NaN
412.6869193000002	0.1	sub-24	1	sequence	stimulus	Stuhl	NaN	NaN	32.0	NaN	NaN	5.0	5.0	NaN	NaN	NaN	NaN	NaN
412.7869493000008	0.0333	sub-24	1	sequence	interval	dot	NaN	NaN	NaN	NaN	NaN	NaN	NaN	NaN	NaN	NaN	NaN	NaN
412.82028940000055	8.5383	sub-24	1	sequence	delay	dot	NaN	NaN	NaN	NaN	NaN	NaN	NaN	NaN	NaN	NaN	NaN	NaN
421.3332390000005	0.7113	sub-24	1	sequence	choice	choice	left	NaN	NaN	0.6691192999996929	True	NaN	NaN	left	True	4.0	5.0	4.0
422.0447750000003	0.5001	sub-24	1	sequence	feedback	NaN	NaN	NaN	NaN	NaN	NaN	NaN	NaN	NaN	NaN	NaN	NaN	NaN
422.5452825000002	15.9291	sub-24	1	other	break	break	NaN	NaN	NaN	NaN	NaN	NaN	NaN	NaN	NaN	NaN	NaN	NaN
442.294793	0.4996	sub-24	1	localizer	stimulus	Schuh	NaN	0	3.252569000000335	NaN	True	NaN	NaN	NaN	NaN	NaN	NaN	NaN
442.7944358000004	3.2526	sub-24	1	localizer	blank	interval	NaN	NaN	NaN	NaN	NaN	NaN	NaN	NaN	NaN	NaN	NaN	NaN
446.3481048000003	0.4996	sub-24	1	localizer	stimulus	Stuhl	NaN	180	2.418634799999438	0.575315999999475	True	NaN	NaN	NaN	NaN	NaN	NaN	NaN
446.8310843000008	2.4186	sub-24	1	localizer	blank	interval	NaN	NaN	NaN	NaN	NaN	NaN	NaN	NaN	NaN	NaN	NaN	NaN
449.5506867000004	0.4996	sub-24	1	localizer	stimulus	Stuhl	NaN	0	2.5521260000004986	NaN	True	NaN	NaN	NaN	NaN	NaN	NaN	NaN
450.0336771000002	2.5521	sub-24	1	localizer	blank	interval	NaN	NaN	NaN	NaN	NaN	NaN	NaN	NaN	NaN	NaN	NaN	NaN
452.8867870000004	0.4996	sub-24	1	localizer	stimulus	Schuh	NaN	0	2.485252500000513	NaN	True	NaN	NaN	NaN	NaN	NaN	NaN	NaN
453.3698523000003	2.4853	sub-24	1	localizer	blank	interval	NaN	NaN	NaN	NaN	NaN	NaN	NaN	NaN	NaN	NaN	NaN	NaN
456.1560863000004	0.4997	sub-24	1	localizer	stimulus	Gesicht	NaN	0	2.4185154999995575	NaN	True	NaN	NaN	NaN	NaN	NaN	NaN	NaN
456.6390132000006	2.4185	sub-24	1	localizer	blank	interval	NaN	NaN	NaN	NaN	NaN	NaN	NaN	NaN	NaN	NaN	NaN	NaN
459.3586309000002	0.4995	sub-24	1	localizer	stimulus	Haus	NaN	0	2.3016968000001725	NaN	True	NaN	NaN	NaN	NaN	NaN	NaN	NaN
459.8416657000007	2.3017	sub-24	1	localizer	blank	interval	NaN	NaN	NaN	NaN	NaN	NaN	NaN	NaN	NaN	NaN	NaN	NaN
462.44446080000034	0.4995	sub-24	1	localizer	stimulus	Gesicht	NaN	0	2.5185876999994434	NaN	True	NaN	NaN	NaN	NaN	NaN	NaN	NaN
462.9274361000007	2.5186	sub-24	1	localizer	blank	interval	NaN	NaN	NaN	NaN	NaN	NaN	NaN	NaN	NaN	NaN	NaN	NaN
465.7471051000002	0.4995	sub-24	1	localizer	stimulus	Schuh	NaN	0	2.401940200000354	NaN	True	NaN	NaN	NaN	NaN	NaN	NaN	NaN
466.2301212000002	2.4019	sub-24	1	localizer	blank	interval	NaN	NaN	NaN	NaN	NaN	NaN	NaN	NaN	NaN	NaN	NaN	NaN
468.93305210000017	0.4995	sub-24	1	localizer	stimulus	Haus	NaN	0	2.48522829999996	NaN	True	NaN	NaN	NaN	NaN	NaN	NaN	NaN
469.4160269000004	2.4852	sub-24	1	localizer	blank	interval	NaN	NaN	NaN	NaN	NaN	NaN	NaN	NaN	NaN	NaN	NaN	NaN
472.2024314	0.4995	sub-24	1	localizer	stimulus	Katze	NaN	0	2.6021019000000365	NaN	True	NaN	NaN	NaN	NaN	NaN	NaN	NaN
472.6853423000002	2.6021	sub-24	1	localizer	blank	interval	NaN	NaN	NaN	NaN	NaN	NaN	NaN	NaN	NaN	NaN	NaN	NaN
475.5886167000008	0.4996	sub-24	1	localizer	stimulus	Gesicht	NaN	0	1.6677109999990876	NaN	True	NaN	NaN	NaN	NaN	NaN	NaN	NaN
476.0716008000009	1.6677	sub-24	1	localizer	blank	interval	NaN	NaN	NaN	NaN	NaN	NaN	NaN	NaN	NaN	NaN	NaN	NaN
478.0403865000008	0.4996	sub-24	1	localizer	stimulus	Gesicht	NaN	0	2.5519641000000775	NaN	True	NaN	NaN	NaN	NaN	NaN	NaN	NaN
478.5233954000005	2.552	sub-24	1	localizer	blank	interval	NaN	NaN	NaN	NaN	NaN	NaN	NaN	NaN	NaN	NaN	NaN	NaN
481.3764374000002	0.4995	sub-24	1	localizer	stimulus	Katze	NaN	0	2.4018346000002566	NaN	True	NaN	NaN	NaN	NaN	NaN	NaN	NaN
481.8594374000004	2.4018	sub-24	1	localizer	blank	interval	NaN	NaN	NaN	NaN	NaN	NaN	NaN	NaN	NaN	NaN	NaN	NaN
484.5623419000003	0.4997	sub-24	1	localizer	stimulus	Stuhl	NaN	0	2.9521312999995075	NaN	True	NaN	NaN	NaN	NaN	NaN	NaN	NaN
485.0454633000009	2.9521	sub-24	1	localizer	blank	interval	NaN	NaN	NaN	NaN	NaN	NaN	NaN	NaN	NaN	NaN	NaN	NaN
488.2987247000001	0.4995	sub-24	1	localizer	stimulus	Haus	NaN	180	2.71871899999951	0.5766902000004848	True	NaN	NaN	NaN	NaN	NaN	NaN	NaN
488.7817220000006	2.7187	sub-24	1	localizer	blank	interval	NaN	NaN	NaN	NaN	NaN	NaN	NaN	NaN	NaN	NaN	NaN	NaN
491.80153530000007	0.4996	sub-24	1	localizer	stimulus	Stuhl	NaN	0	2.0350285999993503	NaN	True	NaN	NaN	NaN	NaN	NaN	NaN	NaN
492.2845061000007	2.035	sub-24	1	localizer	blank	interval	NaN	NaN	NaN	NaN	NaN	NaN	NaN	NaN	NaN	NaN	NaN	NaN
494.62057600000026	0.4996	sub-24	1	localizer	stimulus	Gesicht	NaN	180	2.802124499999991	0.5829824000002191	True	NaN	NaN	NaN	NaN	NaN	NaN	NaN
495.1037764000002	2.8021	sub-24	1	localizer	blank	interval	NaN	NaN	NaN	NaN	NaN	NaN	NaN	NaN	NaN	NaN	NaN	NaN
498.2067041	0.4996	sub-24	1	localizer	stimulus	Stuhl	NaN	0	2.8021559999997407	NaN	True	NaN	NaN	NaN	NaN	NaN	NaN	NaN
498.6898084000004	2.8022	sub-24	1	localizer	blank	interval	NaN	NaN	NaN	NaN	NaN	NaN	NaN	NaN	NaN	NaN	NaN	NaN
501.79293920000055	0.4997	sub-24	1	localizer	stimulus	Katze	NaN	0	1.9513554999994085	NaN	True	NaN	NaN	NaN	NaN	NaN	NaN	NaN
502.2760743000008	1.9514	sub-24	1	localizer	blank	interval	NaN	NaN	NaN	NaN	NaN	NaN	NaN	NaN	NaN	NaN	NaN	NaN
504.5285086000004	0.4996	sub-24	1	localizer	stimulus	Katze	NaN	180	2.9189321000002906	0.5789338999993561	True	NaN	NaN	NaN	NaN	NaN	NaN	NaN
505.0114890000005	2.9189	sub-24	1	localizer	blank	interval	NaN	NaN	NaN	NaN	NaN	NaN	NaN	NaN	NaN	NaN	NaN	NaN
508.2314877000008	0.4996	sub-24	1	localizer	stimulus	Schuh	NaN	0	2.3019303999999465	NaN	True	NaN	NaN	NaN	NaN	NaN	NaN	NaN
508.7144594000001	2.3019	sub-24	1	localizer	blank	interval	NaN	NaN	NaN	NaN	NaN	NaN	NaN	NaN	NaN	NaN	NaN	NaN
511.3173011000008	0.4996	sub-24	1	localizer	stimulus	Schuh	NaN	180	2.735316799999964	0.5581169999995836	True	NaN	NaN	NaN	NaN	NaN	NaN	NaN
511.8004445000006	2.7353	sub-24	1	localizer	blank	interval	NaN	NaN	NaN	NaN	NaN	NaN	NaN	NaN	NaN	NaN	NaN	NaN
514.8369941000001	0.4996	sub-24	1	localizer	stimulus	Katze	NaN	0	1.9179715000000215	NaN	True	NaN	NaN	NaN	NaN	NaN	NaN	NaN
515.3200794000004	1.918	sub-24	1	localizer	blank	interval	NaN	NaN	NaN	NaN	NaN	NaN	NaN	NaN	NaN	NaN	NaN	NaN
517.5392253	0.4996	sub-24	1	localizer	stimulus	Haus	NaN	0	2.5516726999994717	NaN	True	NaN	NaN	NaN	NaN	NaN	NaN	NaN
518.0223434000009	2.5517	sub-24	1	localizer	blank	interval	NaN	NaN	NaN	NaN	NaN	NaN	NaN	NaN	NaN	NaN	NaN	NaN
520.8750803000003	0.4996	sub-24	1	localizer	stimulus	Haus	NaN	0	2.885733500000242	NaN	True	NaN	NaN	NaN	NaN	NaN	NaN	NaN
521.3580624000006	2.8857	sub-24	1	localizer	blank	interval	NaN	NaN	NaN	NaN	NaN	NaN	NaN	NaN	NaN	NaN	NaN	NaN
527.7301916000006	1.0004	sub-24	1	sequence	cue	Katze	NaN	NaN	NaN	NaN	NaN	NaN	NaN	NaN	NaN	NaN	NaN	NaN
528.7306272000005	2.0017	sub-24	1	sequence	blank	blank	NaN	NaN	NaN	NaN	NaN	NaN	NaN	NaN	NaN	NaN	NaN	NaN
530.7323756000005	0.3002	sub-24	1	sequence	fixation	dot	NaN	NaN	NaN	NaN	NaN	NaN	NaN	NaN	NaN	NaN	NaN	NaN
531.0508105000008	0.1152	sub-24	1	sequence	stimulus	Haus	NaN	NaN	512.0	NaN	NaN	2.0	1.0	NaN	NaN	NaN	NaN	NaN
531.1659964	0.5171	sub-24	1	sequence	interval	dot	NaN	NaN	NaN	NaN	NaN	NaN	NaN	NaN	NaN	NaN	NaN	NaN
531.6831141000002	0.1	sub-24	1	sequence	stimulus	Gesicht	NaN	NaN	512.0	NaN	NaN	1.0	2.0	NaN	NaN	NaN	NaN	NaN
531.7831416000008	0.5171	sub-24	1	sequence	interval	dot	NaN	NaN	NaN	NaN	NaN	NaN	NaN	NaN	NaN	NaN	NaN	NaN
532.3002318000008	0.1	sub-24	1	sequence	stimulus	Schuh	NaN	NaN	512.0	NaN	NaN	4.0	3.0	NaN	NaN	NaN	NaN	NaN
532.4002041000003	0.5173	sub-24	1	sequence	interval	dot	NaN	NaN	NaN	NaN	NaN	NaN	NaN	NaN	NaN	NaN	NaN	NaN
532.9174685000007	0.1	sub-24	1	sequence	stimulus	Katze	NaN	NaN	512.0	NaN	NaN	3.0	4.0	NaN	NaN	NaN	NaN	NaN
533.0175045000005	0.5171	sub-24	1	sequence	interval	dot	NaN	NaN	NaN	NaN	NaN	NaN	NaN	NaN	NaN	NaN	NaN	NaN
533.5345581000001	0.1	sub-24	1	sequence	stimulus	Stuhl	NaN	NaN	512.0	NaN	NaN	5.0	5.0	NaN	NaN	NaN	NaN	NaN
533.6345089000006	0.5171	sub-24	1	sequence	interval	dot	NaN	NaN	NaN	NaN	NaN	NaN	NaN	NaN	NaN	NaN	NaN	NaN
534.1516444000008	6.1532	sub-24	1	sequence	delay	dot	NaN	NaN	NaN	NaN	NaN	NaN	NaN	NaN	NaN	NaN	NaN	NaN
540.2805013000007	0.8104	sub-24	1	sequence	choice	choice	left	NaN	NaN	0.7707901999992828	True	NaN	NaN	left	True	4.0	5.0	4.0
541.0912580000004	0.4997	sub-24	1	sequence	feedback	NaN	NaN	NaN	NaN	NaN	NaN	NaN	NaN	NaN	NaN	NaN	NaN	NaN
541.5911492000005	1.0007	sub-24	1	sequence	cue	Gesicht	NaN	NaN	NaN	NaN	NaN	NaN	NaN	NaN	NaN	NaN	NaN	NaN
542.5918192000008	2.0016	sub-24	1	sequence	blank	blank	NaN	NaN	NaN	NaN	NaN	NaN	NaN	NaN	NaN	NaN	NaN	NaN
544.5934354000001	0.3002	sub-24	1	sequence	fixation	dot	NaN	NaN	NaN	NaN	NaN	NaN	NaN	NaN	NaN	NaN	NaN	NaN
544.9119468000008	0.1153	sub-24	1	sequence	stimulus	Stuhl	NaN	NaN	64.0	NaN	NaN	5.0	1.0	NaN	NaN	NaN	NaN	NaN
545.0272835000005	0.0668	sub-24	1	sequence	interval	dot	NaN	NaN	NaN	NaN	NaN	NaN	NaN	NaN	NaN	NaN	NaN	NaN
545.0940394000008	0.1	sub-24	1	sequence	stimulus	Haus	NaN	NaN	64.0	NaN	NaN	2.0	2.0	NaN	NaN	NaN	NaN	NaN
545.1940007000003	0.0667	sub-24	1	sequence	interval	dot	NaN	NaN	NaN	NaN	NaN	NaN	NaN	NaN	NaN	NaN	NaN	NaN
545.2607469000004	0.1	sub-24	1	sequence	stimulus	Katze	NaN	NaN	64.0	NaN	NaN	3.0	3.0	NaN	NaN	NaN	NaN	NaN
545.3607250000005	0.0668	sub-24	1	sequence	interval	dot	NaN	NaN	NaN	NaN	NaN	NaN	NaN	NaN	NaN	NaN	NaN	NaN
545.4275258000007	0.1	sub-24	1	sequence	stimulus	Schuh	NaN	NaN	64.0	NaN	NaN	4.0	4.0	NaN	NaN	NaN	NaN	NaN
545.5274971000008	0.0669	sub-24	1	sequence	interval	dot	NaN	NaN	NaN	NaN	NaN	NaN	NaN	NaN	NaN	NaN	NaN	NaN
545.5943715000003	0.0999	sub-24	1	sequence	stimulus	Gesicht	NaN	NaN	64.0	NaN	NaN	1.0	5.0	NaN	NaN	NaN	NaN	NaN
545.6942930000005	0.0667	sub-24	1	sequence	interval	dot	NaN	NaN	NaN	NaN	NaN	NaN	NaN	NaN	NaN	NaN	NaN	NaN
545.7610405000005	8.3716	sub-24	1	sequence	delay	dot	NaN	NaN	NaN	NaN	NaN	NaN	NaN	NaN	NaN	NaN	NaN	NaN
554.1123286000002	0.8231	sub-24	1	sequence	choice	choice	right	NaN	NaN	0.7989440999999715	True	NaN	NaN	right	True	2.0	5.0	5.0
554.9357336000003	0.5001	sub-24	1	sequence	feedback	NaN	NaN	NaN	NaN	NaN	NaN	NaN	NaN	NaN	NaN	NaN	NaN	NaN
555.4360016	1.0003	sub-24	1	sequence	cue	Haus	NaN	NaN	NaN	NaN	NaN	NaN	NaN	NaN	NaN	NaN	NaN	NaN
556.436342	2.0019	sub-24	1	sequence	blank	blank	NaN	NaN	NaN	NaN	NaN	NaN	NaN	NaN	NaN	NaN	NaN	NaN
558.4382104000006	0.298	sub-24	1	sequence	fixation	dot	NaN	NaN	NaN	NaN	NaN	NaN	NaN	NaN	NaN	NaN	NaN	NaN
558.7557578000005	0.0993	sub-24	1	sequence	stimulus	Schuh	NaN	NaN	64.0	NaN	NaN	4.0	1.0	NaN	NaN	NaN	NaN	NaN
558.8550675000006	0.0669	sub-24	1	sequence	interval	dot	NaN	NaN	NaN	NaN	NaN	NaN	NaN	NaN	NaN	NaN	NaN	NaN
558.9219343000004	0.0999	sub-24	1	sequence	stimulus	Gesicht	NaN	NaN	64.0	NaN	NaN	1.0	2.0	NaN	NaN	NaN	NaN	NaN
559.0218593000009	0.0669	sub-24	1	sequence	interval	dot	NaN	NaN	NaN	NaN	NaN	NaN	NaN	NaN	NaN	NaN	NaN	NaN
559.0887136000001	0.1001	sub-24	1	sequence	stimulus	Katze	NaN	NaN	64.0	NaN	NaN	3.0	3.0	NaN	NaN	NaN	NaN	NaN
559.1887853000007	0.0668	sub-24	1	sequence	interval	dot	NaN	NaN	NaN	NaN	NaN	NaN	NaN	NaN	NaN	NaN	NaN	NaN
559.2555443000001	0.1	sub-24	1	sequence	stimulus	Haus	NaN	NaN	64.0	NaN	NaN	2.0	4.0	NaN	NaN	NaN	NaN	NaN
559.3554955000009	0.0668	sub-24	1	sequence	interval	dot	NaN	NaN	NaN	NaN	NaN	NaN	NaN	NaN	NaN	NaN	NaN	NaN
559.4223381000002	0.1	sub-24	1	sequence	stimulus	Stuhl	NaN	NaN	64.0	NaN	NaN	5.0	5.0	NaN	NaN	NaN	NaN	NaN
559.5223006000006	0.0667	sub-24	1	sequence	interval	dot	NaN	NaN	NaN	NaN	NaN	NaN	NaN	NaN	NaN	NaN	NaN	NaN
559.5890358000006	8.3882	sub-24	1	sequence	delay	dot	NaN	NaN	NaN	NaN	NaN	NaN	NaN	NaN	NaN	NaN	NaN	NaN
567.9440086000004	0.7358	sub-24	1	sequence	choice	choice	left	NaN	NaN	0.6982746000003317	True	NaN	NaN	left	True	4.0	3.0	4.0
568.6800275000005	0.5	sub-24	1	sequence	feedback	NaN	NaN	NaN	NaN	NaN	NaN	NaN	NaN	NaN	NaN	NaN	NaN	NaN
569.1802652000006	1.0006	sub-24	1	sequence	cue	Schuh	NaN	NaN	NaN	NaN	NaN	NaN	NaN	NaN	NaN	NaN	NaN	NaN
570.1808502000004	2.0016	sub-24	1	sequence	blank	blank	NaN	NaN	NaN	NaN	NaN	NaN	NaN	NaN	NaN	NaN	NaN	NaN
572.1824238000008	0.3004	sub-24	1	sequence	fixation	dot	NaN	NaN	NaN	NaN	NaN	NaN	NaN	NaN	NaN	NaN	NaN	NaN
572.5002608000004	0.0992	sub-24	1	sequence	stimulus	Stuhl	NaN	NaN	128.0	NaN	NaN	5.0	1.0	NaN	NaN	NaN	NaN	NaN
572.5994135000001	0.1336	sub-24	1	sequence	interval	dot	NaN	NaN	NaN	NaN	NaN	NaN	NaN	NaN	NaN	NaN	NaN	NaN
572.7329879000008	0.0999	sub-24	1	sequence	stimulus	Haus	NaN	NaN	128.0	NaN	NaN	2.0	2.0	NaN	NaN	NaN	NaN	NaN
572.8329237000007	0.1336	sub-24	1	sequence	interval	dot	NaN	NaN	NaN	NaN	NaN	NaN	NaN	NaN	NaN	NaN	NaN	NaN
572.9665080000004	0.1	sub-24	1	sequence	stimulus	Schuh	NaN	NaN	128.0	NaN	NaN	4.0	3.0	NaN	NaN	NaN	NaN	NaN
573.0664859000008	0.1335	sub-24	1	sequence	interval	dot	NaN	NaN	NaN	NaN	NaN	NaN	NaN	NaN	NaN	NaN	NaN	NaN
573.2000308000006	0.1	sub-24	1	sequence	stimulus	Katze	NaN	NaN	128.0	NaN	NaN	3.0	4.0	NaN	NaN	NaN	NaN	NaN
573.2999834000002	0.1337	sub-24	1	sequence	interval	dot	NaN	NaN	NaN	NaN	NaN	NaN	NaN	NaN	NaN	NaN	NaN	NaN
573.4336511000001	0.0998	sub-24	1	sequence	stimulus	Gesicht	NaN	NaN	128.0	NaN	NaN	1.0	5.0	NaN	NaN	NaN	NaN	NaN
573.5334933000004	0.1335	sub-24	1	sequence	interval	dot	NaN	NaN	NaN	NaN	NaN	NaN	NaN	NaN	NaN	NaN	NaN	NaN
573.6669759000006	8.0714	sub-24	1	sequence	delay	dot	NaN	NaN	NaN	NaN	NaN	NaN	NaN	NaN	NaN	NaN	NaN	NaN
581.7235140000003	0.7674	sub-24	1	sequence	choice	choice	left	NaN	NaN	0.7371966999999131	True	NaN	NaN	left	True	3.0	4.0	3.0
582.4912042000005	0.5	sub-24	1	sequence	feedback	NaN	NaN	NaN	NaN	NaN	NaN	NaN	NaN	NaN	NaN	NaN	NaN	NaN
582.9913768000006	1.0006	sub-24	1	sequence	cue	Katze	NaN	NaN	NaN	NaN	NaN	NaN	NaN	NaN	NaN	NaN	NaN	NaN
583.9920056000001	2.0016	sub-24	1	sequence	blank	blank	NaN	NaN	NaN	NaN	NaN	NaN	NaN	NaN	NaN	NaN	NaN	NaN
585.9936409000002	0.3003	sub-24	1	sequence	fixation	dot	NaN	NaN	NaN	NaN	NaN	NaN	NaN	NaN	NaN	NaN	NaN	NaN
586.3121368000002	0.1151	sub-24	1	sequence	stimulus	Gesicht	NaN	NaN	32.0	NaN	NaN	1.0	1.0	NaN	NaN	NaN	NaN	NaN
586.4272536000008	0.0335	sub-24	1	sequence	interval	dot	NaN	NaN	NaN	NaN	NaN	NaN	NaN	NaN	NaN	NaN	NaN	NaN
586.4607450000003	0.1	sub-24	1	sequence	stimulus	Haus	NaN	NaN	32.0	NaN	NaN	2.0	2.0	NaN	NaN	NaN	NaN	NaN
586.5607074000009	0.0335	sub-24	1	sequence	interval	dot	NaN	NaN	NaN	NaN	NaN	NaN	NaN	NaN	NaN	NaN	NaN	NaN
586.5941708	0.1	sub-24	1	sequence	stimulus	Stuhl	NaN	NaN	32.0	NaN	NaN	5.0	3.0	NaN	NaN	NaN	NaN	NaN
586.6941400000005	0.0335	sub-24	1	sequence	interval	dot	NaN	NaN	NaN	NaN	NaN	NaN	NaN	NaN	NaN	NaN	NaN	NaN
586.7276095000007	0.1	sub-24	1	sequence	stimulus	Katze	NaN	NaN	32.0	NaN	NaN	3.0	4.0	NaN	NaN	NaN	NaN	NaN
586.8276079000007	0.0334	sub-24	1	sequence	interval	dot	NaN	NaN	NaN	NaN	NaN	NaN	NaN	NaN	NaN	NaN	NaN	NaN
586.8610379000002	0.1	sub-24	1	sequence	stimulus	Schuh	NaN	NaN	32.0	NaN	NaN	4.0	5.0	NaN	NaN	NaN	NaN	NaN
586.9610500000008	0.0335	sub-24	1	sequence	interval	dot	NaN	NaN	NaN	NaN	NaN	NaN	NaN	NaN	NaN	NaN	NaN	NaN
586.9945054	8.5216	sub-24	1	sequence	delay	dot	NaN	NaN	NaN	NaN	NaN	NaN	NaN	NaN	NaN	NaN	NaN	NaN
595.5032836	0.9991	sub-24	1	sequence	choice	choice	right	NaN	NaN	0.9835807999997996	True	NaN	NaN	right	True	5.0	4.0	4.0
596.5026386000009	0.4999	sub-24	1	sequence	feedback	NaN	NaN	NaN	NaN	NaN	NaN	NaN	NaN	NaN	NaN	NaN	NaN	NaN
597.0027097000002	1.0007	sub-24	1	sequence	cue	Haus	NaN	NaN	NaN	NaN	NaN	NaN	NaN	NaN	NaN	NaN	NaN	NaN
598.0034619000007	2.0016	sub-24	1	sequence	blank	blank	NaN	NaN	NaN	NaN	NaN	NaN	NaN	NaN	NaN	NaN	NaN	NaN
600.0051026000001	0.3002	sub-24	1	sequence	fixation	dot	NaN	NaN	NaN	NaN	NaN	NaN	NaN	NaN	NaN	NaN	NaN	NaN
600.3226683000003	0.0994	sub-24	1	sequence	stimulus	Stuhl	NaN	NaN	512.0	NaN	NaN	5.0	1.0	NaN	NaN	NaN	NaN	NaN
600.4220449000004	0.5172	sub-24	1	sequence	interval	dot	NaN	NaN	NaN	NaN	NaN	NaN	NaN	NaN	NaN	NaN	NaN	NaN
600.9392471000001	0.1	sub-24	1	sequence	stimulus	Haus	NaN	NaN	512.0	NaN	NaN	2.0	2.0	NaN	NaN	NaN	NaN	NaN
601.0391973000005	0.5173	sub-24	1	sequence	interval	dot	NaN	NaN	NaN	NaN	NaN	NaN	NaN	NaN	NaN	NaN	NaN	NaN
601.5564548000002	0.1	sub-24	1	sequence	stimulus	Gesicht	NaN	NaN	512.0	NaN	NaN	1.0	3.0	NaN	NaN	NaN	NaN	NaN
601.6564326000007	0.5173	sub-24	1	sequence	interval	dot	NaN	NaN	NaN	NaN	NaN	NaN	NaN	NaN	NaN	NaN	NaN	NaN
602.1737611000008	0.0999	sub-24	1	sequence	stimulus	Katze	NaN	NaN	512.0	NaN	NaN	3.0	4.0	NaN	NaN	NaN	NaN	NaN
602.2736257000006	0.5171	sub-24	1	sequence	interval	dot	NaN	NaN	NaN	NaN	NaN	NaN	NaN	NaN	NaN	NaN	NaN	NaN
602.7907096000008	0.1	sub-24	1	sequence	stimulus	Schuh	NaN	NaN	512.0	NaN	NaN	4.0	5.0	NaN	NaN	NaN	NaN	NaN
602.8906986000002	0.5171	sub-24	1	sequence	interval	dot	NaN	NaN	NaN	NaN	NaN	NaN	NaN	NaN	NaN	NaN	NaN	NaN
603.4077777000002	6.153	sub-24	1	sequence	delay	dot	NaN	NaN	NaN	NaN	NaN	NaN	NaN	NaN	NaN	NaN	NaN	NaN
609.5431315000005	0.8204	sub-24	1	sequence	choice	choice	left	NaN	NaN	0.7868693999998868	True	NaN	NaN	left	True	2.0	3.0	2.0
610.3637668000001	0.5001	sub-24	1	sequence	feedback	NaN	NaN	NaN	NaN	NaN	NaN	NaN	NaN	NaN	NaN	NaN	NaN	NaN
610.8640247000003	1.0005	sub-24	1	sequence	cue	Schuh	NaN	NaN	NaN	NaN	NaN	NaN	NaN	NaN	NaN	NaN	NaN	NaN
611.8645564000008	2.0017	sub-24	1	sequence	blank	blank	NaN	NaN	NaN	NaN	NaN	NaN	NaN	NaN	NaN	NaN	NaN	NaN
613.8662976000005	0.3003	sub-24	1	sequence	fixation	dot	NaN	NaN	NaN	NaN	NaN	NaN	NaN	NaN	NaN	NaN	NaN	NaN
614.1848295	0.115	sub-24	1	sequence	stimulus	Schuh	NaN	NaN	32.0	NaN	NaN	4.0	1.0	NaN	NaN	NaN	NaN	NaN
614.2998075000005	0.0335	sub-24	1	sequence	interval	dot	NaN	NaN	NaN	NaN	NaN	NaN	NaN	NaN	NaN	NaN	NaN	NaN
614.3332884000001	0.1	sub-24	1	sequence	stimulus	Gesicht	NaN	NaN	32.0	NaN	NaN	1.0	2.0	NaN	NaN	NaN	NaN	NaN
614.4332641000001	0.0335	sub-24	1	sequence	interval	dot	NaN	NaN	NaN	NaN	NaN	NaN	NaN	NaN	NaN	NaN	NaN	NaN
614.4667434000003	0.1	sub-24	1	sequence	stimulus	Haus	NaN	NaN	32.0	NaN	NaN	2.0	3.0	NaN	NaN	NaN	NaN	NaN
614.5666968000005	0.0335	sub-24	1	sequence	interval	dot	NaN	NaN	NaN	NaN	NaN	NaN	NaN	NaN	NaN	NaN	NaN	NaN
614.6001656000008	0.1	sub-24	1	sequence	stimulus	Katze	NaN	NaN	32.0	NaN	NaN	3.0	4.0	NaN	NaN	NaN	NaN	NaN
614.7001332	0.0335	sub-24	1	sequence	interval	dot	NaN	NaN	NaN	NaN	NaN	NaN	NaN	NaN	NaN	NaN	NaN	NaN
614.7336032000003	0.1	sub-24	1	sequence	stimulus	Stuhl	NaN	NaN	32.0	NaN	NaN	5.0	5.0	NaN	NaN	NaN	NaN	NaN
614.8335868000004	0.0334	sub-24	1	sequence	interval	dot	NaN	NaN	NaN	NaN	NaN	NaN	NaN	NaN	NaN	NaN	NaN	NaN
614.8670101000007	8.5217	sub-24	1	sequence	delay	dot	NaN	NaN	NaN	NaN	NaN	NaN	NaN	NaN	NaN	NaN	NaN	NaN
623.3747194000007	0.8	sub-24	1	sequence	choice	choice	right	NaN	NaN	0.7831334000002244	True	NaN	NaN	right	True	3.0	1.0	1.0
624.1750135000002	0.5001	sub-24	1	sequence	feedback	NaN	NaN	NaN	NaN	NaN	NaN	NaN	NaN	NaN	NaN	NaN	NaN	NaN
624.6752944	1.0004	sub-24	1	sequence	cue	Gesicht	NaN	NaN	NaN	NaN	NaN	NaN	NaN	NaN	NaN	NaN	NaN	NaN
625.6757295000007	2.0016	sub-24	1	sequence	blank	blank	NaN	NaN	NaN	NaN	NaN	NaN	NaN	NaN	NaN	NaN	NaN	NaN
627.6773580000008	0.3003	sub-24	1	sequence	fixation	dot	NaN	NaN	NaN	NaN	NaN	NaN	NaN	NaN	NaN	NaN	NaN	NaN
627.9958414000002	0.1152	sub-24	1	sequence	stimulus	Katze	NaN	NaN	128.0	NaN	NaN	3.0	1.0	NaN	NaN	NaN	NaN	NaN
628.1110165	0.1335	sub-24	1	sequence	interval	dot	NaN	NaN	NaN	NaN	NaN	NaN	NaN	NaN	NaN	NaN	NaN	NaN
628.2445500000003	0.1	sub-24	1	sequence	stimulus	Haus	NaN	NaN	128.0	NaN	NaN	2.0	2.0	NaN	NaN	NaN	NaN	NaN
628.3445151000005	0.1336	sub-24	1	sequence	interval	dot	NaN	NaN	NaN	NaN	NaN	NaN	NaN	NaN	NaN	NaN	NaN	NaN
628.4780667000005	0.1	sub-24	1	sequence	stimulus	Schuh	NaN	NaN	128.0	NaN	NaN	4.0	3.0	NaN	NaN	NaN	NaN	NaN
628.5780405000005	0.1336	sub-24	1	sequence	interval	dot	NaN	NaN	NaN	NaN	NaN	NaN	NaN	NaN	NaN	NaN	NaN	NaN
628.7115913000007	0.1	sub-24	1	sequence	stimulus	Stuhl	NaN	NaN	128.0	NaN	NaN	5.0	4.0	NaN	NaN	NaN	NaN	NaN
628.8115426000004	0.1336	sub-24	1	sequence	interval	dot	NaN	NaN	NaN	NaN	NaN	NaN	NaN	NaN	NaN	NaN	NaN	NaN
628.9451175000004	0.1	sub-24	1	sequence	stimulus	Gesicht	NaN	NaN	128.0	NaN	NaN	1.0	5.0	NaN	NaN	NaN	NaN	NaN
629.0450782000007	0.1334	sub-24	1	sequence	interval	dot	NaN	NaN	NaN	NaN	NaN	NaN	NaN	NaN	NaN	NaN	NaN	NaN
629.1785237000004	8.0715	sub-24	1	sequence	delay	dot	NaN	NaN	NaN	NaN	NaN	NaN	NaN	NaN	NaN	NaN	NaN	NaN
637.2323908000008	0.7201	sub-24	1	sequence	choice	choice	right	NaN	NaN	0.689592800000355	True	NaN	NaN	right	True	2.0	5.0	5.0
637.9527914	0.5	sub-24	1	sequence	feedback	NaN	NaN	NaN	NaN	NaN	NaN	NaN	NaN	NaN	NaN	NaN	NaN	NaN
642.2733261000003	0.4997	sub-24	1	localizer	stimulus	Stuhl	NaN	0	2.7352242999995724	NaN	True	NaN	NaN	NaN	NaN	NaN	NaN	NaN
642.7565170000007	2.7352	sub-24	1	localizer	blank	interval	NaN	NaN	NaN	NaN	NaN	NaN	NaN	NaN	NaN	NaN	NaN	NaN
645.7928325000003	0.4995	sub-24	1	localizer	stimulus	Katze	NaN	180	3.1024014999993597	0.5627532999997129	True	NaN	NaN	NaN	NaN	NaN	NaN	NaN
646.2757978000009	3.1024	sub-24	1	localizer	blank	interval	NaN	NaN	NaN	NaN	NaN	NaN	NaN	NaN	NaN	NaN	NaN	NaN
649.6792940000005	0.4995	sub-24	1	localizer	stimulus	Katze	NaN	0	2.451851099999658	NaN	True	NaN	NaN	NaN	NaN	NaN	NaN	NaN
650.1622921000007	2.4519	sub-24	1	localizer	blank	interval	NaN	NaN	NaN	NaN	NaN	NaN	NaN	NaN	NaN	NaN	NaN	NaN
652.9152320000003	0.4996	sub-24	1	localizer	stimulus	Haus	NaN	0	2.5020596000003934	NaN	True	NaN	NaN	NaN	NaN	NaN	NaN	NaN
653.3982462000004	2.5021	sub-24	1	localizer	blank	interval	NaN	NaN	NaN	NaN	NaN	NaN	NaN	NaN	NaN	NaN	NaN	NaN
656.2012148000003	0.4995	sub-24	1	localizer	stimulus	Katze	NaN	0	3.0358133999998245	NaN	True	NaN	NaN	NaN	NaN	NaN	NaN	NaN
656.6842371000002	3.0358	sub-24	1	localizer	blank	interval	NaN	NaN	NaN	NaN	NaN	NaN	NaN	NaN	NaN	NaN	NaN	NaN
660.0210598000003	0.4994	sub-24	1	localizer	stimulus	Schuh	NaN	180	2.452013799999804	0.5743751999998494	True	NaN	NaN	NaN	NaN	NaN	NaN	NaN
660.5039878000007	2.452	sub-24	1	localizer	blank	interval	NaN	NaN	NaN	NaN	NaN	NaN	NaN	NaN	NaN	NaN	NaN	NaN
663.2569876000007	0.4998	sub-24	1	localizer	stimulus	Haus	NaN	0	2.7519906999996238	NaN	True	NaN	NaN	NaN	NaN	NaN	NaN	NaN
663.7401752000005	2.752	sub-24	1	localizer	blank	interval	NaN	NaN	NaN	NaN	NaN	NaN	NaN	NaN	NaN	NaN	NaN	NaN
666.7931375000007	0.4996	sub-24	1	localizer	stimulus	Gesicht	NaN	0	3.0522513000005347	NaN	True	NaN	NaN	NaN	NaN	NaN	NaN	NaN
667.2762321	3.0523	sub-24	1	localizer	blank	interval	NaN	NaN	NaN	NaN	NaN	NaN	NaN	NaN	NaN	NaN	NaN	NaN
670.6295485	0.4995	sub-24	1	localizer	stimulus	Schuh	NaN	0	2.3017848999998023	NaN	True	NaN	NaN	NaN	NaN	NaN	NaN	NaN
671.1126540000005	2.3018	sub-24	1	localizer	blank	interval	NaN	NaN	NaN	NaN	NaN	NaN	NaN	NaN	NaN	NaN	NaN	NaN
673.7153968000002	0.4997	sub-24	1	localizer	stimulus	Stuhl	NaN	180	2.268523699999605	0.5600497000004907	True	NaN	NaN	NaN	NaN	NaN	NaN	NaN
674.1983808000005	2.2685	sub-24	1	localizer	blank	interval	NaN	NaN	NaN	NaN	NaN	NaN	NaN	NaN	NaN	NaN	NaN	NaN
676.7678585000003	0.4996	sub-24	1	localizer	stimulus	Schuh	NaN	0	2.635414700000183	NaN	True	NaN	NaN	NaN	NaN	NaN	NaN	NaN
677.2508704000002	2.6354	sub-24	1	localizer	blank	interval	NaN	NaN	NaN	NaN	NaN	NaN	NaN	NaN	NaN	NaN	NaN	NaN
680.1873238000007	0.4995	sub-24	1	localizer	stimulus	Gesicht	NaN	0	1.701341599999978	NaN	True	NaN	NaN	NaN	NaN	NaN	NaN	NaN
680.6703239000008	1.7013	sub-24	1	localizer	blank	interval	NaN	NaN	NaN	NaN	NaN	NaN	NaN	NaN	NaN	NaN	NaN	NaN
682.6728876000006	0.4995	sub-24	1	localizer	stimulus	Katze	NaN	0	2.652094699999907	NaN	True	NaN	NaN	NaN	NaN	NaN	NaN	NaN
683.1557890000004	2.6521	sub-24	1	localizer	blank	interval	NaN	NaN	NaN	NaN	NaN	NaN	NaN	NaN	NaN	NaN	NaN	NaN
686.1089447000004	0.4994	sub-24	1	localizer	stimulus	Stuhl	NaN	0	2.451720699999896	NaN	True	NaN	NaN	NaN	NaN	NaN	NaN	NaN
686.5919025000003	2.4517	sub-24	1	localizer	blank	interval	NaN	NaN	NaN	NaN	NaN	NaN	NaN	NaN	NaN	NaN	NaN	NaN
689.3446895000006	0.4996	sub-24	1	localizer	stimulus	Gesicht	NaN	180	2.802175900000293	0.5628593999999794	True	NaN	NaN	NaN	NaN	NaN	NaN	NaN
689.8276948000002	2.8022	sub-24	1	localizer	blank	interval	NaN	NaN	NaN	NaN	NaN	NaN	NaN	NaN	NaN	NaN	NaN	NaN
692.9309338000003	0.4996	sub-24	1	localizer	stimulus	Gesicht	NaN	0	2.48517720000018	NaN	True	NaN	NaN	NaN	NaN	NaN	NaN	NaN
693.4139917000002	2.4852	sub-24	1	localizer	blank	interval	NaN	NaN	NaN	NaN	NaN	NaN	NaN	NaN	NaN	NaN	NaN	NaN
696.2002585	0.4996	sub-24	1	localizer	stimulus	Stuhl	NaN	0	2.435018800000762	NaN	True	NaN	NaN	NaN	NaN	NaN	NaN	NaN
696.6834386	2.435	sub-24	1	localizer	blank	interval	NaN	NaN	NaN	NaN	NaN	NaN	NaN	NaN	NaN	NaN	NaN	NaN
699.4195660000005	0.4996	sub-24	1	localizer	stimulus	Haus	NaN	0	2.385030600000391	NaN	True	NaN	NaN	NaN	NaN	NaN	NaN	NaN
699.9026294000005	2.385	sub-24	1	localizer	blank	interval	NaN	NaN	NaN	NaN	NaN	NaN	NaN	NaN	NaN	NaN	NaN	NaN
702.5888419000003	0.4995	sub-24	1	localizer	stimulus	Haus	NaN	0	2.218420899999728	NaN	True	NaN	NaN	NaN	NaN	NaN	NaN	NaN
703.0719234000007	2.2184	sub-24	1	localizer	blank	interval	NaN	NaN	NaN	NaN	NaN	NaN	NaN	NaN	NaN	NaN	NaN	NaN
705.5913529000009	0.4995	sub-24	1	localizer	stimulus	Schuh	NaN	0	2.2683675000007497	NaN	True	NaN	NaN	NaN	NaN	NaN	NaN	NaN
706.0743388000001	2.2684	sub-24	1	localizer	blank	interval	NaN	NaN	NaN	NaN	NaN	NaN	NaN	NaN	NaN	NaN	NaN	NaN
708.6436396000008	0.4999	sub-24	1	localizer	stimulus	Schuh	NaN	0	3.0355726999996477	NaN	True	NaN	NaN	NaN	NaN	NaN	NaN	NaN
709.1268025000008	3.0356	sub-24	1	localizer	blank	interval	NaN	NaN	NaN	NaN	NaN	NaN	NaN	NaN	NaN	NaN	NaN	NaN
712.4634187000001	0.4995	sub-24	1	localizer	stimulus	Katze	NaN	0	2.8689142000002903	NaN	True	NaN	NaN	NaN	NaN	NaN	NaN	NaN
712.9464004000001	2.8689	sub-24	1	localizer	blank	interval	NaN	NaN	NaN	NaN	NaN	NaN	NaN	NaN	NaN	NaN	NaN	NaN
716.1163851000001	0.4996	sub-24	1	localizer	stimulus	Gesicht	NaN	0	2.6353390000003856	NaN	True	NaN	NaN	NaN	NaN	NaN	NaN	NaN
716.599373	2.6353	sub-24	1	localizer	blank	interval	NaN	NaN	NaN	NaN	NaN	NaN	NaN	NaN	NaN	NaN	NaN	NaN
719.5358291000002	0.4995	sub-24	1	localizer	stimulus	Haus	NaN	180	2.3351475999998	0.5716198000000077	True	NaN	NaN	NaN	NaN	NaN	NaN	NaN
720.0188254000004	2.3351	sub-24	1	localizer	blank	interval	NaN	NaN	NaN	NaN	NaN	NaN	NaN	NaN	NaN	NaN	NaN	NaN
722.6549951000006	0.4996	sub-24	1	localizer	stimulus	Stuhl	NaN	0	2.802259000000049	NaN	True	NaN	NaN	NaN	NaN	NaN	NaN	NaN
723.1380074000008	2.8023	sub-24	1	localizer	blank	interval	NaN	NaN	NaN	NaN	NaN	NaN	NaN	NaN	NaN	NaN	NaN	NaN
729.4268248000008	1.0004	sub-24	1	sequence	cue	Stuhl	NaN	NaN	NaN	NaN	NaN	NaN	NaN	NaN	NaN	NaN	NaN	NaN
730.4271954000005	2.0016	sub-24	1	sequence	blank	blank	NaN	NaN	NaN	NaN	NaN	NaN	NaN	NaN	NaN	NaN	NaN	NaN
732.4287681000005	0.3003	sub-24	1	sequence	fixation	dot	NaN	NaN	NaN	NaN	NaN	NaN	NaN	NaN	NaN	NaN	NaN	NaN
732.7474129000002	0.115	sub-24	1	sequence	stimulus	Schuh	NaN	NaN	64.0	NaN	NaN	4.0	1.0	NaN	NaN	NaN	NaN	NaN
732.8624310000005	0.0668	sub-24	1	sequence	interval	dot	NaN	NaN	NaN	NaN	NaN	NaN	NaN	NaN	NaN	NaN	NaN	NaN
732.9292669000006	0.1	sub-24	1	sequence	stimulus	Gesicht	NaN	NaN	64.0	NaN	NaN	1.0	2.0	NaN	NaN	NaN	NaN	NaN
733.0292256000002	0.0668	sub-24	1	sequence	interval	dot	NaN	NaN	NaN	NaN	NaN	NaN	NaN	NaN	NaN	NaN	NaN	NaN
733.0960743000005	0.1	sub-24	1	sequence	stimulus	Katze	NaN	NaN	64.0	NaN	NaN	3.0	3.0	NaN	NaN	NaN	NaN	NaN
733.1960434000002	0.0669	sub-24	1	sequence	interval	dot	NaN	NaN	NaN	NaN	NaN	NaN	NaN	NaN	NaN	NaN	NaN	NaN
733.2629784000001	0.0999	sub-24	1	sequence	stimulus	Haus	NaN	NaN	64.0	NaN	NaN	2.0	4.0	NaN	NaN	NaN	NaN	NaN
733.3628367000001	0.0669	sub-24	1	sequence	interval	dot	NaN	NaN	NaN	NaN	NaN	NaN	NaN	NaN	NaN	NaN	NaN	NaN
733.4296887	0.0999	sub-24	1	sequence	stimulus	Stuhl	NaN	NaN	64.0	NaN	NaN	5.0	5.0	NaN	NaN	NaN	NaN	NaN
733.5296337	0.0667	sub-24	1	sequence	interval	dot	NaN	NaN	NaN	NaN	NaN	NaN	NaN	NaN	NaN	NaN	NaN	NaN
733.5963533000004	8.3882	sub-24	1	sequence	delay	dot	NaN	NaN	NaN	NaN	NaN	NaN	NaN	NaN	NaN	NaN	NaN	NaN
741.958157	0.8292	sub-24	1	sequence	choice	choice	left	NaN	NaN	0.7868926000001011	True	NaN	NaN	left	True	5.0	3.0	5.0
742.7876652000004	0.5	sub-24	1	sequence	feedback	NaN	NaN	NaN	NaN	NaN	NaN	NaN	NaN	NaN	NaN	NaN	NaN	NaN
743.2879342000006	1.0004	sub-24	1	sequence	cue	Schuh	NaN	NaN	NaN	NaN	NaN	NaN	NaN	NaN	NaN	NaN	NaN	NaN
744.2883664000001	2.0017	sub-24	1	sequence	blank	blank	NaN	NaN	NaN	NaN	NaN	NaN	NaN	NaN	NaN	NaN	NaN	NaN
746.2901064000007	0.3003	sub-24	1	sequence	fixation	dot	NaN	NaN	NaN	NaN	NaN	NaN	NaN	NaN	NaN	NaN	NaN	NaN
746.6077138	0.0994	sub-24	1	sequence	stimulus	Gesicht	NaN	NaN	32.0	NaN	NaN	1.0	1.0	NaN	NaN	NaN	NaN	NaN
746.7070933000005	0.0335	sub-24	1	sequence	interval	dot	NaN	NaN	NaN	NaN	NaN	NaN	NaN	NaN	NaN	NaN	NaN	NaN
746.7405939	0.0999	sub-24	1	sequence	stimulus	Haus	NaN	NaN	32.0	NaN	NaN	2.0	2.0	NaN	NaN	NaN	NaN	NaN
746.8405240000002	0.0335	sub-24	1	sequence	interval	dot	NaN	NaN	NaN	NaN	NaN	NaN	NaN	NaN	NaN	NaN	NaN	NaN
746.8739985000002	0.1	sub-24	1	sequence	stimulus	Stuhl	NaN	NaN	32.0	NaN	NaN	5.0	3.0	NaN	NaN	NaN	NaN	NaN
746.9739580000005	0.0335	sub-24	1	sequence	interval	dot	NaN	NaN	NaN	NaN	NaN	NaN	NaN	NaN	NaN	NaN	NaN	NaN
747.0074445	0.0999	sub-24	1	sequence	stimulus	Katze	NaN	NaN	32.0	NaN	NaN	3.0	4.0	NaN	NaN	NaN	NaN	NaN
747.1073882000001	0.0335	sub-24	1	sequence	interval	dot	NaN	NaN	NaN	NaN	NaN	NaN	NaN	NaN	NaN	NaN	NaN	NaN
747.1408491000002	0.0979	sub-24	1	sequence	stimulus	Schuh	NaN	NaN	32.0	NaN	NaN	4.0	5.0	NaN	NaN	NaN	NaN	NaN
747.2387836000007	0.0354	sub-24	1	sequence	interval	dot	NaN	NaN	NaN	NaN	NaN	NaN	NaN	NaN	NaN	NaN	NaN	NaN
747.2742044000006	8.5384	sub-24	1	sequence	delay	dot	NaN	NaN	NaN	NaN	NaN	NaN	NaN	NaN	NaN	NaN	NaN	NaN
755.7899488000003	0.8086	sub-24	1	sequence	choice	choice	right	NaN	NaN	0.7749395000000732	True	NaN	NaN	right	True	3.0	5.0	5.0
756.5988187000003	0.5	sub-24	1	sequence	feedback	NaN	NaN	NaN	NaN	NaN	NaN	NaN	NaN	NaN	NaN	NaN	NaN	NaN
757.0990476000006	1.0005	sub-24	1	sequence	cue	Stuhl	NaN	NaN	NaN	NaN	NaN	NaN	NaN	NaN	NaN	NaN	NaN	NaN
758.0995379000005	2.0017	sub-24	1	sequence	blank	blank	NaN	NaN	NaN	NaN	NaN	NaN	NaN	NaN	NaN	NaN	NaN	NaN
760.1012579000007	0.3001	sub-24	1	sequence	fixation	dot	NaN	NaN	NaN	NaN	NaN	NaN	NaN	NaN	NaN	NaN	NaN	NaN
760.4189117000005	0.0992	sub-24	1	sequence	stimulus	Schuh	NaN	NaN	32.0	NaN	NaN	4.0	1.0	NaN	NaN	NaN	NaN	NaN
760.5181256000005	0.0335	sub-24	1	sequence	interval	dot	NaN	NaN	NaN	NaN	NaN	NaN	NaN	NaN	NaN	NaN	NaN	NaN
760.5516337000008	0.1	sub-24	1	sequence	stimulus	Gesicht	NaN	NaN	32.0	NaN	NaN	1.0	2.0	NaN	NaN	NaN	NaN	NaN
760.6515884	0.0336	sub-24	1	sequence	interval	dot	NaN	NaN	NaN	NaN	NaN	NaN	NaN	NaN	NaN	NaN	NaN	NaN
760.6851704000001	0.0999	sub-24	1	sequence	stimulus	Haus	NaN	NaN	32.0	NaN	NaN	2.0	3.0	NaN	NaN	NaN	NaN	NaN
760.7850451000004	0.0335	sub-24	1	sequence	interval	dot	NaN	NaN	NaN	NaN	NaN	NaN	NaN	NaN	NaN	NaN	NaN	NaN
760.8185082	0.1	sub-24	1	sequence	stimulus	Katze	NaN	NaN	32.0	NaN	NaN	3.0	4.0	NaN	NaN	NaN	NaN	NaN
760.9185223000004	0.0335	sub-24	1	sequence	interval	dot	NaN	NaN	NaN	NaN	NaN	NaN	NaN	NaN	NaN	NaN	NaN	NaN
760.9520478000004	0.0999	sub-24	1	sequence	stimulus	Stuhl	NaN	NaN	32.0	NaN	NaN	5.0	5.0	NaN	NaN	NaN	NaN	NaN
761.0519030000005	0.0335	sub-24	1	sequence	interval	dot	NaN	NaN	NaN	NaN	NaN	NaN	NaN	NaN	NaN	NaN	NaN	NaN
761.0854453000002	8.5216	sub-24	1	sequence	delay	dot	NaN	NaN	NaN	NaN	NaN	NaN	NaN	NaN	NaN	NaN	NaN	NaN
769.5955413000001	0.7808	sub-24	1	sequence	choice	choice	left	NaN	NaN	0.764520700000503	True	NaN	NaN	left	True	5.0	4.0	5.0
770.3766707000004	0.4999	sub-24	1	sequence	feedback	NaN	NaN	NaN	NaN	NaN	NaN	NaN	NaN	NaN	NaN	NaN	NaN	NaN
770.8767066	1.0006	sub-24	1	sequence	cue	Stuhl	NaN	NaN	NaN	NaN	NaN	NaN	NaN	NaN	NaN	NaN	NaN	NaN
771.8773556000006	2.0016	sub-24	1	sequence	blank	blank	NaN	NaN	NaN	NaN	NaN	NaN	NaN	NaN	NaN	NaN	NaN	NaN
773.8790001000007	0.3002	sub-24	1	sequence	fixation	dot	NaN	NaN	NaN	NaN	NaN	NaN	NaN	NaN	NaN	NaN	NaN	NaN
774.1978808000003	0.1147	sub-24	1	sequence	stimulus	Katze	NaN	NaN	128.0	NaN	NaN	3.0	1.0	NaN	NaN	NaN	NaN	NaN
774.3126245000003	0.1335	sub-24	1	sequence	interval	dot	NaN	NaN	NaN	NaN	NaN	NaN	NaN	NaN	NaN	NaN	NaN	NaN
774.4461631000004	0.1	sub-24	1	sequence	stimulus	Haus	NaN	NaN	128.0	NaN	NaN	2.0	2.0	NaN	NaN	NaN	NaN	NaN
774.5461580000001	0.1335	sub-24	1	sequence	interval	dot	NaN	NaN	NaN	NaN	NaN	NaN	NaN	NaN	NaN	NaN	NaN	NaN
774.6796996000003	0.1	sub-24	1	sequence	stimulus	Schuh	NaN	NaN	128.0	NaN	NaN	4.0	3.0	NaN	NaN	NaN	NaN	NaN
774.7796892000006	0.1336	sub-24	1	sequence	interval	dot	NaN	NaN	NaN	NaN	NaN	NaN	NaN	NaN	NaN	NaN	NaN	NaN
774.9132429000001	0.1	sub-24	1	sequence	stimulus	Stuhl	NaN	NaN	128.0	NaN	NaN	5.0	4.0	NaN	NaN	NaN	NaN	NaN
775.0131979000007	0.1336	sub-24	1	sequence	interval	dot	NaN	NaN	NaN	NaN	NaN	NaN	NaN	NaN	NaN	NaN	NaN	NaN
775.1467699000004	0.1	sub-24	1	sequence	stimulus	Gesicht	NaN	NaN	128.0	NaN	NaN	1.0	5.0	NaN	NaN	NaN	NaN	NaN
775.2467259000005	0.1334	sub-24	1	sequence	interval	dot	NaN	NaN	NaN	NaN	NaN	NaN	NaN	NaN	NaN	NaN	NaN	NaN
775.3801585000001	8.0714	sub-24	1	sequence	delay	dot	NaN	NaN	NaN	NaN	NaN	NaN	NaN	NaN	NaN	NaN	NaN	NaN
783.4273021000008	0.8103	sub-24	1	sequence	choice	choice	right	NaN	NaN	0.7760869999992792	True	NaN	NaN	right	True	5.0	4.0	4.0
784.2378142000007	0.5001	sub-24	1	sequence	feedback	NaN	NaN	NaN	NaN	NaN	NaN	NaN	NaN	NaN	NaN	NaN	NaN	NaN
784.7380346	1.0006	sub-24	1	sequence	cue	Stuhl	NaN	NaN	NaN	NaN	NaN	NaN	NaN	NaN	NaN	NaN	NaN	NaN
785.7386892000004	2.0016	sub-24	1	sequence	blank	blank	NaN	NaN	NaN	NaN	NaN	NaN	NaN	NaN	NaN	NaN	NaN	NaN
787.7402912000007	0.3003	sub-24	1	sequence	fixation	dot	NaN	NaN	NaN	NaN	NaN	NaN	NaN	NaN	NaN	NaN	NaN	NaN
788.0579725000007	0.0993	sub-24	1	sequence	stimulus	Haus	NaN	NaN	512.0	NaN	NaN	2.0	1.0	NaN	NaN	NaN	NaN	NaN
788.1572909000006	0.5172	sub-24	1	sequence	interval	dot	NaN	NaN	NaN	NaN	NaN	NaN	NaN	NaN	NaN	NaN	NaN	NaN
788.6744850000005	0.1	sub-24	1	sequence	stimulus	Gesicht	NaN	NaN	512.0	NaN	NaN	1.0	2.0	NaN	NaN	NaN	NaN	NaN
788.7744991000009	0.5171	sub-24	1	sequence	interval	dot	NaN	NaN	NaN	NaN	NaN	NaN	NaN	NaN	NaN	NaN	NaN	NaN
789.2916205000001	0.1	sub-24	1	sequence	stimulus	Schuh	NaN	NaN	512.0	NaN	NaN	4.0	3.0	NaN	NaN	NaN	NaN	NaN
789.3916285000005	0.5172	sub-24	1	sequence	interval	dot	NaN	NaN	NaN	NaN	NaN	NaN	NaN	NaN	NaN	NaN	NaN	NaN
789.9088663000002	0.0999	sub-24	1	sequence	stimulus	Katze	NaN	NaN	512.0	NaN	NaN	3.0	4.0	NaN	NaN	NaN	NaN	NaN
790.0087934000003	0.5172	sub-24	1	sequence	interval	dot	NaN	NaN	NaN	NaN	NaN	NaN	NaN	NaN	NaN	NaN	NaN	NaN
790.5260409000002	0.1001	sub-24	1	sequence	stimulus	Stuhl	NaN	NaN	512.0	NaN	NaN	5.0	5.0	NaN	NaN	NaN	NaN	NaN
790.6261200000008	0.517	sub-24	1	sequence	interval	dot	NaN	NaN	NaN	NaN	NaN	NaN	NaN	NaN	NaN	NaN	NaN	NaN
791.1430781000008	6.1529	sub-24	1	sequence	delay	dot	NaN	NaN	NaN	NaN	NaN	NaN	NaN	NaN	NaN	NaN	NaN	NaN
797.2849181000001	0.8139	sub-24	1	sequence	choice	choice	right	NaN	NaN	0.7956965000003038	True	NaN	NaN	right	True	4.0	5.0	5.0
798.0990465000004	0.5004	sub-24	1	sequence	feedback	NaN	NaN	NaN	NaN	NaN	NaN	NaN	NaN	NaN	NaN	NaN	NaN	NaN
798.5995540000004	1.0003	sub-24	1	sequence	cue	Katze	NaN	NaN	NaN	NaN	NaN	NaN	NaN	NaN	NaN	NaN	NaN	NaN
799.5998203000008	2.0016	sub-24	1	sequence	blank	blank	NaN	NaN	NaN	NaN	NaN	NaN	NaN	NaN	NaN	NaN	NaN	NaN
801.6014096000008	0.3003	sub-24	1	sequence	fixation	dot	NaN	NaN	NaN	NaN	NaN	NaN	NaN	NaN	NaN	NaN	NaN	NaN
801.9200401000007	0.1151	sub-24	1	sequence	stimulus	Stuhl	NaN	NaN	512.0	NaN	NaN	5.0	1.0	NaN	NaN	NaN	NaN	NaN
802.0351725	0.5171	sub-24	1	sequence	interval	dot	NaN	NaN	NaN	NaN	NaN	NaN	NaN	NaN	NaN	NaN	NaN	NaN
802.5522811000001	0.0999	sub-24	1	sequence	stimulus	Haus	NaN	NaN	512.0	NaN	NaN	2.0	2.0	NaN	NaN	NaN	NaN	NaN
802.6522221000005	0.5172	sub-24	1	sequence	interval	dot	NaN	NaN	NaN	NaN	NaN	NaN	NaN	NaN	NaN	NaN	NaN	NaN
803.1694384000002	0.0999	sub-24	1	sequence	stimulus	Gesicht	NaN	NaN	512.0	NaN	NaN	1.0	3.0	NaN	NaN	NaN	NaN	NaN
803.2693851000004	0.5172	sub-24	1	sequence	interval	dot	NaN	NaN	NaN	NaN	NaN	NaN	NaN	NaN	NaN	NaN	NaN	NaN
803.7865812	0.1	sub-24	1	sequence	stimulus	Katze	NaN	NaN	512.0	NaN	NaN	3.0	4.0	NaN	NaN	NaN	NaN	NaN
803.8865627000005	0.5172	sub-24	1	sequence	interval	dot	NaN	NaN	NaN	NaN	NaN	NaN	NaN	NaN	NaN	NaN	NaN	NaN
804.4037612000002	0.1001	sub-24	1	sequence	stimulus	Schuh	NaN	NaN	512.0	NaN	NaN	4.0	5.0	NaN	NaN	NaN	NaN	NaN
804.5038171000006	0.517	sub-24	1	sequence	interval	dot	NaN	NaN	NaN	NaN	NaN	NaN	NaN	NaN	NaN	NaN	NaN	NaN
805.0207913000004	6.1533	sub-24	1	sequence	delay	dot	NaN	NaN	NaN	NaN	NaN	NaN	NaN	NaN	NaN	NaN	NaN	NaN
811.1426882000005	0.684	sub-24	1	sequence	choice	choice	right	NaN	NaN	0.6455399000005855	True	NaN	NaN	right	True	1.0	4.0	4.0
811.8269138000005	0.4999	sub-24	1	sequence	feedback	NaN	NaN	NaN	NaN	NaN	NaN	NaN	NaN	NaN	NaN	NaN	NaN	NaN
812.3270548	1.0005	sub-24	1	sequence	cue	Schuh	NaN	NaN	NaN	NaN	NaN	NaN	NaN	NaN	NaN	NaN	NaN	NaN
813.3275431000002	2.0016	sub-24	1	sequence	blank	blank	NaN	NaN	NaN	NaN	NaN	NaN	NaN	NaN	NaN	NaN	NaN	NaN
815.3291472000001	0.3003	sub-24	1	sequence	fixation	dot	NaN	NaN	NaN	NaN	NaN	NaN	NaN	NaN	NaN	NaN	NaN	NaN
815.6476817000002	0.1152	sub-24	1	sequence	stimulus	Stuhl	NaN	NaN	64.0	NaN	NaN	5.0	1.0	NaN	NaN	NaN	NaN	NaN
815.7628327000002	0.0668	sub-24	1	sequence	interval	dot	NaN	NaN	NaN	NaN	NaN	NaN	NaN	NaN	NaN	NaN	NaN	NaN
815.8296695000008	0.0999	sub-24	1	sequence	stimulus	Haus	NaN	NaN	64.0	NaN	NaN	2.0	2.0	NaN	NaN	NaN	NaN	NaN
815.9296124000002	0.0668	sub-24	1	sequence	interval	dot	NaN	NaN	NaN	NaN	NaN	NaN	NaN	NaN	NaN	NaN	NaN	NaN
815.9964558000001	0.1	sub-24	1	sequence	stimulus	Katze	NaN	NaN	64.0	NaN	NaN	3.0	3.0	NaN	NaN	NaN	NaN	NaN
816.0964616000001	0.0668	sub-24	1	sequence	interval	dot	NaN	NaN	NaN	NaN	NaN	NaN	NaN	NaN	NaN	NaN	NaN	NaN
816.1633001	0.1	sub-24	1	sequence	stimulus	Schuh	NaN	NaN	64.0	NaN	NaN	4.0	4.0	NaN	NaN	NaN	NaN	NaN
816.2632734000008	0.0668	sub-24	1	sequence	interval	dot	NaN	NaN	NaN	NaN	NaN	NaN	NaN	NaN	NaN	NaN	NaN	NaN
816.3300661000003	0.1	sub-24	1	sequence	stimulus	Gesicht	NaN	NaN	64.0	NaN	NaN	1.0	5.0	NaN	NaN	NaN	NaN	NaN
816.4300257000004	0.0667	sub-24	1	sequence	interval	dot	NaN	NaN	NaN	NaN	NaN	NaN	NaN	NaN	NaN	NaN	NaN	NaN
816.4967383000003	8.3884	sub-24	1	sequence	delay	dot	NaN	NaN	NaN	NaN	NaN	NaN	NaN	NaN	NaN	NaN	NaN	NaN
824.8704136000006	1.0509	sub-24	1	sequence	choice	choice	left	NaN	NaN	1.030636499999673	True	NaN	NaN	left	True	4.0	3.0	4.0
825.9215824000003	0.5001	sub-24	1	sequence	feedback	NaN	NaN	NaN	NaN	NaN	NaN	NaN	NaN	NaN	NaN	NaN	NaN	NaN
826.4218609000009	1.0005	sub-24	1	sequence	cue	Gesicht	NaN	NaN	NaN	NaN	NaN	NaN	NaN	NaN	NaN	NaN	NaN	NaN
827.4223229000008	2.0016	sub-24	1	sequence	blank	blank	NaN	NaN	NaN	NaN	NaN	NaN	NaN	NaN	NaN	NaN	NaN	NaN
829.4239744000006	0.3003	sub-24	1	sequence	fixation	dot	NaN	NaN	NaN	NaN	NaN	NaN	NaN	NaN	NaN	NaN	NaN	NaN
829.7417158000007	0.0993	sub-24	1	sequence	stimulus	Stuhl	NaN	NaN	128.0	NaN	NaN	5.0	1.0	NaN	NaN	NaN	NaN	NaN
829.8410093000002	0.1336	sub-24	1	sequence	interval	dot	NaN	NaN	NaN	NaN	NaN	NaN	NaN	NaN	NaN	NaN	NaN	NaN
829.9746095	0.1	sub-24	1	sequence	stimulus	Haus	NaN	NaN	128.0	NaN	NaN	2.0	2.0	NaN	NaN	NaN	NaN	NaN
830.0745799000006	0.1336	sub-24	1	sequence	interval	dot	NaN	NaN	NaN	NaN	NaN	NaN	NaN	NaN	NaN	NaN	NaN	NaN
830.2081352000005	0.0999	sub-24	1	sequence	stimulus	Schuh	NaN	NaN	128.0	NaN	NaN	4.0	3.0	NaN	NaN	NaN	NaN	NaN
830.3080799000008	0.1336	sub-24	1	sequence	interval	dot	NaN	NaN	NaN	NaN	NaN	NaN	NaN	NaN	NaN	NaN	NaN	NaN
830.4416341000006	0.1	sub-24	1	sequence	stimulus	Katze	NaN	NaN	128.0	NaN	NaN	3.0	4.0	NaN	NaN	NaN	NaN	NaN
830.5415855000001	0.1336	sub-24	1	sequence	interval	dot	NaN	NaN	NaN	NaN	NaN	NaN	NaN	NaN	NaN	NaN	NaN	NaN
830.6751459000006	0.1	sub-24	1	sequence	stimulus	Gesicht	NaN	NaN	128.0	NaN	NaN	1.0	5.0	NaN	NaN	NaN	NaN	NaN
830.7750963000008	0.1313	sub-24	1	sequence	interval	dot	NaN	NaN	NaN	NaN	NaN	NaN	NaN	NaN	NaN	NaN	NaN	NaN
830.9064428000001	8.0734	sub-24	1	sequence	delay	dot	NaN	NaN	NaN	NaN	NaN	NaN	NaN	NaN	NaN	NaN	NaN	NaN
838.9621396000002	0.8203	sub-24	1	sequence	choice	choice	left	NaN	NaN	0.7998880999994071	True	NaN	NaN	left	True	5.0	3.0	5.0
839.7826698000008	0.5001	sub-24	1	sequence	feedback	NaN	NaN	NaN	NaN	NaN	NaN	NaN	NaN	NaN	NaN	NaN	NaN	NaN
840.2831997000003	18.9149	sub-24	1	other	break	break	NaN	NaN	NaN	NaN	NaN	NaN	NaN	NaN	NaN	NaN	NaN	NaN
863.0185846000004	0.4995	sub-24	1	localizer	stimulus	Stuhl	NaN	180	3.502843799999937	0.8089893000005759	True	NaN	NaN	NaN	NaN	NaN	NaN	NaN
863.5181294000004	3.5028	sub-24	1	localizer	blank	interval	NaN	NaN	NaN	NaN	NaN	NaN	NaN	NaN	NaN	NaN	NaN	NaN
867.3220784000005	0.4995	sub-24	1	localizer	stimulus	Schuh	NaN	0	2.1516677999998137	NaN	True	NaN	NaN	NaN	NaN	NaN	NaN	NaN
867.8050447000005	2.1517	sub-24	1	localizer	blank	interval	NaN	NaN	NaN	NaN	NaN	NaN	NaN	NaN	NaN	NaN	NaN	NaN
870.2578409000007	0.4995	sub-24	1	localizer	stimulus	Schuh	NaN	0	2.368606899999577	NaN	True	NaN	NaN	NaN	NaN	NaN	NaN	NaN
870.7407638000004	2.3686	sub-24	1	localizer	blank	interval	NaN	NaN	NaN	NaN	NaN	NaN	NaN	NaN	NaN	NaN	NaN	NaN
873.4104734000002	0.4995	sub-24	1	localizer	stimulus	Katze	NaN	180	3.2524591999999757	0.56108630000017	True	NaN	NaN	NaN	NaN	NaN	NaN	NaN
873.8934871000001	3.2525	sub-24	1	localizer	blank	interval	NaN	NaN	NaN	NaN	NaN	NaN	NaN	NaN	NaN	NaN	NaN	NaN
877.447032	0.4995	sub-24	1	localizer	stimulus	Katze	NaN	0	2.201610399999481	NaN	True	NaN	NaN	NaN	NaN	NaN	NaN	NaN
877.9299507000005	2.2016	sub-24	1	localizer	blank	interval	NaN	NaN	NaN	NaN	NaN	NaN	NaN	NaN	NaN	NaN	NaN	NaN
880.4326608000001	0.4997	sub-24	1	localizer	stimulus	Schuh	NaN	0	2.4684552999997322	NaN	True	NaN	NaN	NaN	NaN	NaN	NaN	NaN
880.9157669000006	2.4685	sub-24	1	localizer	blank	interval	NaN	NaN	NaN	NaN	NaN	NaN	NaN	NaN	NaN	NaN	NaN	NaN
883.6853005000003	0.4997	sub-24	1	localizer	stimulus	Haus	NaN	180	2.768639899999471	0.5823662000002514	True	NaN	NaN	NaN	NaN	NaN	NaN	NaN
884.1684141000005	2.7686	sub-24	1	localizer	blank	interval	NaN	NaN	NaN	NaN	NaN	NaN	NaN	NaN	NaN	NaN	NaN	NaN
887.2381608000005	0.4996	sub-24	1	localizer	stimulus	Stuhl	NaN	0	2.2182793000001766	NaN	True	NaN	NaN	NaN	NaN	NaN	NaN	NaN
887.7212440000003	2.2183	sub-24	1	localizer	blank	interval	NaN	NaN	NaN	NaN	NaN	NaN	NaN	NaN	NaN	NaN	NaN	NaN
890.2406088000007	0.4996	sub-24	1	localizer	stimulus	Stuhl	NaN	0	3.069166299999779	NaN	True	NaN	NaN	NaN	NaN	NaN	NaN	NaN
890.7235622000007	3.0692	sub-24	1	localizer	blank	interval	NaN	NaN	NaN	NaN	NaN	NaN	NaN	NaN	NaN	NaN	NaN	NaN
894.0938103000008	0.4996	sub-24	1	localizer	stimulus	Katze	NaN	0	1.7176932000002125	NaN	True	NaN	NaN	NaN	NaN	NaN	NaN	NaN
894.5769642000005	1.7177	sub-24	1	localizer	blank	interval	NaN	NaN	NaN	NaN	NaN	NaN	NaN	NaN	NaN	NaN	NaN	NaN
896.5957403000002	0.4997	sub-24	1	localizer	stimulus	Stuhl	NaN	0	2.9355078999997204	NaN	True	NaN	NaN	NaN	NaN	NaN	NaN	NaN
897.0788287000005	2.9355	sub-24	1	localizer	blank	interval	NaN	NaN	NaN	NaN	NaN	NaN	NaN	NaN	NaN	NaN	NaN	NaN
900.3154339000002	0.4996	sub-24	1	localizer	stimulus	Haus	NaN	0	2.001486400000431	NaN	True	NaN	NaN	NaN	NaN	NaN	NaN	NaN
900.7984256	2.0015	sub-24	1	localizer	blank	interval	NaN	NaN	NaN	NaN	NaN	NaN	NaN	NaN	NaN	NaN	NaN	NaN
903.1010034	0.4996	sub-24	1	localizer	stimulus	Katze	NaN	0	2.58543029999953	NaN	True	NaN	NaN	NaN	NaN	NaN	NaN	NaN
903.5840000000009	2.5854	sub-24	1	localizer	blank	interval	NaN	NaN	NaN	NaN	NaN	NaN	NaN	NaN	NaN	NaN	NaN	NaN
906.4704384000006	0.4996	sub-24	1	localizer	stimulus	Gesicht	NaN	0	3.0522164000003613	NaN	True	NaN	NaN	NaN	NaN	NaN	NaN	NaN
906.9535316	3.0522	sub-24	1	localizer	blank	interval	NaN	NaN	NaN	NaN	NaN	NaN	NaN	NaN	NaN	NaN	NaN	NaN
910.3067979000008	0.4997	sub-24	1	localizer	stimulus	Stuhl	NaN	0	2.8857300999998188	NaN	True	NaN	NaN	NaN	NaN	NaN	NaN	NaN
910.7898444000002	2.8857	sub-24	1	localizer	blank	interval	NaN	NaN	NaN	NaN	NaN	NaN	NaN	NaN	NaN	NaN	NaN	NaN
913.9765138000002	0.4997	sub-24	1	localizer	stimulus	Gesicht	NaN	180	1.7013524000002462	0.554974100000436	True	NaN	NaN	NaN	NaN	NaN	NaN	NaN
914.4596122000004	1.7014	sub-24	1	localizer	blank	interval	NaN	NaN	NaN	NaN	NaN	NaN	NaN	NaN	NaN	NaN	NaN	NaN
916.4620370000002	0.4995	sub-24	1	localizer	stimulus	Katze	NaN	0	2.701963499999806	NaN	True	NaN	NaN	NaN	NaN	NaN	NaN	NaN
916.9449232000006	2.702	sub-24	1	localizer	blank	interval	NaN	NaN	NaN	NaN	NaN	NaN	NaN	NaN	NaN	NaN	NaN	NaN
919.9480121000006	0.4995	sub-24	1	localizer	stimulus	Haus	NaN	0	2.0014321999996127	NaN	True	NaN	NaN	NaN	NaN	NaN	NaN	NaN
920.4310256000008	2.0014	sub-24	1	localizer	blank	interval	NaN	NaN	NaN	NaN	NaN	NaN	NaN	NaN	NaN	NaN	NaN	NaN
922.7335964000004	0.4995	sub-24	1	localizer	stimulus	Haus	NaN	0	1.9681305000003704	NaN	True	NaN	NaN	NaN	NaN	NaN	NaN	NaN
923.2165616000002	1.9681	sub-24	1	localizer	blank	interval	NaN	NaN	NaN	NaN	NaN	NaN	NaN	NaN	NaN	NaN	NaN	NaN
925.4858138000008	0.4995	sub-24	1	localizer	stimulus	Gesicht	NaN	0	3.0023236000008637	NaN	True	NaN	NaN	NaN	NaN	NaN	NaN	NaN
925.9687825	3.0023	sub-24	1	localizer	blank	interval	NaN	NaN	NaN	NaN	NaN	NaN	NaN	NaN	NaN	NaN	NaN	NaN
929.2722310000008	0.4995	sub-24	1	localizer	stimulus	Haus	NaN	0	2.7854829999995445	NaN	True	NaN	NaN	NaN	NaN	NaN	NaN	NaN
929.7551961000008	2.7855	sub-24	1	localizer	blank	interval	NaN	NaN	NaN	NaN	NaN	NaN	NaN	NaN	NaN	NaN	NaN	NaN
932.8417684000004	0.4995	sub-24	1	localizer	stimulus	Schuh	NaN	180	2.451913399999171	0.5699761999994735	True	NaN	NaN	NaN	NaN	NaN	NaN	NaN
933.3247334000008	2.4519	sub-24	1	localizer	blank	interval	NaN	NaN	NaN	NaN	NaN	NaN	NaN	NaN	NaN	NaN	NaN	NaN
936.0786369000008	0.5154	sub-24	1	localizer	stimulus	Gesicht	NaN	0	3.1524398999999903	NaN	True	NaN	NaN	NaN	NaN	NaN	NaN	NaN
936.5608122000004	3.1524	sub-24	1	localizer	blank	interval	NaN	NaN	NaN	NaN	NaN	NaN	NaN	NaN	NaN	NaN	NaN	NaN
940.0143039000004	0.4995	sub-24	1	localizer	stimulus	Gesicht	NaN	0	2.351800299999809	NaN	True	NaN	NaN	NaN	NaN	NaN	NaN	NaN
940.4971972000004	2.3518	sub-24	1	localizer	blank	interval	NaN	NaN	NaN	NaN	NaN	NaN	NaN	NaN	NaN	NaN	NaN	NaN
943.1500860000006	0.4996	sub-24	1	localizer	stimulus	Schuh	NaN	0	1.5846158000003925	NaN	True	NaN	NaN	NaN	NaN	NaN	NaN	NaN
943.6331066000002	1.5846	sub-24	1	localizer	blank	interval	NaN	NaN	NaN	NaN	NaN	NaN	NaN	NaN	NaN	NaN	NaN	NaN
948.7041469000004	1.0004	sub-24	1	sequence	cue	Stuhl	NaN	NaN	NaN	NaN	NaN	NaN	NaN	NaN	NaN	NaN	NaN	NaN
949.7045750000008	2.0016	sub-24	1	sequence	blank	blank	NaN	NaN	NaN	NaN	NaN	NaN	NaN	NaN	NaN	NaN	NaN	NaN
951.7061833000008	0.3002	sub-24	1	sequence	fixation	dot	NaN	NaN	NaN	NaN	NaN	NaN	NaN	NaN	NaN	NaN	NaN	NaN
952.0239376000007	0.0992	sub-24	1	sequence	stimulus	Haus	NaN	NaN	512.0	NaN	NaN	2.0	1.0	NaN	NaN	NaN	NaN	NaN
952.1231754	0.5172	sub-24	1	sequence	interval	dot	NaN	NaN	NaN	NaN	NaN	NaN	NaN	NaN	NaN	NaN	NaN	NaN
952.6403719	0.1	sub-24	1	sequence	stimulus	Gesicht	NaN	NaN	512.0	NaN	NaN	1.0	2.0	NaN	NaN	NaN	NaN	NaN
952.7403279	0.5173	sub-24	1	sequence	interval	dot	NaN	NaN	NaN	NaN	NaN	NaN	NaN	NaN	NaN	NaN	NaN	NaN
953.2575908000008	0.0999	sub-24	1	sequence	stimulus	Schuh	NaN	NaN	512.0	NaN	NaN	4.0	3.0	NaN	NaN	NaN	NaN	NaN
953.3574919000002	0.5172	sub-24	1	sequence	interval	dot	NaN	NaN	NaN	NaN	NaN	NaN	NaN	NaN	NaN	NaN	NaN	NaN
953.8746892000008	0.1	sub-24	1	sequence	stimulus	Katze	NaN	NaN	512.0	NaN	NaN	3.0	4.0	NaN	NaN	NaN	NaN	NaN
953.9747275	0.5171	sub-24	1	sequence	interval	dot	NaN	NaN	NaN	NaN	NaN	NaN	NaN	NaN	NaN	NaN	NaN	NaN
954.4918107000004	0.1	sub-24	1	sequence	stimulus	Stuhl	NaN	NaN	512.0	NaN	NaN	5.0	5.0	NaN	NaN	NaN	NaN	NaN
954.5918326	0.5172	sub-24	1	sequence	interval	dot	NaN	NaN	NaN	NaN	NaN	NaN	NaN	NaN	NaN	NaN	NaN	NaN
955.1090288000004	6.1531	sub-24	1	sequence	delay	dot	NaN	NaN	NaN	NaN	NaN	NaN	NaN	NaN	NaN	NaN	NaN	NaN
961.2375287000004	0.8439	sub-24	1	sequence	choice	choice	left	NaN	NaN	0.8134804000001168	True	NaN	NaN	left	True	5.0	4.0	5.0
962.0818167000008	0.5	sub-24	1	sequence	feedback	NaN	NaN	NaN	NaN	NaN	NaN	NaN	NaN	NaN	NaN	NaN	NaN	NaN
962.5819176000005	1.0006	sub-24	1	sequence	cue	Gesicht	NaN	NaN	NaN	NaN	NaN	NaN	NaN	NaN	NaN	NaN	NaN	NaN
963.5824810000004	2.0016	sub-24	1	sequence	blank	blank	NaN	NaN	NaN	NaN	NaN	NaN	NaN	NaN	NaN	NaN	NaN	NaN
965.5841091000002	0.3002	sub-24	1	sequence	fixation	dot	NaN	NaN	NaN	NaN	NaN	NaN	NaN	NaN	NaN	NaN	NaN	NaN
965.9027588000008	0.115	sub-24	1	sequence	stimulus	Stuhl	NaN	NaN	64.0	NaN	NaN	5.0	1.0	NaN	NaN	NaN	NaN	NaN
966.0177475	0.0669	sub-24	1	sequence	interval	dot	NaN	NaN	NaN	NaN	NaN	NaN	NaN	NaN	NaN	NaN	NaN	NaN
966.0846363	0.0999	sub-24	1	sequence	stimulus	Haus	NaN	NaN	64.0	NaN	NaN	2.0	2.0	NaN	NaN	NaN	NaN	NaN
966.1845561	0.0668	sub-24	1	sequence	interval	dot	NaN	NaN	NaN	NaN	NaN	NaN	NaN	NaN	NaN	NaN	NaN	NaN
966.2513938000002	0.1	sub-24	1	sequence	stimulus	Katze	NaN	NaN	64.0	NaN	NaN	3.0	3.0	NaN	NaN	NaN	NaN	NaN
966.3513460000004	0.0668	sub-24	1	sequence	interval	dot	NaN	NaN	NaN	NaN	NaN	NaN	NaN	NaN	NaN	NaN	NaN	NaN
966.4181843000006	0.1	sub-24	1	sequence	stimulus	Schuh	NaN	NaN	64.0	NaN	NaN	4.0	4.0	NaN	NaN	NaN	NaN	NaN
966.5181517	0.0669	sub-24	1	sequence	interval	dot	NaN	NaN	NaN	NaN	NaN	NaN	NaN	NaN	NaN	NaN	NaN	NaN
966.5850375	0.1001	sub-24	1	sequence	stimulus	Gesicht	NaN	NaN	64.0	NaN	NaN	1.0	5.0	NaN	NaN	NaN	NaN	NaN
966.6851056000004	0.0667	sub-24	1	sequence	interval	dot	NaN	NaN	NaN	NaN	NaN	NaN	NaN	NaN	NaN	NaN	NaN	NaN
966.7518141	8.3881	sub-24	1	sequence	delay	dot	NaN	NaN	NaN	NaN	NaN	NaN	NaN	NaN	NaN	NaN	NaN	NaN
975.1212397000008	0.7882	sub-24	1	sequence	choice	choice	left	NaN	NaN	0.7676800999997795	True	NaN	NaN	left	True	5.0	2.0	5.0
975.9096753000003	0.5005	sub-24	1	sequence	feedback	NaN	NaN	NaN	NaN	NaN	NaN	NaN	NaN	NaN	NaN	NaN	NaN	NaN
976.4103799000004	1.0005	sub-24	1	sequence	cue	Stuhl	NaN	NaN	NaN	NaN	NaN	NaN	NaN	NaN	NaN	NaN	NaN	NaN
977.4109198000006	2.0013	sub-24	1	sequence	blank	blank	NaN	NaN	NaN	NaN	NaN	NaN	NaN	NaN	NaN	NaN	NaN	NaN
979.4122604000004	0.3001	sub-24	1	sequence	fixation	dot	NaN	NaN	NaN	NaN	NaN	NaN	NaN	NaN	NaN	NaN	NaN	NaN
979.7306514000002	0.1151	sub-24	1	sequence	stimulus	Schuh	NaN	NaN	64.0	NaN	NaN	4.0	1.0	NaN	NaN	NaN	NaN	NaN
979.8457308000006	0.0668	sub-24	1	sequence	interval	dot	NaN	NaN	NaN	NaN	NaN	NaN	NaN	NaN	NaN	NaN	NaN	NaN
979.9124975000004	0.1	sub-24	1	sequence	stimulus	Gesicht	NaN	NaN	64.0	NaN	NaN	1.0	2.0	NaN	NaN	NaN	NaN	NaN
980.0124519	0.0668	sub-24	1	sequence	interval	dot	NaN	NaN	NaN	NaN	NaN	NaN	NaN	NaN	NaN	NaN	NaN	NaN
980.0792382000008	0.1	sub-24	1	sequence	stimulus	Katze	NaN	NaN	64.0	NaN	NaN	3.0	3.0	NaN	NaN	NaN	NaN	NaN
980.1791999000006	0.0669	sub-24	1	sequence	interval	dot	NaN	NaN	NaN	NaN	NaN	NaN	NaN	NaN	NaN	NaN	NaN	NaN
980.2461346	0.0999	sub-24	1	sequence	stimulus	Haus	NaN	NaN	64.0	NaN	NaN	2.0	4.0	NaN	NaN	NaN	NaN	NaN
980.3460236	0.0668	sub-24	1	sequence	interval	dot	NaN	NaN	NaN	NaN	NaN	NaN	NaN	NaN	NaN	NaN	NaN	NaN
980.4128621	0.1	sub-24	1	sequence	stimulus	Stuhl	NaN	NaN	64.0	NaN	NaN	5.0	5.0	NaN	NaN	NaN	NaN	NaN
980.5128249000009	0.0667	sub-24	1	sequence	interval	dot	NaN	NaN	NaN	NaN	NaN	NaN	NaN	NaN	NaN	NaN	NaN	NaN
980.5795344000009	8.3883	sub-24	1	sequence	delay	dot	NaN	NaN	NaN	NaN	NaN	NaN	NaN	NaN	NaN	NaN	NaN	NaN
988.9527522000008	0.9179	sub-24	1	sequence	choice	choice	left	NaN	NaN	0.8916726000006747	False	NaN	NaN	right	True	4.0	5.0	5.0
989.8708799000004	0.5001	sub-24	1	sequence	feedback	NaN	NaN	NaN	NaN	NaN	NaN	NaN	NaN	NaN	NaN	NaN	NaN	NaN
990.3711612000006	1.0005	sub-24	1	sequence	cue	Gesicht	NaN	NaN	NaN	NaN	NaN	NaN	NaN	NaN	NaN	NaN	NaN	NaN
991.3717134000008	2.0016	sub-24	1	sequence	blank	blank	NaN	NaN	NaN	NaN	NaN	NaN	NaN	NaN	NaN	NaN	NaN	NaN
993.3733725000002	0.3001	sub-24	1	sequence	fixation	dot	NaN	NaN	NaN	NaN	NaN	NaN	NaN	NaN	NaN	NaN	NaN	NaN
993.6909761000006	0.0993	sub-24	1	sequence	stimulus	Stuhl	NaN	NaN	512.0	NaN	NaN	5.0	1.0	NaN	NaN	NaN	NaN	NaN
993.7902283000004	0.5172	sub-24	1	sequence	interval	dot	NaN	NaN	NaN	NaN	NaN	NaN	NaN	NaN	NaN	NaN	NaN	NaN
994.3074311	0.1	sub-24	1	sequence	stimulus	Haus	NaN	NaN	512.0	NaN	NaN	2.0	2.0	NaN	NaN	NaN	NaN	NaN
994.4074114000005	0.5172	sub-24	1	sequence	interval	dot	NaN	NaN	NaN	NaN	NaN	NaN	NaN	NaN	NaN	NaN	NaN	NaN
994.9245829	0.1	sub-24	1	sequence	stimulus	Gesicht	NaN	NaN	512.0	NaN	NaN	1.0	3.0	NaN	NaN	NaN	NaN	NaN
995.0245531	0.5172	sub-24	1	sequence	interval	dot	NaN	NaN	NaN	NaN	NaN	NaN	NaN	NaN	NaN	NaN	NaN	NaN
995.5417390000002	0.1	sub-24	1	sequence	stimulus	Katze	NaN	NaN	512.0	NaN	NaN	3.0	4.0	NaN	NaN	NaN	NaN	NaN
995.6417327000008	0.5172	sub-24	1	sequence	interval	dot	NaN	NaN	NaN	NaN	NaN	NaN	NaN	NaN	NaN	NaN	NaN	NaN
996.1589303	0.1	sub-24	1	sequence	stimulus	Schuh	NaN	NaN	512.0	NaN	NaN	4.0	5.0	NaN	NaN	NaN	NaN	NaN
996.2589015000004	0.5178	sub-24	1	sequence	interval	dot	NaN	NaN	NaN	NaN	NaN	NaN	NaN	NaN	NaN	NaN	NaN	NaN
996.7767188000008	6.1524	sub-24	1	sequence	delay	dot	NaN	NaN	NaN	NaN	NaN	NaN	NaN	NaN	NaN	NaN	NaN	NaN
1002.9145444000004	0.6838	sub-24	1	sequence	choice	choice	right	NaN	NaN	0.6664240000000063	True	NaN	NaN	right	True	5.0	3.0	3.0
1003.5985862000008	0.5001	sub-24	1	sequence	feedback	NaN	NaN	NaN	NaN	NaN	NaN	NaN	NaN	NaN	NaN	NaN	NaN	NaN
1004.0988641000004	1.0006	sub-24	1	sequence	cue	Stuhl	NaN	NaN	NaN	NaN	NaN	NaN	NaN	NaN	NaN	NaN	NaN	NaN
1005.0995000000004	2.0016	sub-24	1	sequence	blank	blank	NaN	NaN	NaN	NaN	NaN	NaN	NaN	NaN	NaN	NaN	NaN	NaN
1007.1010799000004	0.3002	sub-24	1	sequence	fixation	dot	NaN	NaN	NaN	NaN	NaN	NaN	NaN	NaN	NaN	NaN	NaN	NaN
1007.4196025	0.1152	sub-24	1	sequence	stimulus	Katze	NaN	NaN	128.0	NaN	NaN	3.0	1.0	NaN	NaN	NaN	NaN	NaN
1007.5347679000006	0.1335	sub-24	1	sequence	interval	dot	NaN	NaN	NaN	NaN	NaN	NaN	NaN	NaN	NaN	NaN	NaN	NaN
1007.6682364000008	0.1	sub-24	1	sequence	stimulus	Haus	NaN	NaN	128.0	NaN	NaN	2.0	2.0	NaN	NaN	NaN	NaN	NaN
1007.7682516000004	0.1335	sub-24	1	sequence	interval	dot	NaN	NaN	NaN	NaN	NaN	NaN	NaN	NaN	NaN	NaN	NaN	NaN
1007.9017473000004	0.1	sub-24	1	sequence	stimulus	Schuh	NaN	NaN	128.0	NaN	NaN	4.0	3.0	NaN	NaN	NaN	NaN	NaN
1008.0017380000008	0.1336	sub-24	1	sequence	interval	dot	NaN	NaN	NaN	NaN	NaN	NaN	NaN	NaN	NaN	NaN	NaN	NaN
1008.1353558	0.0999	sub-24	1	sequence	stimulus	Stuhl	NaN	NaN	128.0	NaN	NaN	5.0	4.0	NaN	NaN	NaN	NaN	NaN
1008.2352209	0.1336	sub-24	1	sequence	interval	dot	NaN	NaN	NaN	NaN	NaN	NaN	NaN	NaN	NaN	NaN	NaN	NaN
1008.3687950000004	0.1	sub-24	1	sequence	stimulus	Gesicht	NaN	NaN	128.0	NaN	NaN	1.0	5.0	NaN	NaN	NaN	NaN	NaN
1008.4687606000008	0.1334	sub-24	1	sequence	interval	dot	NaN	NaN	NaN	NaN	NaN	NaN	NaN	NaN	NaN	NaN	NaN	NaN
1008.6021803000004	8.0547	sub-24	1	sequence	delay	dot	NaN	NaN	NaN	NaN	NaN	NaN	NaN	NaN	NaN	NaN	NaN	NaN
1016.6423460000004	0.7338	sub-24	1	sequence	choice	choice	right	NaN	NaN	0.7146685999996407	True	NaN	NaN	right	True	2.0	4.0	4.0
1017.3763940000008	0.5	sub-24	1	sequence	feedback	NaN	NaN	NaN	NaN	NaN	NaN	NaN	NaN	NaN	NaN	NaN	NaN	NaN
1017.8765519000008	1.0009	sub-24	1	sequence	cue	Schuh	NaN	NaN	NaN	NaN	NaN	NaN	NaN	NaN	NaN	NaN	NaN	NaN
1018.8774506	2.0016	sub-24	1	sequence	blank	blank	NaN	NaN	NaN	NaN	NaN	NaN	NaN	NaN	NaN	NaN	NaN	NaN
1020.8790317000004	0.3003	sub-24	1	sequence	fixation	dot	NaN	NaN	NaN	NaN	NaN	NaN	NaN	NaN	NaN	NaN	NaN	NaN
1021.19758	0.1151	sub-24	1	sequence	stimulus	Gesicht	NaN	NaN	32.0	NaN	NaN	1.0	1.0	NaN	NaN	NaN	NaN	NaN
1021.3126743000004	0.0335	sub-24	1	sequence	interval	dot	NaN	NaN	NaN	NaN	NaN	NaN	NaN	NaN	NaN	NaN	NaN	NaN
1021.3461677000004	0.0999	sub-24	1	sequence	stimulus	Haus	NaN	NaN	32.0	NaN	NaN	2.0	2.0	NaN	NaN	NaN	NaN	NaN
1021.4461042000004	0.0335	sub-24	1	sequence	interval	dot	NaN	NaN	NaN	NaN	NaN	NaN	NaN	NaN	NaN	NaN	NaN	NaN
1021.4795834000006	0.0999	sub-24	1	sequence	stimulus	Stuhl	NaN	NaN	32.0	NaN	NaN	5.0	3.0	NaN	NaN	NaN	NaN	NaN
1021.5795113000004	0.0335	sub-24	1	sequence	interval	dot	NaN	NaN	NaN	NaN	NaN	NaN	NaN	NaN	NaN	NaN	NaN	NaN
1021.6129965	0.1	sub-24	1	sequence	stimulus	Katze	NaN	NaN	32.0	NaN	NaN	3.0	4.0	NaN	NaN	NaN	NaN	NaN
1021.7129591000004	0.0334	sub-24	1	sequence	interval	dot	NaN	NaN	NaN	NaN	NaN	NaN	NaN	NaN	NaN	NaN	NaN	NaN
1021.7464061	0.1	sub-24	1	sequence	stimulus	Schuh	NaN	NaN	32.0	NaN	NaN	4.0	5.0	NaN	NaN	NaN	NaN	NaN
1021.8463862000008	0.0333	sub-24	1	sequence	interval	dot	NaN	NaN	NaN	NaN	NaN	NaN	NaN	NaN	NaN	NaN	NaN	NaN
1021.8796702000008	8.5383	sub-24	1	sequence	delay	dot	NaN	NaN	NaN	NaN	NaN	NaN	NaN	NaN	NaN	NaN	NaN	NaN
1030.3959985	1.1583	sub-24	1	sequence	choice	choice	right	NaN	NaN	1.1296449000001303	False	NaN	NaN	left	True	5.0	4.0	5.0
1031.5545128000003	0.5001	sub-24	1	sequence	feedback	NaN	NaN	NaN	NaN	NaN	NaN	NaN	NaN	NaN	NaN	NaN	NaN	NaN
1032.0547723	1.0007	sub-24	1	sequence	cue	Schuh	NaN	NaN	NaN	NaN	NaN	NaN	NaN	NaN	NaN	NaN	NaN	NaN
1033.0554510000002	2.0016	sub-24	1	sequence	blank	blank	NaN	NaN	NaN	NaN	NaN	NaN	NaN	NaN	NaN	NaN	NaN	NaN
1035.0570715000003	0.3003	sub-24	1	sequence	fixation	dot	NaN	NaN	NaN	NaN	NaN	NaN	NaN	NaN	NaN	NaN	NaN	NaN
1035.3746833000005	0.0993	sub-24	1	sequence	stimulus	Stuhl	NaN	NaN	128.0	NaN	NaN	5.0	1.0	NaN	NaN	NaN	NaN	NaN
1035.4739489000003	0.1336	sub-24	1	sequence	interval	dot	NaN	NaN	NaN	NaN	NaN	NaN	NaN	NaN	NaN	NaN	NaN	NaN
1035.607525400001	0.1	sub-24	1	sequence	stimulus	Haus	NaN	NaN	128.0	NaN	NaN	2.0	2.0	NaN	NaN	NaN	NaN	NaN
1035.7075622000002	0.1336	sub-24	1	sequence	interval	dot	NaN	NaN	NaN	NaN	NaN	NaN	NaN	NaN	NaN	NaN	NaN	NaN
1035.8411147000006	0.0999	sub-24	1	sequence	stimulus	Schuh	NaN	NaN	128.0	NaN	NaN	4.0	3.0	NaN	NaN	NaN	NaN	NaN
1035.9410004	0.1336	sub-24	1	sequence	interval	dot	NaN	NaN	NaN	NaN	NaN	NaN	NaN	NaN	NaN	NaN	NaN	NaN
1036.074568	0.1	sub-24	1	sequence	stimulus	Katze	NaN	NaN	128.0	NaN	NaN	3.0	4.0	NaN	NaN	NaN	NaN	NaN
1036.1745258	0.1336	sub-24	1	sequence	interval	dot	NaN	NaN	NaN	NaN	NaN	NaN	NaN	NaN	NaN	NaN	NaN	NaN
1036.3081136	0.0999	sub-24	1	sequence	stimulus	Gesicht	NaN	NaN	128.0	NaN	NaN	1.0	5.0	NaN	NaN	NaN	NaN	NaN
1036.4080269000006	0.1334	sub-24	1	sequence	interval	dot	NaN	NaN	NaN	NaN	NaN	NaN	NaN	NaN	NaN	NaN	NaN	NaN
1036.5414760000003	8.0713	sub-24	1	sequence	delay	dot	NaN	NaN	NaN	NaN	NaN	NaN	NaN	NaN	NaN	NaN	NaN	NaN
1044.5916114	0.874	sub-24	1	sequence	choice	choice	left	NaN	NaN	0.8388033999999607	True	NaN	NaN	left	True	3.0	2.0	3.0
1045.4659081	0.4999	sub-24	1	sequence	feedback	NaN	NaN	NaN	NaN	NaN	NaN	NaN	NaN	NaN	NaN	NaN	NaN	NaN
1045.9659376000009	1.0008	sub-24	1	sequence	cue	Haus	NaN	NaN	NaN	NaN	NaN	NaN	NaN	NaN	NaN	NaN	NaN	NaN
1046.9667241000006	2.0015	sub-24	1	sequence	blank	blank	NaN	NaN	NaN	NaN	NaN	NaN	NaN	NaN	NaN	NaN	NaN	NaN
1048.9682327	0.3003	sub-24	1	sequence	fixation	dot	NaN	NaN	NaN	NaN	NaN	NaN	NaN	NaN	NaN	NaN	NaN	NaN
1049.2861911	0.0991	sub-24	1	sequence	stimulus	Schuh	NaN	NaN	32.0	NaN	NaN	4.0	1.0	NaN	NaN	NaN	NaN	NaN
1049.3853239	0.0334	sub-24	1	sequence	interval	dot	NaN	NaN	NaN	NaN	NaN	NaN	NaN	NaN	NaN	NaN	NaN	NaN
1049.4187233000002	0.0999	sub-24	1	sequence	stimulus	Gesicht	NaN	NaN	32.0	NaN	NaN	1.0	2.0	NaN	NaN	NaN	NaN	NaN
1049.5186675000004	0.0335	sub-24	1	sequence	interval	dot	NaN	NaN	NaN	NaN	NaN	NaN	NaN	NaN	NaN	NaN	NaN	NaN
1049.5521564	0.1	sub-24	1	sequence	stimulus	Haus	NaN	NaN	32.0	NaN	NaN	2.0	3.0	NaN	NaN	NaN	NaN	NaN
1049.6521582000005	0.0334	sub-24	1	sequence	interval	dot	NaN	NaN	NaN	NaN	NaN	NaN	NaN	NaN	NaN	NaN	NaN	NaN
1049.6855857	0.1	sub-24	1	sequence	stimulus	Katze	NaN	NaN	32.0	NaN	NaN	3.0	4.0	NaN	NaN	NaN	NaN	NaN
1049.785541900001	0.0335	sub-24	1	sequence	interval	dot	NaN	NaN	NaN	NaN	NaN	NaN	NaN	NaN	NaN	NaN	NaN	NaN
1049.8190126000009	0.1	sub-24	1	sequence	stimulus	Stuhl	NaN	NaN	32.0	NaN	NaN	5.0	5.0	NaN	NaN	NaN	NaN	NaN
1049.918987	0.0334	sub-24	1	sequence	interval	dot	NaN	NaN	NaN	NaN	NaN	NaN	NaN	NaN	NaN	NaN	NaN	NaN
1049.9523519000004	8.5217	sub-24	1	sequence	delay	dot	NaN	NaN	NaN	NaN	NaN	NaN	NaN	NaN	NaN	NaN	NaN	NaN
1058.4492875000003	0.7442	sub-24	1	sequence	choice	choice	right	NaN	NaN	0.7055637999992541	True	NaN	NaN	right	True	2.0	3.0	3.0
1059.1937360000002	0.5	sub-24	1	sequence	feedback	NaN	NaN	NaN	NaN	NaN	NaN	NaN	NaN	NaN	NaN	NaN	NaN	NaN
1063.5143877	0.4993	sub-24	1	localizer	stimulus	Haus	NaN	0	2.518446800000902	NaN	True	NaN	NaN	NaN	NaN	NaN	NaN	NaN
1063.9972871	2.5184	sub-24	1	localizer	blank	interval	NaN	NaN	NaN	NaN	NaN	NaN	NaN	NaN	NaN	NaN	NaN	NaN
1066.8168051000002	0.4995	sub-24	1	localizer	stimulus	Gesicht	NaN	0	2.585348200000226	NaN	True	NaN	NaN	NaN	NaN	NaN	NaN	NaN
1067.2998069000005	2.5853	sub-24	1	localizer	blank	interval	NaN	NaN	NaN	NaN	NaN	NaN	NaN	NaN	NaN	NaN	NaN	NaN
1070.1862109000003	0.4997	sub-24	1	localizer	stimulus	Gesicht	NaN	0	2.702084399999876	NaN	True	NaN	NaN	NaN	NaN	NaN	NaN	NaN
1070.6692082000009	2.7021	sub-24	1	localizer	blank	interval	NaN	NaN	NaN	NaN	NaN	NaN	NaN	NaN	NaN	NaN	NaN	NaN
1073.6723689	0.4995	sub-24	1	localizer	stimulus	Haus	NaN	0	2.068178099999386	NaN	True	NaN	NaN	NaN	NaN	NaN	NaN	NaN
1074.1554932000008	2.0682	sub-24	1	localizer	blank	interval	NaN	NaN	NaN	NaN	NaN	NaN	NaN	NaN	NaN	NaN	NaN	NaN
1076.5246771000002	0.4996	sub-24	1	localizer	stimulus	Schuh	NaN	180	2.3517901000004713	0.5988803999998709	True	NaN	NaN	NaN	NaN	NaN	NaN	NaN
1077.0076710000003	2.3518	sub-24	1	localizer	blank	interval	NaN	NaN	NaN	NaN	NaN	NaN	NaN	NaN	NaN	NaN	NaN	NaN
1079.6606234	0.4995	sub-24	1	localizer	stimulus	Katze	NaN	0	2.035053400000834	NaN	True	NaN	NaN	NaN	NaN	NaN	NaN	NaN
1080.1434663	2.0351	sub-24	1	localizer	blank	interval	NaN	NaN	NaN	NaN	NaN	NaN	NaN	NaN	NaN	NaN	NaN	NaN
1082.4795589000005	0.4996	sub-24	1	localizer	stimulus	Gesicht	NaN	0	2.467921100000467	NaN	True	NaN	NaN	NaN	NaN	NaN	NaN	NaN
1082.9631181000004	2.4679	sub-24	1	localizer	blank	interval	NaN	NaN	NaN	NaN	NaN	NaN	NaN	NaN	NaN	NaN	NaN	NaN
1085.7321347000006	0.4995	sub-24	1	localizer	stimulus	Stuhl	NaN	0	2.1683164999994915	NaN	True	NaN	NaN	NaN	NaN	NaN	NaN	NaN
1086.2151114000008	2.1683	sub-24	1	localizer	blank	interval	NaN	NaN	NaN	NaN	NaN	NaN	NaN	NaN	NaN	NaN	NaN	NaN
1088.6844921000002	0.4996	sub-24	1	localizer	stimulus	Stuhl	NaN	0	2.4684909000009156	NaN	True	NaN	NaN	NaN	NaN	NaN	NaN	NaN
1089.167563	2.4685	sub-24	1	localizer	blank	interval	NaN	NaN	NaN	NaN	NaN	NaN	NaN	NaN	NaN	NaN	NaN	NaN
1091.9371239000002	0.4996	sub-24	1	localizer	stimulus	Gesicht	NaN	180	2.9020550999994157	0.5623697000000902	True	NaN	NaN	NaN	NaN	NaN	NaN	NaN
1092.4203183000009	2.9021	sub-24	1	localizer	blank	interval	NaN	NaN	NaN	NaN	NaN	NaN	NaN	NaN	NaN	NaN	NaN	NaN
1095.6234433000009	0.4996	sub-24	1	localizer	stimulus	Katze	NaN	0	1.7846190000000206	NaN	True	NaN	NaN	NaN	NaN	NaN	NaN	NaN
1096.1064830000005	1.7846	sub-24	1	localizer	blank	interval	NaN	NaN	NaN	NaN	NaN	NaN	NaN	NaN	NaN	NaN	NaN	NaN
1098.1922117000004	0.4996	sub-24	1	localizer	stimulus	Stuhl	NaN	0	2.552083599999605	NaN	True	NaN	NaN	NaN	NaN	NaN	NaN	NaN
1098.6751808000008	2.5521	sub-24	1	localizer	blank	interval	NaN	NaN	NaN	NaN	NaN	NaN	NaN	NaN	NaN	NaN	NaN	NaN
1101.5283565	0.4995	sub-24	1	localizer	stimulus	Schuh	NaN	0	3.552727999999661	NaN	True	NaN	NaN	NaN	NaN	NaN	NaN	NaN
1102.0113766000004	3.5527	sub-24	1	localizer	blank	interval	NaN	NaN	NaN	NaN	NaN	NaN	NaN	NaN	NaN	NaN	NaN	NaN
1105.8650982000008	0.4995	sub-24	1	localizer	stimulus	Schuh	NaN	0	2.7854631000000154	NaN	True	NaN	NaN	NaN	NaN	NaN	NaN	NaN
1106.3480869000005	2.7855	sub-24	1	localizer	blank	interval	NaN	NaN	NaN	NaN	NaN	NaN	NaN	NaN	NaN	NaN	NaN	NaN
1109.4346043000005	0.4996	sub-24	1	localizer	stimulus	Stuhl	NaN	180	2.368467399999645	0.5529931999999462	True	NaN	NaN	NaN	NaN	NaN	NaN	NaN
1109.9176313000007	2.3685	sub-24	1	localizer	blank	interval	NaN	NaN	NaN	NaN	NaN	NaN	NaN	NaN	NaN	NaN	NaN	NaN
